subj,Session,trial,rt,object_response,category,condition,imagename
subject-01,1,1,1.05363798141479,knife,knife,c30,0001_cop_s01_c30_knife_10_n03041632_7380.png
subject-01,1,2,0.825402021408081,bicycle,bicycle,c100,0002_cop_s01_c100_bicycle_10_n03792782_5966.png
subject-01,1,3,1.01556706428528,airplane,bird,c01,0003_cop_s01_c01_bird_10_n01601694_10802.png
subject-01,1,4,0.919031858444214,cat,airplane,c05,0004_cop_s01_c05_airplane_10_n02690373_9759.png
subject-01,1,5,0.786803960800171,oven,car,c03,0005_cop_s01_c03_car_10_n02814533_2236.png
subject-01,1,6,1.11660599708557,keyboard,chair,c30,0006_cop_s01_c30_chair_10_n02791124_7207.png
subject-01,1,7,0.790488958358765,oven,oven,c50,0007_cop_s01_c50_oven_10_n04111531_7064.png
subject-01,1,8,1.02609992027283,boat,bird,c15,0008_cop_s01_c15_bird_10_n01532829_2263.png
subject-01,1,9,1.16797614097595,bicycle,bicycle,c50,0009_cop_s01_c50_bicycle_10_n02835271_3383.png
subject-01,1,10,0.824113845825195,boat,bicycle,c03,0010_cop_s01_c03_bicycle_10_n03792782_27510.png
subject-01,1,11,1.26208090782166,car,bottle,c03,0011_cop_s01_c03_bottle_10_n04557648_10944.png
subject-01,1,12,0.847573041915894,keyboard,keyboard,c15,0012_cop_s01_c15_keyboard_10_n03085013_20891.png
subject-01,1,13,0.919400930404663,elephant,elephant,c30,0013_cop_s01_c30_elephant_10_n02504458_3225.png
subject-01,1,14,0.757005929946899,keyboard,keyboard,c10,0014_cop_s01_c10_keyboard_10_n04505470_6638.png
subject-01,1,15,0.70897102355957,cat,bird,c01,0015_cop_s01_c01_bird_10_n01601694_11888.png
subject-01,1,16,0.680885076522827,oven,airplane,c03,0016_cop_s01_c03_airplane_10_n02690373_8743.png
subject-01,1,17,0.740702867507935,boat,boat,c10,0017_cop_s01_c10_boat_10_n03344393_8869.png
subject-01,1,18,1.01839208602905,car,bear,c01,0018_cop_s01_c01_bear_10_n02132136_27682.png
subject-01,1,19,1.08866500854492,chair,clock,c50,0019_cop_s01_c50_clock_10_n02708093_7081.png
subject-01,1,20,0.992013216018677,car,car,c10,0020_cop_s01_c10_car_10_n03100240_12141.png
subject-01,1,21,1.10982489585876,car,car,c15,0021_cop_s01_c15_car_10_n02814533_19287.png
subject-01,1,22,0.89149808883667,cat,bicycle,c03,0022_cop_s01_c03_bicycle_10_n02835271_3841.png
subject-01,1,23,0.723612070083618,clock,clock,c15,0023_cop_s01_c15_clock_10_n02708093_6696.png
subject-01,1,24,0.77140998840332,boat,bird,c01,0024_cop_s01_c01_bird_10_n01829413_6393.png
subject-01,1,25,1.0150671005249,bear,clock,c01,0025_cop_s01_c01_clock_10_n02708093_3484.png
subject-01,1,26,1.00675106048584,boat,chair,c05,0026_cop_s01_c05_chair_10_n04429376_55163.png
subject-01,1,27,0.714738130569458,boat,boat,c100,0027_cop_s01_c100_boat_10_n02951358_14528.png
subject-01,1,28,0.912616014480591,bear,chair,c01,0028_cop_s01_c01_chair_10_n03376595_9603.png
subject-01,1,29,1.11042594909668,knife,bottle,c03,0029_cop_s01_c03_bottle_10_n03937543_1840.png
subject-01,1,30,0.790267944335938,oven,car,c01,0030_cop_s01_c01_car_10_n02814533_32835.png
subject-01,1,31,1.42832493782043,cat,bird,c15,0031_cop_s01_c15_bird_10_n01860187_38598.png
subject-01,1,32,0.67375111579895,airplane,airplane,c100,0032_cop_s01_c100_airplane_10_n02690373_9322.png
subject-01,1,33,0.75346302986145,boat,bicycle,c01,0033_cop_s01_c01_bicycle_10_n02835271_1505.png
subject-01,1,34,0.843461036682129,bicycle,bicycle,c50,0034_cop_s01_c50_bicycle_10_n03792782_11023.png
subject-01,1,35,0.813095092773438,elephant,elephant,c50,0035_cop_s01_c50_elephant_10_n02504458_4909.png
subject-01,1,36,0.7672119140625,boat,boat,c100,0036_cop_s01_c100_boat_10_n03344393_646.png
subject-01,1,37,0.809186935424805,boat,boat,c10,0037_cop_s01_c10_boat_10_n04612504_2472.png
subject-01,1,38,0.872811079025269,oven,keyboard,c03,0038_cop_s01_c03_keyboard_10_n03085013_4673.png
subject-01,1,39,0.844619989395142,elephant,elephant,c100,0039_cop_s01_c100_elephant_10_n02504458_1138.png
subject-01,1,40,0.81629204750061,car,car,c100,0040_cop_s01_c100_car_10_n03100240_5569.png
subject-01,1,41,1.30429196357727,bear,dog,c100,0041_cop_s01_c100_dog_10_n02107312_7422.png
subject-01,1,42,1.28594398498535,bear,bear,c15,0042_cop_s01_c15_bear_10_n02134084_24140.png
subject-01,1,43,0.909940004348755,bottle,bottle,c100,0043_cop_s01_c100_bottle_10_n04560804_14130.png
subject-01,1,44,0.831486940383911,cat,cat,c30,0044_cop_s01_c30_cat_10_n02124075_11970.png
subject-01,1,45,0.809695959091187,oven,dog,c03,0045_cop_s01_c03_dog_10_n02093991_247.png
subject-01,1,46,0.83532190322876,keyboard,keyboard,c100,0046_cop_s01_c100_keyboard_10_n04505470_375.png
subject-01,1,47,0.888918161392212,bear,bear,c100,0047_cop_s01_c100_bear_10_n02134418_4372.png
subject-01,1,48,0.778733015060425,clock,boat,c01,0048_cop_s01_c01_boat_10_n03344393_2838.png
subject-01,1,49,1.37056612968445,chair,bicycle,c05,0049_cop_s01_c05_bicycle_10_n02835271_4935.png
subject-01,1,50,0.75271201133728,airplane,airplane,c50,0050_cop_s01_c50_airplane_10_n02690373_5382.png
subject-01,1,51,1.2322690486908,bicycle,bottle,c100,0051_cop_s01_c100_bottle_10_n03937543_2123.png
subject-01,1,52,1.01603603363037,cat,dog,c30,0052_cop_s01_c30_dog_10_n02097474_5234.png
subject-01,1,53,0.975738048553467,bottle,bottle,c100,0053_cop_s01_c100_bottle_10_n02823428_6050.png
subject-01,1,54,1.04192304611206,clock,clock,c15,0054_cop_s01_c15_clock_10_n02708093_3743.png
subject-01,1,55,0.957453012466431,car,knife,c03,0055_cop_s01_c03_knife_10_n03041632_55083.png
subject-01,1,56,0.913288831710815,knife,knife,c50,0056_cop_s01_c50_knife_10_n03041632_41310.png
subject-01,1,57,1.01519298553467,bear,knife,c03,0057_cop_s01_c03_knife_10_n03041632_99799.png
subject-01,1,58,1.40097117424011,dog,dog,c15,0058_cop_s01_c15_dog_10_n02094114_8231.png
subject-01,1,59,0.886693000793457,boat,chair,c01,0059_cop_s01_c01_chair_10_n03376595_6173.png
subject-01,1,60,0.89040207862854,oven,oven,c05,0060_cop_s01_c05_oven_10_n04111531_9297.png
subject-01,1,61,1.04227519035339,truck,car,c10,0061_cop_s01_c10_car_10_n03100240_24420.png
subject-01,1,62,0.981981992721558,elephant,elephant,c100,0062_cop_s01_c100_elephant_10_n02504013_2340.png
subject-01,1,63,1.0160870552063,oven,bicycle,c05,0063_cop_s01_c05_bicycle_10_n02835271_10104.png
subject-01,1,64,0.767754077911377,bicycle,bicycle,c15,0064_cop_s01_c15_bicycle_10_n03792782_7165.png
subject-01,1,65,0.89553689956665,boat,knife,c10,0065_cop_s01_c10_knife_10_n03041632_14817.png
subject-01,1,66,0.953308820724487,clock,clock,c15,0066_cop_s01_c15_clock_10_n02708093_118.png
subject-01,1,67,0.956999778747559,airplane,airplane,c10,0067_cop_s01_c10_airplane_10_n02690373_4298.png
subject-01,1,68,1.25702595710754,bottle,knife,c100,0068_cop_s01_c100_knife_10_n03041632_50034.png
subject-01,1,69,0.766813039779663,oven,chair,c03,0069_cop_s01_c03_chair_10_n02791124_1333.png
subject-01,1,70,0.776487112045288,oven,clock,c01,0070_cop_s01_c01_clock_10_n02708093_2318.png
subject-01,1,71,0.768403053283691,cat,elephant,c01,0071_cop_s01_c01_elephant_10_n02504013_3864.png
subject-01,1,72,1.13018298149109,bicycle,chair,c10,0072_cop_s01_c10_chair_10_n04429376_56624.png
subject-01,1,73,0.914210081100464,airplane,airplane,c30,0073_cop_s01_c30_airplane_10_n02690373_7004.png
subject-01,1,74,0.915764093399048,oven,oven,c30,0074_cop_s01_c30_oven_10_n04111531_9692.png
subject-01,1,75,0.845737218856812,car,truck,c50,0075_cop_s01_c50_truck_10_n03796401_296.png
subject-01,1,76,0.939568042755127,boat,airplane,c15,0076_cop_s01_c15_airplane_10_n02690373_1837.png
subject-01,1,77,0.785297155380249,truck,airplane,c03,0077_cop_s01_c03_airplane_10_n02690373_10203.png
subject-01,1,78,0.771535158157349,oven,boat,c03,0078_cop_s01_c03_boat_10_n02951358_34234.png
subject-01,1,79,0.680878877639771,bicycle,bicycle,c100,0079_cop_s01_c100_bicycle_10_n02835271_2885.png
subject-01,1,80,0.870985984802246,airplane,airplane,c30,0080_cop_s01_c30_airplane_10_n02690373_5247.png
subject-01,1,81,0.719524145126343,clock,clock,c50,0081_cop_s01_c50_clock_10_n02708093_596.png
subject-01,1,82,0.607728958129883,cat,chair,c01,0082_cop_s01_c01_chair_10_n03376595_1364.png
subject-01,1,83,1.11755704879761,boat,cat,c03,0083_cop_s01_c03_cat_10_n02124075_12430.png
subject-01,1,84,1.30721497535706,oven,cat,c05,0084_cop_s01_c05_cat_10_n02123159_5487.png
subject-01,1,85,0.618927955627441,bicycle,bicycle,c50,0085_cop_s01_c50_bicycle_10_n03792782_17571.png
subject-01,1,86,0.878791093826294,cat,cat,c50,0086_cop_s01_c50_cat_10_n02123159_6132.png
subject-01,1,87,0.958884000778198,bear,bottle,c05,0087_cop_s01_c05_bottle_10_n03937543_2873.png
subject-01,1,88,1.25825095176697,oven,keyboard,c15,0088_cop_s01_c15_keyboard_10_n04505470_1236.png
subject-01,1,89,0.97816801071167,car,airplane,c01,0089_cop_s01_c01_airplane_10_n02690373_4243.png
subject-01,1,90,0.839797019958496,bear,oven,c30,0090_cop_s01_c30_oven_10_n04111531_467.png
subject-01,1,91,1.22776794433594,clock,cat,c03,0091_cop_s01_c03_cat_10_n02123394_2632.png
subject-01,1,92,0.951547861099243,truck,chair,c15,0092_cop_s01_c15_chair_10_n02791124_5268.png
subject-01,1,93,1.01322793960571,chair,knife,c100,0093_cop_s01_c100_knife_10_n03041632_1143.png
subject-01,1,94,0.89116382598877,bottle,chair,c10,0094_cop_s01_c10_chair_10_n02791124_1018.png
subject-01,1,95,0.76894211769104,oven,bicycle,c05,0095_cop_s01_c05_bicycle_10_n03792782_8057.png
subject-01,1,96,0.734825849533081,bear,bear,c30,0096_cop_s01_c30_bear_10_n02132136_1338.png
subject-01,1,97,0.720571041107178,clock,clock,c05,0097_cop_s01_c05_clock_10_n02708093_4798.png
subject-01,1,98,0.78233003616333,boat,truck,c01,0098_cop_s01_c01_truck_10_n03796401_15046.png
subject-01,1,99,1.14639091491699,chair,knife,c50,0099_cop_s01_c50_knife_10_n03041632_13612.png
subject-01,1,100,0.833976984024048,cat,oven,c10,0100_cop_s01_c10_oven_10_n04111531_1898.png
subject-01,1,101,0.873863935470581,boat,truck,c03,0101_cop_s01_c03_truck_10_n04467665_28988.png
subject-01,1,102,0.789648056030273,airplane,airplane,c100,0102_cop_s01_c100_airplane_10_n02690373_736.png
subject-01,1,103,0.995537996292114,dog,dog,c50,0103_cop_s01_c50_dog_10_n02111500_5154.png
subject-01,1,104,1.50006699562073,bicycle,bear,c50,0104_cop_s01_c50_bear_10_n02133161_13461.png
subject-01,1,105,0.96098804473877,dog,dog,c15,0105_cop_s01_c15_dog_10_n02102318_11746.png
subject-01,1,106,0.737188816070557,boat,boat,c50,0106_cop_s01_c50_boat_10_n03662601_12226.png
subject-01,1,107,0.750785112380981,keyboard,keyboard,c05,0107_cop_s01_c05_keyboard_10_n04505470_3207.png
subject-01,1,108,0.730523109436035,bicycle,bicycle,c30,0108_cop_s01_c30_bicycle_10_n03792782_2628.png
subject-01,1,109,0.772293090820312,clock,chair,c01,0109_cop_s01_c01_chair_10_n02791124_3204.png
subject-01,1,110,0.650132179260254,boat,bottle,c03,0110_cop_s01_c03_bottle_10_n04560804_722.png
subject-01,1,111,0.91037917137146,bicycle,bicycle,c30,0111_cop_s01_c30_bicycle_10_n03792782_8847.png
subject-01,1,112,0.879838228225708,bear,bear,c50,0112_cop_s01_c50_bear_10_n02132136_1132.png
subject-01,1,113,0.9220290184021,knife,knife,c50,0113_cop_s01_c50_knife_10_n03041632_6557.png
subject-01,1,114,1.0694751739502,keyboard,knife,c100,0114_cop_s01_c100_knife_10_n03041632_35116.png
subject-01,1,115,0.819121122360229,car,car,c15,0115_cop_s01_c15_car_10_n02814533_3117.png
subject-01,1,116,0.977046966552734,bird,bird,c15,0116_cop_s01_c15_bird_10_n02009229_4224.png
subject-01,1,117,0.9409019947052,chair,chair,c50,0117_cop_s01_c50_chair_10_n03376595_9247.png
subject-01,1,118,0.824722051620483,knife,boat,c01,0118_cop_s01_c01_boat_10_n03662601_5639.png
subject-01,1,119,0.784369945526123,bicycle,bicycle,c10,0119_cop_s01_c10_bicycle_10_n02835271_13437.png
subject-01,1,120,0.694248914718628,boat,bicycle,c05,0120_cop_s01_c05_bicycle_10_n03792782_18294.png
subject-01,1,121,0.688232898712158,clock,boat,c03,0121_cop_s01_c03_boat_10_n02951358_10488.png
subject-01,1,122,0.660124778747559,bird,bird,c50,0122_cop_s01_c50_bird_10_n01829413_14594.png
subject-01,1,123,1.22581887245178,keyboard,clock,c100,0123_cop_s01_c100_clock_10_n03196217_9197.png
subject-01,1,124,0.833887100219727,boat,boat,c15,0124_cop_s01_c15_boat_10_n03662601_1667.png
subject-01,1,125,0.997250080108643,dog,dog,c50,0125_cop_s01_c50_dog_10_n02092339_6946.png
subject-01,1,126,0.977051019668579,cat,airplane,c05,0126_cop_s01_c05_airplane_10_n02690373_1773.png
subject-01,1,127,1.11295914649963,elephant,elephant,c50,0127_cop_s01_c50_elephant_10_n02504013_4278.png
subject-01,1,128,0.76297402381897,bird,bird,c100,0128_cop_s01_c100_bird_10_n02025239_10194.png
subject-01,1,129,1.17295598983765,cat,oven,c15,0129_cop_s01_c15_oven_10_n04111531_1977.png
subject-01,1,130,0.810441017150879,clock,clock,c50,0130_cop_s01_c50_clock_10_n02708093_616.png
subject-01,1,131,1.18254494667053,knife,boat,c10,0131_cop_s01_c10_boat_10_n04273569_10292.png
subject-01,1,132,0.832382202148438,cat,cat,c50,0132_cop_s01_c50_cat_10_n02123394_8592.png
subject-01,1,133,1.08594012260437,bicycle,knife,c10,0133_cop_s01_c10_knife_10_n03041632_16020.png
subject-01,1,134,0.681501865386963,cat,cat,c30,0134_cop_s01_c30_cat_10_n02123394_5466.png
subject-01,1,135,1.05143308639526,oven,elephant,c01,0135_cop_s01_c01_elephant_10_n02504013_7351.png
subject-01,1,136,1.25725603103638,oven,oven,c50,0136_cop_s01_c50_oven_10_n04111531_22388.png
subject-01,1,137,1.08496904373169,chair,chair,c100,0137_cop_s01_c100_chair_10_n04429376_6308.png
subject-01,1,138,0.818747043609619,car,car,c10,0138_cop_s01_c10_car_10_n03100240_8443.png
subject-01,1,139,1.10268092155457,car,car,c100,0139_cop_s01_c100_car_10_n04285008_12446.png
subject-01,1,140,0.792496919631958,clock,keyboard,c01,0140_cop_s01_c01_keyboard_10_n04505470_4440.png
subject-01,1,141,0.72676420211792,car,car,c10,0141_cop_s01_c10_car_10_n04285008_10073.png
subject-01,1,142,0.822064876556396,oven,bottle,c03,0142_cop_s01_c03_bottle_10_n03983396_7378.png
subject-01,1,143,1.05208897590637,bicycle,chair,c15,0143_cop_s01_c15_chair_10_n02791124_5706.png
subject-01,1,144,0.811882972717285,cat,cat,c15,0144_cop_s01_c15_cat_10_n02123045_11224.png
subject-01,1,145,1.00192093849182,chair,chair,c05,0145_cop_s01_c05_chair_10_n03376595_8953.png
subject-01,1,146,0.769536018371582,bicycle,bicycle,c50,0146_cop_s01_c50_bicycle_10_n03792782_66048.png
subject-01,1,147,0.795305967330933,bear,dog,c01,0147_cop_s01_c01_dog_10_n02104365_1123.png
subject-01,1,148,1.12707996368408,car,clock,c05,0148_cop_s01_c05_clock_10_n03196217_3605.png
subject-01,1,149,1.24524593353271,chair,knife,c10,0149_cop_s01_c10_knife_10_n03041632_14916.png
subject-01,1,150,0.746663093566895,bear,bear,c10,0150_cop_s01_c10_bear_10_n02132136_4101.png
subject-01,1,151,0.726556062698364,oven,clock,c01,0151_cop_s01_c01_clock_10_n02708093_7929.png
subject-01,1,152,0.954207897186279,chair,chair,c50,0152_cop_s01_c50_chair_10_n02791124_7630.png
subject-01,1,153,0.67619800567627,clock,clock,c05,0153_cop_s01_c05_clock_10_n02708093_3750.png
subject-01,1,154,0.601980924606323,boat,bird,c01,0154_cop_s01_c01_bird_10_n02037110_12288.png
subject-01,1,155,0.843644142150879,keyboard,keyboard,c05,0155_cop_s01_c05_keyboard_10_n04505470_6080.png
subject-01,1,156,1.05387687683105,keyboard,keyboard,c100,0156_cop_s01_c100_keyboard_10_n03085013_19065.png
subject-01,1,157,1.10345411300659,chair,cat,c10,0157_cop_s01_c10_cat_10_n02123159_4856.png
subject-01,1,158,0.845026016235352,cat,chair,c01,0158_cop_s01_c01_chair_10_n04099969_6913.png
subject-01,1,159,1.29730892181396,bird,knife,c30,0159_cop_s01_c30_knife_10_n03041632_35764.png
subject-01,1,160,0.944717884063721,car,truck,c30,0160_cop_s01_c30_truck_10_n03796401_3012.png
subject-01,1,161,1.0698549747467,elephant,elephant,c10,0161_cop_s01_c10_elephant_10_n02504013_3821.png
subject-01,1,162,1.26765894889832,truck,truck,c100,0162_cop_s01_c100_truck_10_n03796401_3608.png
subject-01,1,163,0.859051942825317,chair,chair,c15,0163_cop_s01_c15_chair_10_n04099969_13811.png
subject-01,1,164,1.12092089653015,dog,bear,c50,0164_cop_s01_c50_bear_10_n02133161_4954.png
subject-01,1,165,1.12868499755859,dog,dog,c15,0165_cop_s01_c15_dog_10_n02085782_6792.png
subject-01,1,166,0.772571086883545,oven,oven,c05,0166_cop_s01_c05_oven_10_n04111531_22886.png
subject-01,1,167,0.688573122024536,boat,dog,c05,0167_cop_s01_c05_dog_10_n02091831_510.png
subject-01,1,168,1.3102080821991,bear,bear,c15,0168_cop_s01_c15_bear_10_n02132136_11339.png
subject-01,1,169,0.782215118408203,chair,bottle,c15,0169_cop_s01_c15_bottle_10_n04557648_2709.png
subject-01,1,170,0.800244808197021,oven,keyboard,c03,0170_cop_s01_c03_keyboard_10_n03085013_21447.png
subject-01,1,171,0.78765606880188,airplane,airplane,c30,0171_cop_s01_c30_airplane_10_n02690373_7676.png
subject-01,1,172,0.91556715965271,dog,dog,c100,0172_cop_s01_c100_dog_10_n02091831_4110.png
subject-01,1,173,1.36346912384033,bird,bird,c10,0173_cop_s01_c10_bird_10_n02007558_16029.png
subject-01,1,174,1.49999785423279,knife,truck,c30,0174_cop_s01_c30_truck_10_n03796401_15097.png
subject-01,1,175,1.2451958656311,airplane,airplane,c30,0175_cop_s01_c30_airplane_10_n02690373_7401.png
subject-01,1,176,1.01485800743103,boat,dog,c05,0176_cop_s01_c05_dog_10_n02108422_4529.png
subject-01,1,177,0.798424005508423,bear,bear,c10,0177_cop_s01_c10_bear_10_n02132136_10514.png
subject-01,1,178,0.730265855789185,oven,airplane,c03,0178_cop_s01_c03_airplane_10_n02690373_5524.png
subject-01,1,179,0.842120170593262,chair,chair,c100,0179_cop_s01_c100_chair_10_n04429376_5965.png
subject-01,1,180,0.830141067504883,airplane,airplane,c15,0180_cop_s01_c15_airplane_10_n02690373_9712.png
subject-01,1,181,0.79201602935791,boat,boat,c30,0181_cop_s01_c30_boat_10_n02951358_29825.png
subject-01,1,182,0.841577053070068,keyboard,keyboard,c03,0182_cop_s01_c03_keyboard_10_n04505470_4887.png
subject-01,1,183,1.03745603561401,oven,truck,c01,0183_cop_s01_c01_truck_10_n04467665_32090.png
subject-01,1,184,0.875119924545288,chair,chair,c05,0184_cop_s01_c05_chair_10_n02791124_4296.png
subject-01,1,185,0.683343887329102,boat,boat,c30,0185_cop_s01_c30_boat_10_n04612504_14669.png
subject-01,1,186,0.692848920822144,cat,airplane,c03,0186_cop_s01_c03_airplane_10_n02690373_891.png
subject-01,1,187,0.828637838363647,clock,clock,c100,0187_cop_s01_c100_clock_10_n04548280_7539.png
subject-01,1,188,0.910502910614014,bear,bear,c30,0188_cop_s01_c30_bear_10_n02134418_4717.png
subject-01,1,189,1.04629421234131,bear,bird,c03,0189_cop_s01_c03_bird_10_n02002724_13195.png
subject-01,1,190,0.954142093658447,dog,bottle,c10,0190_cop_s01_c10_bottle_10_n03937543_2494.png
subject-01,1,191,0.697833061218262,clock,clock,c30,0191_cop_s01_c30_clock_10_n03196217_2307.png
subject-01,1,192,0.959808111190796,clock,clock,c15,0192_cop_s01_c15_clock_10_n04548280_17907.png
subject-01,1,193,0.851963043212891,oven,chair,c03,0193_cop_s01_c03_chair_10_n03376595_6540.png
subject-01,1,194,0.767455101013184,cat,cat,c30,0194_cop_s01_c30_cat_10_n02123045_1484.png
subject-01,1,195,0.833332061767578,cat,knife,c03,0195_cop_s01_c03_knife_10_n03041632_89912.png
subject-01,1,196,0.827076196670532,bottle,bottle,c05,0196_cop_s01_c05_bottle_10_n04591713_6975.png
subject-01,1,197,0.970808029174805,clock,bird,c50,0197_cop_s01_c50_bird_10_n01860187_810.png
subject-01,1,198,0.914761066436768,oven,oven,c03,0198_cop_s01_c03_oven_10_n04111531_5967.png
subject-01,1,199,0.606590986251831,boat,boat,c15,0199_cop_s01_c15_boat_10_n04612504_18954.png
subject-01,1,200,0.724125146865845,bicycle,bicycle,c10,0200_cop_s01_c10_bicycle_10_n03792782_68259.png
subject-01,1,201,0.75213098526001,oven,car,c03,0201_cop_s01_c03_car_10_n04285008_296.png
subject-01,1,202,0.847800970077515,oven,airplane,c03,0202_cop_s01_c03_airplane_10_n02690373_12929.png
subject-01,1,203,0.731845140457153,cat,boat,c01,0203_cop_s01_c01_boat_10_n03344393_8761.png
subject-01,1,204,0.581459999084473,clock,clock,c30,0204_cop_s01_c30_clock_10_n03196217_3877.png
subject-01,1,205,1.49971508979797,dog,bear,c10,0205_cop_s01_c10_bear_10_n02134084_1346.png
subject-01,1,206,1.10513114929199,oven,knife,c03,0206_cop_s01_c03_knife_10_n03041632_48151.png
subject-01,1,207,0.864941120147705,airplane,airplane,c50,0207_cop_s01_c50_airplane_10_n02690373_3589.png
subject-01,1,208,0.86869215965271,bottle,bottle,c50,0208_cop_s01_c50_bottle_10_n04560804_2942.png
subject-01,1,209,1.50014710426331,car,keyboard,c03,0209_cop_s01_c03_keyboard_10_n04505470_5022.png
subject-01,1,210,0.942439079284668,dog,dog,c10,0210_cop_s01_c10_dog_10_n02096294_1043.png
subject-01,1,211,0.960078001022339,airplane,airplane,c50,0211_cop_s01_c50_airplane_10_n02690373_1350.png
subject-01,1,212,1.15005087852478,clock,chair,c03,0212_cop_s01_c03_chair_10_n04099969_27865.png
subject-01,1,213,0.879873991012573,oven,oven,c01,0213_cop_s01_c01_oven_10_n04111531_22120.png
subject-01,1,214,1.03749895095825,bear,elephant,c50,0214_cop_s01_c50_elephant_10_n02504458_5600.png
subject-01,1,215,1.10938882827759,bird,cat,c03,0215_cop_s01_c03_cat_10_n02123597_11138.png
subject-01,1,216,1.41738986968994,chair,cat,c30,0216_cop_s01_c30_cat_10_n02125311_5717.png
subject-01,1,217,0.93303394317627,clock,chair,c15,0217_cop_s01_c15_chair_10_n02791124_11404.png
subject-01,1,218,0.896854877471924,cat,cat,c100,0218_cop_s01_c100_cat_10_n02123394_2984.png
subject-01,1,219,1.25059008598328,dog,dog,c10,0219_cop_s01_c10_dog_10_n02087394_9693.png
subject-01,1,220,1.05852699279785,bottle,dog,c01,0220_cop_s01_c01_dog_10_n02098105_2086.png
subject-01,1,221,1.50011301040649,dog,cat,c10,0221_cop_s01_c10_cat_10_n02123159_6932.png
subject-01,1,222,1.0062358379364,car,car,c15,0222_cop_s01_c15_car_10_n04285008_8323.png
subject-01,1,223,1.01995587348938,boat,truck,c01,0223_cop_s01_c01_truck_10_n03796401_2226.png
subject-01,1,224,0.925833940505981,clock,bear,c05,0224_cop_s01_c05_bear_10_n02134084_6223.png
subject-01,1,225,0.693467855453491,cat,cat,c05,0225_cop_s01_c05_cat_10_n02125311_22459.png
subject-01,1,226,0.769742965698242,bicycle,bicycle,c10,0226_cop_s01_c10_bicycle_10_n02835271_19143.png
subject-01,1,227,0.851109981536865,cat,cat,c10,0227_cop_s01_c10_cat_10_n02123597_4357.png
subject-01,1,228,0.744893074035645,oven,boat,c03,0228_cop_s01_c03_boat_10_n04273569_6180.png
subject-01,1,229,0.779076099395752,airplane,airplane,c100,0229_cop_s01_c100_airplane_10_n02690373_139.png
subject-01,1,230,1.2266891002655,knife,bottle,c10,0230_cop_s01_c10_bottle_10_n04557648_4165.png
subject-01,1,231,1.2946400642395,keyboard,bottle,c50,0231_cop_s01_c50_bottle_10_n04560804_5756.png
subject-01,1,232,0.960242986679077,truck,truck,c15,0232_cop_s01_c15_truck_10_n04467665_39477.png
subject-01,1,233,1.0562539100647,cat,cat,c01,0233_cop_s01_c01_cat_10_n02123159_386.png
subject-01,1,234,1.00809121131897,dog,bear,c15,0234_cop_s01_c15_bear_10_n02134084_4859.png
subject-01,1,235,1.04178690910339,dog,dog,c03,0235_cop_s01_c03_dog_10_n02099429_1992.png
subject-01,1,236,1.11756086349487,oven,oven,c03,0236_cop_s01_c03_oven_10_n04111531_584.png
subject-01,1,237,0.907318830490112,keyboard,bottle,c05,0237_cop_s01_c05_bottle_10_n04591713_4019.png
subject-01,1,238,0.793267965316772,oven,dog,c03,0238_cop_s01_c03_dog_10_n02113712_4486.png
subject-01,1,239,1.05292201042175,airplane,chair,c50,0239_cop_s01_c50_chair_10_n03376595_13018.png
subject-01,1,240,NaN,na,oven,c50,0240_cop_s01_c50_oven_10_n04111531_7421.png
subject-01,1,241,0.813599109649658,clock,cat,c01,0241_cop_s01_c01_cat_10_n02123045_10689.png
subject-01,1,242,0.801353931427002,oven,clock,c05,0242_cop_s01_c05_clock_10_n02708093_4391.png
subject-01,1,243,0.677057981491089,clock,clock,c50,0243_cop_s01_c50_clock_10_n02708093_3759.png
subject-01,1,244,0.860797166824341,boat,elephant,c05,0244_cop_s01_c05_elephant_10_n02504013_648.png
subject-01,1,245,0.902717113494873,cat,bottle,c01,0245_cop_s01_c01_bottle_10_n04591713_1879.png
subject-01,1,246,0.834402799606323,cat,dog,c01,0246_cop_s01_c01_dog_10_n02110627_20194.png
subject-01,1,247,1.25830793380737,truck,truck,c50,0247_cop_s01_c50_truck_10_n03796401_13298.png
subject-01,1,248,0.898077964782715,chair,chair,c100,0248_cop_s01_c100_chair_10_n03376595_7824.png
subject-01,1,249,0.829994916915894,oven,bear,c05,0249_cop_s01_c05_bear_10_n02134418_6252.png
subject-01,1,250,0.769944190979004,bird,bird,c50,0250_cop_s01_c50_bird_10_n01855032_1815.png
subject-01,1,251,1.21759796142578,car,car,c100,0251_cop_s01_c100_car_10_n03100240_6773.png
subject-01,1,252,1.05549597740173,keyboard,keyboard,c03,0252_cop_s01_c03_keyboard_10_n03085013_22438.png
subject-01,1,253,0.675132989883423,oven,keyboard,c01,0253_cop_s01_c01_keyboard_10_n04505470_4950.png
subject-01,1,254,0.57915186882019,oven,truck,c03,0254_cop_s01_c03_truck_10_n04467665_22358.png
subject-01,1,255,0.862710952758789,truck,truck,c15,0255_cop_s01_c15_truck_10_n04467665_67969.png
subject-01,1,256,1.22445702552795,bird,elephant,c10,0256_cop_s01_c10_elephant_10_n02504013_2128.png
subject-01,1,257,0.880508899688721,car,car,c30,0257_cop_s01_c30_car_10_n03100240_3499.png
subject-01,1,258,1.02446389198303,bear,bear,c50,0258_cop_s01_c50_bear_10_n02134084_7250.png
subject-01,1,259,NaN,na,bicycle,c15,0259_cop_s01_c15_bicycle_10_n03792782_43279.png
subject-01,1,260,0.633838176727295,cat,cat,c50,0260_cop_s01_c50_cat_10_n02123045_1274.png
subject-01,1,261,0.643595933914185,oven,oven,c100,0261_cop_s01_c100_oven_10_n04111531_6567.png
subject-01,1,262,0.959548950195312,knife,knife,c100,0262_cop_s01_c100_knife_10_n03041632_86338.png
subject-01,1,263,0.875643014907837,oven,chair,c15,0263_cop_s01_c15_chair_10_n02791124_9757.png
subject-01,1,264,0.761133909225464,knife,knife,c15,0264_cop_s01_c15_knife_10_n03041632_45090.png
subject-01,1,265,0.656836986541748,cat,bicycle,c01,0265_cop_s01_c01_bicycle_10_n02835271_1436.png
subject-01,1,266,0.944852113723755,cat,bird,c03,0266_cop_s01_c03_bird_10_n01798484_8189.png
subject-01,1,267,1.2745418548584,dog,bird,c15,0267_cop_s01_c15_bird_10_n01819313_1282.png
subject-01,1,268,0.790446996688843,bottle,bottle,c100,0268_cop_s01_c100_bottle_10_n03983396_11519.png
subject-01,1,269,0.784307956695557,oven,boat,c05,0269_cop_s01_c05_boat_10_n03344393_7735.png
subject-01,1,270,0.670101165771484,boat,bottle,c05,0270_cop_s01_c05_bottle_10_n04560804_21795.png
subject-01,1,271,0.907863855361938,chair,chair,c30,0271_cop_s01_c30_chair_10_n02791124_4109.png
subject-01,1,272,0.848015069961548,keyboard,keyboard,c03,0272_cop_s01_c03_keyboard_10_n04505470_9663.png
subject-01,1,273,1.05344891548157,knife,knife,c15,0273_cop_s01_c15_knife_10_n03041632_27709.png
subject-01,1,274,1.21124291419983,chair,airplane,c50,0274_cop_s01_c50_airplane_10_n02690373_8539.png
subject-01,1,275,0.837049007415771,bicycle,bear,c15,0275_cop_s01_c15_bear_10_n02134418_2175.png
subject-01,1,276,0.886834859848022,elephant,elephant,c50,0276_cop_s01_c50_elephant_10_n02504458_2875.png
subject-01,1,277,0.78118896484375,oven,chair,c03,0277_cop_s01_c03_chair_10_n02791124_5868.png
subject-01,1,278,1.22048497200012,dog,cat,c10,0278_cop_s01_c10_cat_10_n02123597_488.png
subject-01,1,279,1.17236399650574,bicycle,oven,c30,0279_cop_s01_c30_oven_10_n04111531_6500.png
subject-01,1,280,1.25404000282288,bicycle,bicycle,c15,0280_cop_s01_c15_bicycle_10_n03792782_13002.png
subject-01,1,281,0.908037900924683,clock,clock,c05,0281_cop_s01_c05_clock_10_n03196217_10641.png
subject-01,1,282,0.823670148849487,bicycle,bicycle,c15,0282_cop_s01_c15_bicycle_10_n03792782_20193.png
subject-01,1,283,0.903845071792603,car,truck,c05,0283_cop_s01_c05_truck_10_n03417042_13806.png
subject-01,1,284,0.971755027770996,truck,truck,c05,0284_cop_s01_c05_truck_10_n04467665_70237.png
subject-01,1,285,0.755259990692139,bear,truck,c01,0285_cop_s01_c01_truck_10_n04467665_3720.png
subject-01,1,286,0.678920984268188,bear,bear,c10,0286_cop_s01_c10_bear_10_n02132136_8975.png
subject-01,1,287,1.042809009552,bicycle,knife,c05,0287_cop_s01_c05_knife_10_n03041632_18859.png
subject-01,1,288,1.27077984809875,bear,bear,c50,0288_cop_s01_c50_bear_10_n02132136_29760.png
subject-01,1,289,0.928561925888062,bird,boat,c05,0289_cop_s01_c05_boat_10_n04273569_6586.png
subject-01,1,290,1.20460295677185,oven,bottle,c05,0290_cop_s01_c05_bottle_10_n03983396_11137.png
subject-01,1,291,1.04201793670654,clock,clock,c10,0291_cop_s01_c10_clock_10_n03196217_4232.png
subject-01,1,292,0.839785099029541,boat,clock,c01,0292_cop_s01_c01_clock_10_n04548280_1325.png
subject-01,1,293,0.859812021255493,airplane,airplane,c100,0293_cop_s01_c100_airplane_10_n02690373_2268.png
subject-01,1,294,1.15349984169006,boat,bicycle,c10,0294_cop_s01_c10_bicycle_10_n03792782_14557.png
subject-01,1,295,0.727227926254272,cat,cat,c01,0295_cop_s01_c01_cat_10_n02124075_13792.png
subject-01,1,296,1.50007510185242,cat,dog,c01,0296_cop_s01_c01_dog_10_n02110185_14953.png
subject-01,1,297,0.822988033294678,car,bottle,c15,0297_cop_s01_c15_bottle_10_n04557648_1634.png
subject-01,1,298,1.16082787513733,bicycle,bicycle,c50,0298_cop_s01_c50_bicycle_10_n02835271_1701.png
subject-01,1,299,0.780547857284546,boat,boat,c05,0299_cop_s01_c05_boat_10_n04273569_7312.png
subject-01,1,300,0.846522092819214,bird,bird,c100,0300_cop_s01_c100_bird_10_n01616318_5417.png
subject-01,1,301,0.808238983154297,cat,cat,c15,0301_cop_s01_c15_cat_10_n02123045_12200.png
subject-01,1,302,1.18595600128174,bird,dog,c30,0302_cop_s01_c30_dog_10_n02102480_8264.png
subject-01,1,303,0.850207090377808,bicycle,bicycle,c30,0303_cop_s01_c30_bicycle_10_n03792782_5426.png
subject-01,1,304,1.1819589138031,chair,clock,c05,0304_cop_s01_c05_clock_10_n02708093_8038.png
subject-01,1,305,0.647417068481445,bicycle,bicycle,c30,0305_cop_s01_c30_bicycle_10_n02835271_2764.png
subject-01,1,306,1.03332090377808,knife,knife,c50,0306_cop_s01_c50_knife_10_n03041632_39836.png
subject-01,1,307,0.723227977752686,airplane,bicycle,c01,0307_cop_s01_c01_bicycle_10_n03792782_19040.png
subject-01,1,308,0.790782928466797,oven,cat,c01,0308_cop_s01_c01_cat_10_n02125311_28331.png
subject-01,1,309,1.01674294471741,oven,knife,c01,0309_cop_s01_c01_knife_10_n03041632_18126.png
subject-01,1,310,0.748676061630249,bicycle,bicycle,c30,0310_cop_s01_c30_bicycle_10_n03792782_19253.png
subject-01,1,311,1.37480497360229,boat,bottle,c01,0311_cop_s01_c01_bottle_10_n03983396_751.png
subject-01,1,312,1.01813411712646,car,car,c15,0312_cop_s01_c15_car_10_n04285008_628.png
subject-01,1,313,0.856240034103394,boat,boat,c15,0313_cop_s01_c15_boat_10_n03662601_3011.png
subject-01,1,314,1.40163612365723,bicycle,bottle,c10,0314_cop_s01_c10_bottle_10_n04557648_2904.png
subject-01,1,315,1.26743793487549,knife,bird,c10,0315_cop_s01_c10_bird_10_n02002556_9804.png
subject-01,1,316,0.69146203994751,cat,truck,c05,0316_cop_s01_c05_truck_10_n04467665_8955.png
subject-01,1,317,0.905217885971069,bird,boat,c03,0317_cop_s01_c03_boat_10_n04612504_15061.png
subject-01,1,318,1.29702186584473,truck,bird,c05,0318_cop_s01_c05_bird_10_n02002556_1437.png
subject-01,1,319,0.908850908279419,truck,truck,c50,0319_cop_s01_c50_truck_10_n03417042_10993.png
subject-01,1,320,1.39087581634521,keyboard,chair,c10,0320_cop_s01_c10_chair_10_n02791124_880.png
subject-01,1,321,0.810441017150879,bicycle,bicycle,c50,0321_cop_s01_c50_bicycle_10_n03792782_4826.png
subject-01,1,322,0.811900854110718,boat,chair,c03,0322_cop_s01_c03_chair_10_n04099969_3804.png
subject-01,1,323,0.83004903793335,bottle,bottle,c10,0323_cop_s01_c10_bottle_10_n02823428_2504.png
subject-01,1,324,0.761775016784668,cat,cat,c10,0324_cop_s01_c10_cat_10_n02124075_9716.png
subject-01,1,325,0.74153208732605,oven,knife,c01,0325_cop_s01_c01_knife_10_n03041632_81630.png
subject-01,1,326,0.737340927124023,bottle,bottle,c30,0326_cop_s01_c30_bottle_10_n04591713_457.png
subject-01,1,327,1.20502305030823,boat,elephant,c30,0327_cop_s01_c30_elephant_10_n02504458_5337.png
subject-01,1,328,1.32127594947815,oven,clock,c15,0328_cop_s01_c15_clock_10_n02708093_5429.png
subject-01,1,329,0.870847940444946,keyboard,oven,c100,0329_cop_s01_c100_oven_10_n04111531_9411.png
subject-01,1,330,0.95452880859375,oven,knife,c01,0330_cop_s01_c01_knife_10_n03041632_2338.png
subject-01,1,331,0.734472990036011,cat,cat,c100,0331_cop_s01_c100_cat_10_n02123394_2755.png
subject-01,1,332,0.840636968612671,boat,elephant,c05,0332_cop_s01_c05_elephant_10_n02504458_10243.png
subject-01,1,333,1.32431602478027,bottle,oven,c15,0333_cop_s01_c15_oven_10_n04111531_1752.png
subject-01,1,334,0.889887094497681,bird,bird,c05,0334_cop_s01_c05_bird_10_n02037110_6736.png
subject-01,1,335,0.761526107788086,airplane,airplane,c10,0335_cop_s01_c10_airplane_10_n02690373_8804.png
subject-01,1,336,0.7795569896698,elephant,elephant,c100,0336_cop_s01_c100_elephant_10_n02504458_12217.png
subject-01,1,337,1.13124489784241,chair,knife,c15,0337_cop_s01_c15_knife_10_n03041632_84012.png
subject-01,1,338,1.01742911338806,dog,dog,c50,0338_cop_s01_c50_dog_10_n02093991_6192.png
subject-01,1,339,0.803296804428101,bird,bird,c50,0339_cop_s01_c50_bird_10_n02027492_6499.png
subject-01,1,340,1.23509097099304,boat,knife,c10,0340_cop_s01_c10_knife_10_n03041632_46185.png
subject-01,1,341,0.924861907958984,boat,bear,c30,0341_cop_s01_c30_bear_10_n02134084_14775.png
subject-01,1,342,0.920300006866455,truck,truck,c30,0342_cop_s01_c30_truck_10_n03417042_5346.png
subject-01,1,343,1.12454104423523,dog,dog,c30,0343_cop_s01_c30_dog_10_n02093991_9672.png
subject-01,1,344,0.80588698387146,elephant,elephant,c100,0344_cop_s01_c100_elephant_10_n02504458_2031.png
subject-01,1,345,0.832117080688477,oven,bird,c03,0345_cop_s01_c03_bird_10_n02025239_660.png
subject-01,1,346,0.599579811096191,oven,elephant,c01,0346_cop_s01_c01_elephant_10_n02504458_4244.png
subject-01,1,347,1.50005602836609,elephant,elephant,c30,0347_cop_s01_c30_elephant_10_n02504013_7539.png
subject-01,1,348,0.943054914474487,oven,bird,c03,0348_cop_s01_c03_bird_10_n02002724_5876.png
subject-01,1,349,0.846998929977417,cat,bird,c10,0349_cop_s01_c10_bird_10_n01532829_560.png
subject-01,1,350,0.766897916793823,boat,boat,c30,0350_cop_s01_c30_boat_10_n04273569_1709.png
subject-01,1,351,1.13673400878906,bear,bicycle,c50,0351_cop_s01_c50_bicycle_10_n02835271_7958.png
subject-01,1,352,1.13655495643616,bear,bear,c30,0352_cop_s01_c30_bear_10_n02133161_12157.png
subject-01,1,353,0.778344869613647,cat,chair,c01,0353_cop_s01_c01_chair_10_n04099969_4577.png
subject-01,1,354,0.779994964599609,oven,bicycle,c01,0354_cop_s01_c01_bicycle_10_n02835271_10283.png
subject-01,1,355,1.11805510520935,truck,truck,c100,0355_cop_s01_c100_truck_10_n03417042_23815.png
subject-01,1,356,0.811720848083496,boat,bear,c03,0356_cop_s01_c03_bear_10_n02133161_1059.png
subject-01,1,357,0.695651054382324,clock,chair,c01,0357_cop_s01_c01_chair_10_n02791124_5173.png
subject-01,1,358,0.843444108963013,bottle,bottle,c30,0358_cop_s01_c30_bottle_10_n03983396_5545.png
subject-01,1,359,0.869053840637207,cat,airplane,c01,0359_cop_s01_c01_airplane_10_n02690373_1797.png
subject-01,1,360,1.27090191841125,car,oven,c05,0360_cop_s01_c05_oven_10_n04111531_6628.png
subject-01,1,361,0.748783111572266,elephant,elephant,c10,0361_cop_s01_c10_elephant_10_n02504458_7817.png
subject-01,1,362,1.03867983818054,knife,knife,c50,0362_cop_s01_c50_knife_10_n03041632_4714.png
subject-01,1,363,1.39823818206787,truck,bear,c03,0363_cop_s01_c03_bear_10_n02134084_169.png
subject-01,1,364,0.806257963180542,bird,bird,c15,0364_cop_s01_c15_bird_10_n02013706_8336.png
subject-01,1,365,1.20007109642029,boat,bottle,c15,0365_cop_s01_c15_bottle_10_n04579145_6880.png
subject-01,1,366,1.08590602874756,dog,dog,c05,0366_cop_s01_c05_dog_10_n02105641_416.png
subject-01,1,367,1.21200394630432,boat,airplane,c10,0367_cop_s01_c10_airplane_10_n02690373_6549.png
subject-01,1,368,0.855435848236084,clock,clock,c01,0368_cop_s01_c01_clock_10_n04548280_2374.png
subject-01,1,369,0.669306993484497,bottle,bottle,c30,0369_cop_s01_c30_bottle_10_n03983396_6287.png
subject-01,1,370,1.06295704841614,cat,dog,c01,0370_cop_s01_c01_dog_10_n02090622_1126.png
subject-01,1,371,0.944874048233032,truck,truck,c50,0371_cop_s01_c50_truck_10_n03796401_1681.png
subject-01,1,372,0.830826044082642,elephant,elephant,c30,0372_cop_s01_c30_elephant_10_n02504013_5537.png
subject-01,1,373,1.1646568775177,keyboard,keyboard,c05,0373_cop_s01_c05_keyboard_10_n03085013_12399.png
subject-01,1,374,0.814661979675293,bottle,oven,c15,0374_cop_s01_c15_oven_10_n04111531_6094.png
subject-01,1,375,0.800118923187256,oven,airplane,c03,0375_cop_s01_c03_airplane_10_n02690373_13604.png
subject-01,1,376,0.700196981430054,bear,bear,c100,0376_cop_s01_c100_bear_10_n02134084_16084.png
subject-01,1,377,1.02165985107422,bear,boat,c01,0377_cop_s01_c01_boat_10_n04273569_15906.png
subject-01,1,378,0.829556941986084,clock,dog,c05,0378_cop_s01_c05_dog_10_n02105162_8899.png
subject-01,1,379,0.667480945587158,boat,oven,c03,0379_cop_s01_c03_oven_10_n04111531_7619.png
subject-01,1,380,1.16115999221802,dog,elephant,c05,0380_cop_s01_c05_elephant_10_n02504458_1816.png
subject-01,1,381,0.917017936706543,cat,cat,c30,0381_cop_s01_c30_cat_10_n02123045_3575.png
subject-01,1,382,0.747041940689087,cat,truck,c01,0382_cop_s01_c01_truck_10_n03417042_908.png
subject-01,1,383,0.794644832611084,bird,boat,c03,0383_cop_s01_c03_boat_10_n03344393_4213.png
subject-01,1,384,0.914463996887207,cat,knife,c01,0384_cop_s01_c01_knife_10_n03041632_31483.png
subject-01,1,385,0.824429988861084,oven,bottle,c01,0385_cop_s01_c01_bottle_10_n03937543_986.png
subject-01,1,386,1.02623391151428,truck,truck,c15,0386_cop_s01_c15_truck_10_n03796401_7381.png
subject-01,1,387,0.941701889038086,boat,dog,c03,0387_cop_s01_c03_dog_10_n02094433_9787.png
subject-01,1,388,1.10162401199341,knife,bird,c30,0388_cop_s01_c30_bird_10_n02011460_11838.png
subject-01,1,389,1.14190697669983,cat,cat,c30,0389_cop_s01_c30_cat_10_n02123597_29513.png
subject-01,1,390,1.37138485908508,chair,chair,c10,0390_cop_s01_c10_chair_10_n04429376_5337.png
subject-01,1,391,0.895482063293457,chair,knife,c03,0391_cop_s01_c03_knife_10_n03041632_4260.png
subject-01,1,392,0.777472972869873,keyboard,keyboard,c10,0392_cop_s01_c10_keyboard_10_n04505470_4061.png
subject-01,1,393,0.926701068878174,airplane,boat,c15,0393_cop_s01_c15_boat_10_n03344393_6467.png
subject-01,1,394,0.992541074752808,bicycle,bicycle,c100,0394_cop_s01_c100_bicycle_10_n03792782_11297.png
subject-01,1,395,0.868301868438721,oven,bicycle,c03,0395_cop_s01_c03_bicycle_10_n03792782_8357.png
subject-01,1,396,0.910220146179199,cat,dog,c10,0396_cop_s01_c10_dog_10_n02108422_2739.png
subject-01,1,397,0.890369176864624,cat,bear,c03,0397_cop_s01_c03_bear_10_n02134084_6840.png
subject-01,1,398,1.10177707672119,dog,bear,c30,0398_cop_s01_c30_bear_10_n02133161_5365.png
subject-01,1,399,1.08779907226562,bottle,bottle,c30,0399_cop_s01_c30_bottle_10_n04560804_1010.png
subject-01,1,400,1.11779403686523,bottle,clock,c10,0400_cop_s01_c10_clock_10_n04548280_183.png
subject-01,1,401,0.991765975952148,keyboard,keyboard,c100,0401_cop_s01_c100_keyboard_10_n03085013_21534.png
subject-01,1,402,0.80994701385498,keyboard,keyboard,c50,0402_cop_s01_c50_keyboard_10_n03085013_24111.png
subject-01,1,403,0.951395034790039,knife,knife,c15,0403_cop_s01_c15_knife_10_n03041632_28009.png
subject-01,1,404,0.78178882598877,cat,cat,c50,0404_cop_s01_c50_cat_10_n02123159_7647.png
subject-01,1,405,0.767096996307373,cat,bottle,c01,0405_cop_s01_c01_bottle_10_n02823428_8696.png
subject-01,1,406,1.10496997833252,elephant,elephant,c15,0406_cop_s01_c15_elephant_10_n02504458_8923.png
subject-01,1,407,0.738805055618286,oven,bear,c01,0407_cop_s01_c01_bear_10_n02134084_5031.png
subject-01,1,408,1.09063601493835,dog,dog,c50,0408_cop_s01_c50_dog_10_n02097209_1658.png
subject-01,1,409,0.834542989730835,cat,dog,c05,0409_cop_s01_c05_dog_10_n02099849_6384.png
subject-01,1,410,1.04645013809204,bear,elephant,c15,0410_cop_s01_c15_elephant_10_n02504013_3459.png
subject-01,1,411,0.823884010314941,boat,knife,c03,0411_cop_s01_c03_knife_10_n03041632_36390.png
subject-01,1,412,1.31184101104736,knife,knife,c100,0412_cop_s01_c100_knife_10_n03041632_10263.png
subject-01,1,413,1.09748911857605,knife,cat,c03,0413_cop_s01_c03_cat_10_n02123045_840.png
subject-01,1,414,0.911383867263794,airplane,clock,c05,0414_cop_s01_c05_clock_10_n04548280_4758.png
subject-01,1,415,0.913398027420044,cat,bear,c50,0415_cop_s01_c50_bear_10_n02133161_1247.png
subject-01,1,416,0.958965063095093,boat,airplane,c10,0416_cop_s01_c10_airplane_10_n02690373_6716.png
subject-01,1,417,0.818765878677368,keyboard,keyboard,c30,0417_cop_s01_c30_keyboard_10_n04505470_4893.png
subject-01,1,418,0.948510885238647,bicycle,chair,c30,0418_cop_s01_c30_chair_10_n04099969_34525.png
subject-01,1,419,0.890323877334595,chair,airplane,c01,0419_cop_s01_c01_airplane_10_n02690373_4793.png
subject-01,1,420,1.1282639503479,bottle,knife,c15,0420_cop_s01_c15_knife_10_n03041632_4787.png
subject-01,1,421,0.864076852798462,boat,boat,c05,0421_cop_s01_c05_boat_10_n04273569_20587.png
subject-01,1,422,0.983865022659302,cat,bicycle,c03,0422_cop_s01_c03_bicycle_10_n03792782_4844.png
subject-01,1,423,1.03968119621277,oven,cat,c01,0423_cop_s01_c01_cat_10_n02123045_6066.png
subject-01,1,424,0.795389175415039,boat,boat,c30,0424_cop_s01_c30_boat_10_n04273569_17045.png
subject-01,1,425,0.913249015808105,keyboard,keyboard,c100,0425_cop_s01_c100_keyboard_10_n04505470_5068.png
subject-01,1,426,0.987103223800659,airplane,airplane,c10,0426_cop_s01_c10_airplane_10_n02690373_2724.png
subject-01,1,427,0.653036832809448,boat,boat,c10,0427_cop_s01_c10_boat_10_n03662601_4844.png
subject-01,1,428,0.638840913772583,chair,chair,c100,0428_cop_s01_c100_chair_10_n04099969_3929.png
subject-01,1,429,0.944422006607056,truck,oven,c10,0429_cop_s01_c10_oven_10_n04111531_9026.png
subject-01,1,430,1.04884886741638,knife,knife,c15,0430_cop_s01_c15_knife_10_n03041632_51225.png
subject-01,1,431,1.14416098594666,boat,boat,c10,0431_cop_s01_c10_boat_10_n03344393_6638.png
subject-01,1,432,1.09798407554626,knife,knife,c30,0432_cop_s01_c30_knife_10_n03041632_4590.png
subject-01,1,433,1.13987994194031,clock,clock,c03,0433_cop_s01_c03_clock_10_n02708093_3761.png
subject-01,1,434,0.897698879241943,bicycle,car,c03,0434_cop_s01_c03_car_10_n04285008_3193.png
subject-01,1,435,0.821394920349121,keyboard,keyboard,c50,0435_cop_s01_c50_keyboard_10_n03085013_661.png
subject-01,1,436,0.901433944702148,oven,bottle,c03,0436_cop_s01_c03_bottle_10_n04557648_2355.png
subject-01,1,437,0.878973960876465,dog,dog,c30,0437_cop_s01_c30_dog_10_n02107312_860.png
subject-01,1,438,0.713145017623901,boat,boat,c100,0438_cop_s01_c100_boat_10_n02951358_1541.png
subject-01,1,439,0.754576206207275,boat,boat,c15,0439_cop_s01_c15_boat_10_n02951358_4972.png
subject-01,1,440,0.798594951629639,bear,bear,c15,0440_cop_s01_c15_bear_10_n02132136_6352.png
subject-01,1,441,1.00232696533203,bear,knife,c05,0441_cop_s01_c05_knife_10_n03041632_27022.png
subject-01,1,442,0.738266944885254,airplane,airplane,c15,0442_cop_s01_c15_airplane_10_n02690373_10399.png
subject-01,1,443,0.911864995956421,clock,keyboard,c30,0443_cop_s01_c30_keyboard_10_n04505470_4803.png
subject-01,1,444,0.749774932861328,oven,bottle,c03,0444_cop_s01_c03_bottle_10_n03937543_4916.png
subject-01,1,445,0.845631122589111,dog,dog,c10,0445_cop_s01_c10_dog_10_n02092339_2268.png
subject-01,1,446,1.23730611801147,cat,cat,c100,0446_cop_s01_c100_cat_10_n02123394_2034.png
subject-01,1,447,0.637267112731934,boat,keyboard,c01,0447_cop_s01_c01_keyboard_10_n03085013_24442.png
subject-01,1,448,0.754974842071533,cat,bicycle,c03,0448_cop_s01_c03_bicycle_10_n03792782_12908.png
subject-01,1,449,0.768684864044189,cat,cat,c50,0449_cop_s01_c50_cat_10_n02124075_10241.png
subject-01,1,450,1.34071207046509,keyboard,keyboard,c03,0450_cop_s01_c03_keyboard_10_n03085013_29941.png
subject-01,1,451,0.780768871307373,oven,car,c05,0451_cop_s01_c05_car_10_n03100240_5718.png
subject-01,1,452,0.720227956771851,oven,bear,c01,0452_cop_s01_c01_bear_10_n02133161_789.png
subject-01,1,453,0.870044946670532,chair,chair,c30,0453_cop_s01_c30_chair_10_n04099969_9891.png
subject-01,1,454,0.949969053268433,chair,knife,c01,0454_cop_s01_c01_knife_10_n03041632_8666.png
subject-01,1,455,1.04607582092285,car,car,c10,0455_cop_s01_c10_car_10_n03100240_52.png
subject-01,1,456,0.875572204589844,cat,bird,c10,0456_cop_s01_c10_bird_10_n02007558_45529.png
subject-01,1,457,1.0973219871521,airplane,airplane,c15,0457_cop_s01_c15_airplane_10_n02690373_1933.png
subject-01,1,458,1.06553196907043,clock,elephant,c03,0458_cop_s01_c03_elephant_10_n02504013_1879.png
subject-01,1,459,1.1030158996582,car,car,c10,0459_cop_s01_c10_car_10_n03100240_3373.png
subject-01,1,460,1.04865193367004,bicycle,bicycle,c15,0460_cop_s01_c15_bicycle_10_n03792782_7331.png
subject-01,1,461,0.738781929016113,chair,chair,c100,0461_cop_s01_c100_chair_10_n03376595_11049.png
subject-01,1,462,0.842838048934937,oven,knife,c50,0462_cop_s01_c50_knife_10_n03041632_37274.png
subject-01,1,463,0.868122100830078,bottle,bottle,c15,0463_cop_s01_c15_bottle_10_n02823428_780.png
subject-01,1,464,0.782377958297729,cat,cat,c05,0464_cop_s01_c05_cat_10_n02123045_390.png
subject-01,1,465,0.869681835174561,bird,bird,c30,0465_cop_s01_c30_bird_10_n01796340_10024.png
subject-01,1,466,1.15413594245911,car,knife,c05,0466_cop_s01_c05_knife_10_n03041632_13509.png
subject-01,1,467,0.763468980789185,boat,bird,c05,0467_cop_s01_c05_bird_10_n01534433_14198.png
subject-01,1,468,0.957119941711426,chair,chair,c100,0468_cop_s01_c100_chair_10_n04099969_2502.png
subject-01,1,469,0.771046876907349,oven,cat,c05,0469_cop_s01_c05_cat_10_n02123045_15474.png
subject-01,1,470,0.993030071258545,cat,clock,c30,0470_cop_s01_c30_clock_10_n02708093_442.png
subject-01,1,471,1.06473898887634,boat,boat,c100,0471_cop_s01_c100_boat_10_n02951358_12663.png
subject-01,1,472,0.570647001266479,oven,cat,c05,0472_cop_s01_c05_cat_10_n02125311_37322.png
subject-01,1,473,1.25228595733643,oven,bird,c100,0473_cop_s01_c100_bird_10_n01558993_5185.png
subject-01,1,474,0.846520900726318,elephant,elephant,c100,0474_cop_s01_c100_elephant_10_n02504013_7248.png
subject-01,1,475,0.846040010452271,oven,bottle,c01,0475_cop_s01_c01_bottle_10_n02823428_4245.png
subject-01,1,476,0.817722082138062,chair,chair,c10,0476_cop_s01_c10_chair_10_n04099969_8993.png
subject-01,1,477,0.995477914810181,dog,dog,c30,0477_cop_s01_c30_dog_10_n02101388_8775.png
subject-01,1,478,0.903401136398315,cat,car,c01,0478_cop_s01_c01_car_10_n02814533_3590.png
subject-01,1,479,0.677026033401489,oven,elephant,c05,0479_cop_s01_c05_elephant_10_n02504458_6018.png
subject-01,1,480,0.768929004669189,keyboard,keyboard,c100,0480_cop_s01_c100_keyboard_10_n03085013_11332.png
subject-01,1,481,0.947288036346436,cat,oven,c05,0481_cop_s01_c05_oven_10_n04111531_6863.png
subject-01,1,482,0.669091939926147,airplane,airplane,c50,0482_cop_s01_c50_airplane_10_n02690373_2675.png
subject-01,1,483,0.744909048080444,oven,dog,c01,0483_cop_s01_c01_dog_10_n02106550_660.png
subject-01,1,484,0.89868688583374,knife,knife,c15,0484_cop_s01_c15_knife_10_n03041632_11700.png
subject-01,1,485,0.824603080749512,bird,bird,c15,0485_cop_s01_c15_bird_10_n02009229_6149.png
subject-01,1,486,0.786473989486694,keyboard,clock,c30,0486_cop_s01_c30_clock_10_n03196217_3780.png
subject-01,1,487,0.854290008544922,bird,bird,c100,0487_cop_s01_c100_bird_10_n01530575_34173.png
subject-01,1,488,0.842176914215088,bottle,bottle,c100,0488_cop_s01_c100_bottle_10_n03983396_17803.png
subject-01,1,489,0.802011013031006,cat,oven,c05,0489_cop_s01_c05_oven_10_n04111531_2156.png
subject-01,1,490,0.95774507522583,elephant,elephant,c10,0490_cop_s01_c10_elephant_10_n02504013_14948.png
subject-01,1,491,0.721370935440063,oven,boat,c01,0491_cop_s01_c01_boat_10_n04273569_3112.png
subject-01,1,492,0.841218233108521,bird,bird,c50,0492_cop_s01_c50_bird_10_n01560419_6583.png
subject-01,1,493,0.773157119750977,keyboard,keyboard,c50,0493_cop_s01_c50_keyboard_10_n03085013_19161.png
subject-01,1,494,0.678969144821167,oven,bird,c05,0494_cop_s01_c05_bird_10_n01616318_57023.png
subject-01,1,495,NaN,na,truck,c50,0495_cop_s01_c50_truck_10_n04467665_69176.png
subject-01,1,496,0.952622890472412,car,car,c50,0496_cop_s01_c50_car_10_n03100240_4971.png
subject-01,1,497,0.768296003341675,oven,oven,c01,0497_cop_s01_c01_oven_10_n04111531_4901.png
subject-01,1,498,0.77853798866272,bear,bear,c30,0498_cop_s01_c30_bear_10_n02133161_4091.png
subject-01,1,499,0.85791802406311,boat,cat,c03,0499_cop_s01_c03_cat_10_n02123394_4164.png
subject-01,1,500,0.718021154403687,boat,bird,c03,0500_cop_s01_c03_bird_10_n02017213_689.png
subject-01,1,501,0.929692983627319,dog,dog,c100,0501_cop_s01_c100_dog_10_n02109047_14207.png
subject-01,1,502,0.837311983108521,cat,elephant,c05,0502_cop_s01_c05_elephant_10_n02504013_8347.png
subject-01,1,503,0.809136867523193,bottle,bottle,c30,0503_cop_s01_c30_bottle_10_n04591713_1652.png
subject-01,1,504,0.743286848068237,oven,oven,c15,0504_cop_s01_c15_oven_10_n04111531_22403.png
subject-01,1,505,0.900994062423706,airplane,airplane,c100,0505_cop_s01_c100_airplane_10_n02690373_6046.png
subject-01,1,506,0.784656047821045,bear,bear,c15,0506_cop_s01_c15_bear_10_n02134084_1689.png
subject-01,1,507,1.27849411964417,bottle,oven,c30,0507_cop_s01_c30_oven_10_n04111531_14269.png
subject-01,1,508,1.14828181266785,dog,cat,c100,0508_cop_s01_c100_cat_10_n02123597_9444.png
subject-01,1,509,0.836039066314697,bear,bear,c10,0509_cop_s01_c10_bear_10_n02134418_128.png
subject-01,1,510,0.75426197052002,airplane,airplane,c30,0510_cop_s01_c30_airplane_10_n02690373_8789.png
subject-01,1,511,0.821830987930298,oven,bottle,c01,0511_cop_s01_c01_bottle_10_n03937543_10092.png
subject-01,1,512,0.767445087432861,oven,clock,c03,0512_cop_s01_c03_clock_10_n02708093_7257.png
subject-01,1,513,0.677340984344482,bear,bear,c100,0513_cop_s01_c100_bear_10_n02134084_21207.png
subject-01,1,514,0.82550311088562,boat,bird,c05,0514_cop_s01_c05_bird_10_n01797886_12811.png
subject-01,1,515,0.831279039382935,boat,oven,c01,0515_cop_s01_c01_oven_10_n04111531_21248.png
subject-01,1,516,1.32309603691101,dog,dog,c15,0516_cop_s01_c15_dog_10_n02090379_5574.png
subject-01,1,517,1.16053700447083,car,car,c15,0517_cop_s01_c15_car_10_n04285008_8443.png
subject-01,1,518,1.02241611480713,car,car,c100,0518_cop_s01_c100_car_10_n03100240_15647.png
subject-01,1,519,1.10625100135803,car,chair,c50,0519_cop_s01_c50_chair_10_n02791124_5824.png
subject-01,1,520,0.956130027770996,car,bear,c05,0520_cop_s01_c05_bear_10_n02133161_9949.png
subject-01,1,521,0.839886903762817,oven,elephant,c03,0521_cop_s01_c03_elephant_10_n02504458_5320.png
subject-01,1,522,1.037602186203,oven,keyboard,c01,0522_cop_s01_c01_keyboard_10_n04505470_1904.png
subject-01,1,523,0.827410936355591,oven,oven,c100,0523_cop_s01_c100_oven_10_n04111531_4685.png
subject-01,1,524,0.859566926956177,cat,truck,c05,0524_cop_s01_c05_truck_10_n03417042_2230.png
subject-01,1,525,0.705161094665527,oven,bottle,c15,0525_cop_s01_c15_bottle_10_n04591713_6842.png
subject-01,1,526,0.648859977722168,boat,boat,c50,0526_cop_s01_c50_boat_10_n02951358_8285.png
subject-01,1,527,0.80892014503479,clock,knife,c01,0527_cop_s01_c01_knife_10_n03041632_48675.png
subject-01,1,528,0.638335943222046,clock,oven,c01,0528_cop_s01_c01_oven_10_n04111531_14435.png
subject-01,1,529,0.682315111160278,cat,cat,c50,0529_cop_s01_c50_cat_10_n02123159_8273.png
subject-01,1,530,1.15221691131592,bird,bird,c50,0530_cop_s01_c50_bird_10_n01614925_1908.png
subject-01,1,531,1.10206294059753,oven,knife,c05,0531_cop_s01_c05_knife_10_n03041632_96345.png
subject-01,1,532,1.25982308387756,bird,knife,c10,0532_cop_s01_c10_knife_10_n03041632_31037.png
subject-01,1,533,0.737560033798218,airplane,airplane,c50,0533_cop_s01_c50_airplane_10_n02690373_1436.png
subject-01,1,534,0.797631978988647,chair,chair,c100,0534_cop_s01_c100_chair_10_n04099969_28072.png
subject-01,1,535,0.751069068908691,oven,boat,c01,0535_cop_s01_c01_boat_10_n04612504_19983.png
subject-01,1,536,0.777050971984863,boat,oven,c15,0536_cop_s01_c15_oven_10_n04111531_8255.png
subject-01,1,537,1.08084392547607,elephant,bear,c15,0537_cop_s01_c15_bear_10_n02132136_1574.png
subject-01,1,538,0.622703075408936,boat,boat,c100,0538_cop_s01_c100_boat_10_n04273569_24747.png
subject-01,1,539,1.04453206062317,dog,dog,c30,0539_cop_s01_c30_dog_10_n02113799_18413.png
subject-01,1,540,1.13445591926575,boat,boat,c15,0540_cop_s01_c15_boat_10_n04273569_28333.png
subject-01,1,541,0.774094104766846,oven,bird,c01,0541_cop_s01_c01_bird_10_n02017213_2183.png
subject-01,1,542,0.63778018951416,boat,boat,c50,0542_cop_s01_c50_boat_10_n04273569_26139.png
subject-01,1,543,0.813635110855103,cat,knife,c03,0543_cop_s01_c03_knife_10_n03041632_29684.png
subject-01,1,544,1.50003790855408,clock,boat,c100,0544_cop_s01_c100_boat_10_n02951358_3087.png
subject-01,1,545,0.785307168960571,oven,keyboard,c15,0545_cop_s01_c15_keyboard_10_n03085013_13615.png
subject-01,1,546,0.763069868087769,cat,oven,c03,0546_cop_s01_c03_oven_10_n04111531_1778.png
subject-01,1,547,0.771069049835205,cat,dog,c03,0547_cop_s01_c03_dog_10_n02097474_9129.png
subject-01,1,548,0.886812925338745,bird,bird,c30,0548_cop_s01_c30_bird_10_n02013706_19220.png
subject-01,1,549,0.608765840530396,clock,clock,c100,0549_cop_s01_c100_clock_10_n03196217_7199.png
subject-01,1,550,1.36044096946716,bear,bear,c50,0550_cop_s01_c50_bear_10_n02132136_27823.png
subject-01,1,551,0.666185140609741,cat,boat,c03,0551_cop_s01_c03_boat_10_n03662601_6462.png
subject-01,1,552,1.05413293838501,bottle,knife,c15,0552_cop_s01_c15_knife_10_n03041632_11773.png
subject-01,1,553,0.675993919372559,oven,clock,c01,0553_cop_s01_c01_clock_10_n02708093_7998.png
subject-01,1,554,0.81373119354248,elephant,elephant,c30,0554_cop_s01_c30_elephant_10_n02504458_3409.png
subject-01,1,555,0.713334083557129,oven,bottle,c01,0555_cop_s01_c01_bottle_10_n04560804_24166.png
subject-01,1,556,0.849331140518188,bird,cat,c15,0556_cop_s01_c15_cat_10_n02125311_17613.png
subject-01,1,557,1.04516291618347,bird,bicycle,c05,0557_cop_s01_c05_bicycle_10_n03792782_5284.png
subject-01,1,558,0.804800987243652,oven,oven,c10,0558_cop_s01_c10_oven_10_n04111531_13006.png
subject-01,1,559,0.746675968170166,oven,oven,c10,0559_cop_s01_c10_oven_10_n04111531_8309.png
subject-01,1,560,0.810555219650269,cat,clock,c10,0560_cop_s01_c10_clock_10_n04548280_8390.png
subject-01,1,561,0.84342098236084,truck,truck,c50,0561_cop_s01_c50_truck_10_n04467665_7110.png
subject-01,1,562,0.899205923080444,clock,clock,c10,0562_cop_s01_c10_clock_10_n03196217_8020.png
subject-01,1,563,0.823407888412476,elephant,elephant,c100,0563_cop_s01_c100_elephant_10_n02504458_7955.png
subject-01,1,564,0.852980852127075,oven,elephant,c01,0564_cop_s01_c01_elephant_10_n02504458_1022.png
subject-01,1,565,0.840769052505493,clock,clock,c100,0565_cop_s01_c100_clock_10_n04548280_2383.png
subject-01,1,566,0.750464916229248,bird,bird,c50,0566_cop_s01_c50_bird_10_n02002724_7019.png
subject-01,1,567,0.920280933380127,cat,cat,c100,0567_cop_s01_c100_cat_10_n02125311_1127.png
subject-01,1,568,0.718109130859375,oven,bicycle,c05,0568_cop_s01_c05_bicycle_10_n02835271_6481.png
subject-01,1,569,0.728000164031982,car,car,c15,0569_cop_s01_c15_car_10_n04285008_5208.png
subject-01,1,570,0.721996068954468,oven,oven,c50,0570_cop_s01_c50_oven_10_n04111531_8658.png
subject-01,1,571,1.19147896766663,bird,bottle,c05,0571_cop_s01_c05_bottle_10_n04579145_2910.png
subject-01,1,572,0.753370046615601,boat,truck,c01,0572_cop_s01_c01_truck_10_n04467665_22414.png
subject-01,1,573,0.881377935409546,elephant,elephant,c15,0573_cop_s01_c15_elephant_10_n02504013_5439.png
subject-01,1,574,0.724950075149536,cat,cat,c10,0574_cop_s01_c10_cat_10_n02123159_5945.png
subject-01,1,575,1.05871200561523,keyboard,bottle,c10,0575_cop_s01_c10_bottle_10_n04557648_2426.png
subject-01,1,576,0.88452410697937,bicycle,bicycle,c05,0576_cop_s01_c05_bicycle_10_n03792782_38641.png
subject-01,1,577,1.07050919532776,dog,dog,c30,0577_cop_s01_c30_dog_10_n02110958_15843.png
subject-01,1,578,0.792290925979614,keyboard,keyboard,c15,0578_cop_s01_c15_keyboard_10_n04505470_5161.png
subject-01,1,579,1.34605598449707,airplane,airplane,c30,0579_cop_s01_c30_airplane_10_n02690373_8350.png
subject-01,1,580,0.801883935928345,clock,bicycle,c05,0580_cop_s01_c05_bicycle_10_n03792782_10129.png
subject-01,1,581,1.34186792373657,car,car,c100,0581_cop_s01_c100_car_10_n02814533_26369.png
subject-01,1,582,0.749708890914917,oven,oven,c10,0582_cop_s01_c10_oven_10_n04111531_10077.png
subject-01,1,583,0.733257055282593,cat,oven,c01,0583_cop_s01_c01_oven_10_n04111531_12702.png
subject-01,1,584,0.64113712310791,clock,clock,c100,0584_cop_s01_c100_clock_10_n03196217_8618.png
subject-01,1,585,1.16692805290222,bird,bottle,c10,0585_cop_s01_c10_bottle_10_n03983396_4227.png
subject-01,1,586,0.79900598526001,bottle,bottle,c30,0586_cop_s01_c30_bottle_10_n03983396_9090.png
subject-01,1,587,0.768660068511963,bear,bear,c100,0587_cop_s01_c100_bear_10_n02133161_223.png
subject-01,1,588,0.848424911499023,keyboard,keyboard,c50,0588_cop_s01_c50_keyboard_10_n04505470_1047.png
subject-01,1,589,0.842614889144897,oven,elephant,c03,0589_cop_s01_c03_elephant_10_n02504013_7467.png
subject-01,1,590,1.0000741481781,bear,elephant,c30,0590_cop_s01_c30_elephant_10_n02504013_476.png
subject-01,1,591,1.46192002296448,keyboard,chair,c100,0591_cop_s01_c100_chair_10_n02791124_12707.png
subject-01,1,592,0.831686019897461,oven,bird,c01,0592_cop_s01_c01_bird_10_n01537544_22049.png
subject-01,1,593,1.15158081054688,bicycle,bicycle,c05,0593_cop_s01_c05_bicycle_10_n02835271_4220.png
subject-01,1,594,1.11334085464478,truck,truck,c10,0594_cop_s01_c10_truck_10_n03417042_7530.png
subject-01,1,595,0.749178171157837,boat,bear,c03,0595_cop_s01_c03_bear_10_n02134418_12457.png
subject-01,1,596,0.793034076690674,bottle,bottle,c50,0596_cop_s01_c50_bottle_10_n04557648_10265.png
subject-01,1,597,0.912698984146118,clock,clock,c15,0597_cop_s01_c15_clock_10_n02708093_2025.png
subject-01,1,598,0.764558076858521,chair,chair,c15,0598_cop_s01_c15_chair_10_n03376595_1961.png
subject-01,1,599,1.1223509311676,dog,bear,c05,0599_cop_s01_c05_bear_10_n02134084_67.png
subject-01,1,600,0.814179182052612,cat,cat,c50,0600_cop_s01_c50_cat_10_n02123045_455.png
subject-01,1,601,1.16412019729614,car,car,c10,0601_cop_s01_c10_car_10_n03100240_13929.png
subject-01,1,602,1.09380698204041,elephant,elephant,c10,0602_cop_s01_c10_elephant_10_n02504458_4997.png
subject-01,1,603,0.859626054763794,bicycle,airplane,c10,0603_cop_s01_c10_airplane_10_n02690373_5344.png
subject-01,1,604,0.8558349609375,clock,oven,c01,0604_cop_s01_c01_oven_10_n04111531_797.png
subject-01,1,605,0.843584060668945,boat,boat,c30,0605_cop_s01_c30_boat_10_n04273569_3085.png
subject-01,1,606,0.726953029632568,oven,oven,c100,0606_cop_s01_c100_oven_10_n04111531_9113.png
subject-01,1,607,0.760796785354614,oven,boat,c03,0607_cop_s01_c03_boat_10_n03662601_18803.png
subject-01,1,608,0.612596035003662,clock,truck,c03,0608_cop_s01_c03_truck_10_n04467665_30581.png
subject-01,1,609,0.794711112976074,elephant,elephant,c30,0609_cop_s01_c30_elephant_10_n02504013_5237.png
subject-01,1,610,0.818312883377075,keyboard,keyboard,c100,0610_cop_s01_c100_keyboard_10_n03085013_12175.png
subject-01,1,611,0.930116891860962,chair,chair,c30,0611_cop_s01_c30_chair_10_n02791124_5401.png
subject-01,1,612,0.795823812484741,boat,boat,c50,0612_cop_s01_c50_boat_10_n02951358_22332.png
subject-01,1,613,0.719758987426758,oven,knife,c03,0613_cop_s01_c03_knife_10_n03041632_11932.png
subject-01,1,614,1.18974089622498,bear,cat,c30,0614_cop_s01_c30_cat_10_n02123159_5257.png
subject-01,1,615,1.15389394760132,bottle,bottle,c50,0615_cop_s01_c50_bottle_10_n03983396_105.png
subject-01,1,616,0.943114995956421,boat,boat,c50,0616_cop_s01_c50_boat_10_n04612504_11939.png
subject-01,1,617,0.996920108795166,boat,boat,c30,0617_cop_s01_c30_boat_10_n03662601_5575.png
subject-01,1,618,0.818992853164673,clock,cat,c05,0618_cop_s01_c05_cat_10_n02123159_6590.png
subject-01,1,619,0.766791105270386,bear,bear,c50,0619_cop_s01_c50_bear_10_n02134084_21462.png
subject-01,1,620,1.03257393836975,bear,cat,c05,0620_cop_s01_c05_cat_10_n02125311_46330.png
subject-01,1,621,0.81427001953125,boat,cat,c01,0621_cop_s01_c01_cat_10_n02123394_4714.png
subject-01,1,622,1.06642198562622,clock,knife,c30,0622_cop_s01_c30_knife_10_n03041632_1671.png
subject-01,1,623,1.12213802337646,truck,truck,c50,0623_cop_s01_c50_truck_10_n04467665_30901.png
subject-01,1,624,0.959733009338379,dog,dog,c100,0624_cop_s01_c100_dog_10_n02104029_4704.png
subject-01,1,625,1.22144794464111,keyboard,keyboard,c15,0625_cop_s01_c15_keyboard_10_n03085013_3665.png
subject-01,1,626,0.775269985198975,clock,bird,c01,0626_cop_s01_c01_bird_10_n01820546_1616.png
subject-01,1,627,0.75321888923645,keyboard,keyboard,c30,0627_cop_s01_c30_keyboard_10_n04505470_8754.png
subject-01,1,628,0.872844934463501,truck,oven,c05,0628_cop_s01_c05_oven_10_n04111531_8688.png
subject-01,1,629,0.928884983062744,oven,oven,c10,0629_cop_s01_c10_oven_10_n04111531_13862.png
subject-01,1,630,0.845021963119507,oven,truck,c03,0630_cop_s01_c03_truck_10_n04467665_9266.png
subject-01,1,631,0.766429901123047,chair,chair,c30,0631_cop_s01_c30_chair_10_n03376595_1024.png
subject-01,1,632,0.776116847991943,bottle,bottle,c30,0632_cop_s01_c30_bottle_10_n02823428_4468.png
subject-01,1,633,0.87808084487915,truck,truck,c15,0633_cop_s01_c15_truck_10_n03796401_4154.png
subject-01,1,634,0.879866123199463,dog,dog,c50,0634_cop_s01_c50_dog_10_n02087046_4421.png
subject-01,1,635,0.829497814178467,car,car,c05,0635_cop_s01_c05_car_10_n03100240_9011.png
subject-01,1,636,0.897475957870483,bear,bird,c15,0636_cop_s01_c15_bird_10_n02011460_2417.png
subject-01,1,637,0.835264921188354,bottle,bottle,c100,0637_cop_s01_c100_bottle_10_n04557648_988.png
subject-01,1,638,0.901440858840942,cat,cat,c05,0638_cop_s01_c05_cat_10_n02123159_5205.png
subject-01,1,639,0.698957920074463,oven,oven,c15,0639_cop_s01_c15_oven_10_n04111531_23215.png
subject-01,1,640,0.89708399772644,truck,truck,c05,0640_cop_s01_c05_truck_10_n03796401_20641.png
subject-01,1,641,0.783419132232666,car,boat,c15,0641_cop_s01_c15_boat_10_n03662601_16412.png
subject-01,1,642,0.88515305519104,airplane,airplane,c15,0642_cop_s01_c15_airplane_10_n02690373_1952.png
subject-01,1,643,0.895004987716675,bird,dog,c05,0643_cop_s01_c05_dog_10_n02086079_37199.png
subject-01,1,644,0.646878004074097,airplane,airplane,c10,0644_cop_s01_c10_airplane_10_n02690373_4375.png
subject-01,1,645,0.72650408744812,bird,bird,c15,0645_cop_s01_c15_bird_10_n01592084_4764.png
subject-01,1,646,0.742691040039062,knife,knife,c30,0646_cop_s01_c30_knife_10_n03041632_44269.png
subject-01,1,647,1.42410397529602,elephant,elephant,c30,0647_cop_s01_c30_elephant_10_n02504013_1258.png
subject-01,1,648,0.689938068389893,airplane,airplane,c30,0648_cop_s01_c30_airplane_10_n02690373_6138.png
subject-01,1,649,0.723948955535889,oven,chair,c03,0649_cop_s01_c03_chair_10_n04099969_9713.png
subject-01,1,650,0.681702852249146,oven,bicycle,c01,0650_cop_s01_c01_bicycle_10_n02835271_8212.png
subject-01,1,651,0.761439085006714,keyboard,keyboard,c50,0651_cop_s01_c50_keyboard_10_n03085013_14279.png
subject-01,1,652,0.739547967910767,oven,bottle,c01,0652_cop_s01_c01_bottle_10_n04591713_5364.png
subject-01,1,653,1.13103890419006,bird,bird,c15,0653_cop_s01_c15_bird_10_n01819313_4045.png
subject-01,1,654,1.00095891952515,bird,bird,c10,0654_cop_s01_c10_bird_10_n02009229_263.png
subject-01,1,655,1.11068797111511,dog,cat,c30,0655_cop_s01_c30_cat_10_n02123394_2285.png
subject-01,1,656,0.742526054382324,cat,clock,c05,0656_cop_s01_c05_clock_10_n04548280_2559.png
subject-01,1,657,0.688432931900024,cat,elephant,c01,0657_cop_s01_c01_elephant_10_n02504458_4137.png
subject-01,1,658,0.594117879867554,cat,knife,c01,0658_cop_s01_c01_knife_10_n03041632_206.png
subject-01,1,659,1.23621797561646,truck,truck,c10,0659_cop_s01_c10_truck_10_n03417042_5604.png
subject-01,1,660,0.871817111968994,bottle,bottle,c15,0660_cop_s01_c15_bottle_10_n03983396_1629.png
subject-01,1,661,1.33358192443848,chair,keyboard,c10,0661_cop_s01_c10_keyboard_10_n03085013_16359.png
subject-01,1,662,1.09930896759033,oven,oven,c15,0662_cop_s01_c15_oven_10_n04111531_8305.png
subject-01,1,663,0.803292036056519,bicycle,truck,c03,0663_cop_s01_c03_truck_10_n04467665_276.png
subject-01,1,664,0.960969924926758,boat,car,c03,0664_cop_s01_c03_car_10_n04285008_7950.png
subject-01,1,665,0.81683087348938,dog,dog,c30,0665_cop_s01_c30_dog_10_n02108422_293.png
subject-01,1,666,1.22870516777039,bear,bear,c15,0666_cop_s01_c15_bear_10_n02132136_2451.png
subject-01,1,667,0.848598003387451,car,car,c30,0667_cop_s01_c30_car_10_n03100240_17245.png
subject-01,1,668,0.830693960189819,cat,knife,c05,0668_cop_s01_c05_knife_10_n03041632_29886.png
subject-01,1,669,0.816012144088745,oven,truck,c50,0669_cop_s01_c50_truck_10_n03417042_3952.png
subject-01,1,670,0.631880044937134,oven,truck,c01,0670_cop_s01_c01_truck_10_n03417042_17645.png
subject-01,1,671,0.751639842987061,oven,oven,c100,0671_cop_s01_c100_oven_10_n04111531_23264.png
subject-01,1,672,0.979436874389648,elephant,elephant,c50,0672_cop_s01_c50_elephant_10_n02504458_4580.png
subject-01,1,673,0.753364086151123,keyboard,cat,c01,0673_cop_s01_c01_cat_10_n02123597_8052.png
subject-01,1,674,0.935168027877808,bird,bear,c100,0674_cop_s01_c100_bear_10_n02134418_1218.png
subject-01,1,675,0.717290878295898,cat,boat,c01,0675_cop_s01_c01_boat_10_n04273569_661.png
subject-01,1,676,0.726941108703613,cat,airplane,c01,0676_cop_s01_c01_airplane_10_n02690373_5266.png
subject-01,1,677,1.1268138885498,keyboard,keyboard,c15,0677_cop_s01_c15_keyboard_10_n04505470_4761.png
subject-01,1,678,0.888381004333496,oven,oven,c10,0678_cop_s01_c10_oven_10_n04111531_14279.png
subject-01,1,679,0.668003797531128,clock,clock,c50,0679_cop_s01_c50_clock_10_n03196217_3006.png
subject-01,1,680,1.20194697380066,elephant,elephant,c15,0680_cop_s01_c15_elephant_10_n02504458_2607.png
subject-01,1,681,1.13971304893494,car,truck,c100,0681_cop_s01_c100_truck_10_n03417042_3338.png
subject-01,1,682,1.19568610191345,car,car,c30,0682_cop_s01_c30_car_10_n02814533_5183.png
subject-01,1,683,0.901358842849731,truck,truck,c100,0683_cop_s01_c100_truck_10_n03417042_7365.png
subject-01,1,684,1.2192108631134,knife,knife,c100,0684_cop_s01_c100_knife_10_n03041632_29037.png
subject-01,1,685,1.11113595962524,car,car,c15,0685_cop_s01_c15_car_10_n03100240_10096.png
subject-01,1,686,1.36272406578064,keyboard,keyboard,c05,0686_cop_s01_c05_keyboard_10_n04505470_1929.png
subject-01,1,687,0.822550058364868,oven,chair,c01,0687_cop_s01_c01_chair_10_n04099969_10266.png
subject-01,1,688,0.978631019592285,oven,car,c01,0688_cop_s01_c01_car_10_n02814533_83665.png
subject-01,1,689,0.864210844039917,clock,truck,c03,0689_cop_s01_c03_truck_10_n03417042_751.png
subject-01,1,690,0.808166980743408,boat,keyboard,c05,0690_cop_s01_c05_keyboard_10_n03085013_2227.png
subject-01,1,691,1.14591193199158,car,car,c50,0691_cop_s01_c50_car_10_n03100240_2528.png
subject-01,1,692,1.22778391838074,car,bottle,c50,0692_cop_s01_c50_bottle_10_n03937543_8197.png
subject-01,1,693,1.22183704376221,car,boat,c30,0693_cop_s01_c30_boat_10_n04273569_10099.png
subject-01,1,694,0.871577024459839,oven,knife,c03,0694_cop_s01_c03_knife_10_n03041632_25479.png
subject-01,1,695,0.669283866882324,oven,oven,c03,0695_cop_s01_c03_oven_10_n04111531_13795.png
subject-01,1,696,0.768898010253906,oven,bear,c05,0696_cop_s01_c05_bear_10_n02132136_22835.png
subject-01,1,697,1.09698796272278,dog,dog,c15,0697_cop_s01_c15_dog_10_n02090379_4952.png
subject-01,1,698,0.996587991714478,dog,boat,c03,0698_cop_s01_c03_boat_10_n02951358_29817.png
subject-01,1,699,0.96045994758606,airplane,airplane,c10,0699_cop_s01_c10_airplane_10_n02690373_4115.png
subject-01,1,700,0.938291072845459,car,car,c100,0700_cop_s01_c100_car_10_n03100240_13707.png
subject-01,1,701,0.768005132675171,keyboard,keyboard,c50,0701_cop_s01_c50_keyboard_10_n04505470_3117.png
subject-01,1,702,0.952214956283569,truck,truck,c15,0702_cop_s01_c15_truck_10_n04467665_66065.png
subject-01,1,703,0.733548879623413,keyboard,keyboard,c10,0703_cop_s01_c10_keyboard_10_n03085013_8325.png
subject-01,1,704,1.01374292373657,oven,truck,c03,0704_cop_s01_c03_truck_10_n04467665_52595.png
subject-01,1,705,1.08725094795227,bottle,bicycle,c100,0705_cop_s01_c100_bicycle_10_n03792782_15557.png
subject-01,1,706,0.965054988861084,airplane,knife,c05,0706_cop_s01_c05_knife_10_n03041632_34676.png
subject-01,1,707,0.846989154815674,bicycle,airplane,c05,0707_cop_s01_c05_airplane_10_n02690373_5729.png
subject-01,1,708,0.812824964523315,boat,boat,c100,0708_cop_s01_c100_boat_10_n03662601_11901.png
subject-01,1,709,0.858572006225586,bicycle,bicycle,c30,0709_cop_s01_c30_bicycle_10_n03792782_10526.png
subject-01,1,710,0.896255016326904,clock,truck,c10,0710_cop_s01_c10_truck_10_n04467665_53339.png
subject-01,1,711,0.948237180709839,boat,boat,c100,0711_cop_s01_c100_boat_10_n04273569_12214.png
subject-01,1,712,1.12790679931641,dog,bottle,c05,0712_cop_s01_c05_bottle_10_n04591713_105.png
subject-01,1,713,0.789849996566772,bear,car,c01,0713_cop_s01_c01_car_10_n04285008_7325.png
subject-01,1,714,0.69779896736145,oven,clock,c03,0714_cop_s01_c03_clock_10_n04548280_4582.png
subject-01,1,715,0.791520833969116,oven,oven,c30,0715_cop_s01_c30_oven_10_n04111531_8963.png
subject-01,1,716,0.695604085922241,oven,chair,c01,0716_cop_s01_c01_chair_10_n03376595_16059.png
subject-01,1,717,0.963082075119019,cat,knife,c30,0717_cop_s01_c30_knife_10_n03041632_92637.png
subject-01,1,718,0.872757911682129,boat,bottle,c01,0718_cop_s01_c01_bottle_10_n04591713_1126.png
subject-01,1,719,0.780953168869019,boat,keyboard,c01,0719_cop_s01_c01_keyboard_10_n04505470_4400.png
subject-01,1,720,0.98458194732666,oven,keyboard,c10,0720_cop_s01_c10_keyboard_10_n03085013_30073.png
subject-01,1,721,0.761786937713623,bird,bird,c100,0721_cop_s01_c100_bird_10_n01818515_2594.png
subject-01,1,722,0.913532018661499,bear,bear,c50,0722_cop_s01_c50_bear_10_n02132136_19512.png
subject-01,1,723,0.781381845474243,airplane,airplane,c50,0723_cop_s01_c50_airplane_10_n02690373_4964.png
subject-01,1,724,0.977272033691406,boat,oven,c03,0724_cop_s01_c03_oven_10_n04111531_14611.png
subject-01,1,725,0.78303599357605,oven,knife,c05,0725_cop_s01_c05_knife_10_n03041632_9302.png
subject-01,1,726,1.01686692237854,bottle,bottle,c15,0726_cop_s01_c15_bottle_10_n04557648_6060.png
subject-01,1,727,1.06861782073975,dog,dog,c50,0727_cop_s01_c50_dog_10_n02105056_951.png
subject-01,1,728,1.07846784591675,truck,truck,c100,0728_cop_s01_c100_truck_10_n04467665_52762.png
subject-01,1,729,0.680292129516602,cat,cat,c15,0729_cop_s01_c15_cat_10_n02123159_7607.png
subject-01,1,730,0.980065107345581,car,truck,c100,0730_cop_s01_c100_truck_10_n03417042_4420.png
subject-01,1,731,0.872170925140381,bicycle,bicycle,c100,0731_cop_s01_c100_bicycle_10_n03792782_4474.png
subject-01,1,732,1.16182899475098,bear,bird,c10,0732_cop_s01_c10_bird_10_n02018207_9697.png
subject-01,1,733,1.20782804489136,bird,bird,c30,0733_cop_s01_c30_bird_10_n02007558_2518.png
subject-01,1,734,0.733325958251953,cat,keyboard,c05,0734_cop_s01_c05_keyboard_10_n03085013_1824.png
subject-01,1,735,1.19316792488098,cat,bird,c05,0735_cop_s01_c05_bird_10_n02027492_3072.png
subject-01,1,736,1.26495814323425,bicycle,car,c10,0736_cop_s01_c10_car_10_n03100240_2108.png
subject-01,1,737,1.20876312255859,truck,truck,c10,0737_cop_s01_c10_truck_10_n03417042_14261.png
subject-01,1,738,0.9447340965271,truck,chair,c10,0738_cop_s01_c10_chair_10_n04429376_30621.png
subject-01,1,739,0.864382982254028,airplane,airplane,c50,0739_cop_s01_c50_airplane_10_n02690373_4649.png
subject-01,1,740,0.767983913421631,clock,clock,c03,0740_cop_s01_c03_clock_10_n02708093_1546.png
subject-01,1,741,0.843757152557373,elephant,elephant,c100,0741_cop_s01_c100_elephant_10_n02504458_5561.png
subject-01,1,742,0.819879055023193,airplane,dog,c10,0742_cop_s01_c10_dog_10_n02093428_592.png
subject-01,1,743,0.719771146774292,oven,bird,c03,0743_cop_s01_c03_bird_10_n01855672_14214.png
subject-01,1,744,1.04143500328064,bottle,bottle,c50,0744_cop_s01_c50_bottle_10_n03983396_11506.png
subject-01,1,745,0.79314398765564,oven,keyboard,c03,0745_cop_s01_c03_keyboard_10_n04505470_4797.png
subject-01,1,746,1.20902109146118,cat,cat,c50,0746_cop_s01_c50_cat_10_n02124075_20891.png
subject-01,1,747,0.764753103256226,boat,boat,c50,0747_cop_s01_c50_boat_10_n03344393_4243.png
subject-01,1,748,0.88672399520874,bear,bear,c10,0748_cop_s01_c10_bear_10_n02133161_12045.png
subject-01,1,749,0.838719844818115,clock,bird,c03,0749_cop_s01_c03_bird_10_n02011460_2886.png
subject-01,1,750,0.816325187683105,cat,bear,c05,0750_cop_s01_c05_bear_10_n02134084_13014.png
subject-01,1,751,0.8661048412323,bird,bird,c30,0751_cop_s01_c30_bird_10_n01534433_3428.png
subject-01,1,752,0.857964038848877,car,car,c30,0752_cop_s01_c30_car_10_n02814533_5147.png
subject-01,1,753,0.901929140090942,chair,knife,c30,0753_cop_s01_c30_knife_10_n03041632_4808.png
subject-01,1,754,1.02744698524475,knife,elephant,c05,0754_cop_s01_c05_elephant_10_n02504013_7005.png
subject-01,1,755,1.13745808601379,knife,oven,c03,0755_cop_s01_c03_oven_10_n04111531_1798.png
subject-01,1,756,0.889071941375732,boat,truck,c10,0756_cop_s01_c10_truck_10_n03796401_3158.png
subject-01,1,757,1.16304492950439,dog,cat,c100,0757_cop_s01_c100_cat_10_n02125311_21377.png
subject-01,1,758,0.734839916229248,oven,clock,c01,0758_cop_s01_c01_clock_10_n02708093_6957.png
subject-01,1,759,0.912522077560425,oven,airplane,c01,0759_cop_s01_c01_airplane_10_n02690373_13613.png
subject-01,1,760,0.858299016952515,cat,cat,c100,0760_cop_s01_c100_cat_10_n02123045_9845.png
subject-01,1,761,0.828158140182495,bicycle,bicycle,c15,0761_cop_s01_c15_bicycle_10_n02835271_8059.png
subject-01,1,762,0.923946142196655,clock,keyboard,c01,0762_cop_s01_c01_keyboard_10_n03085013_23005.png
subject-01,1,763,0.822165966033936,oven,oven,c100,0763_cop_s01_c100_oven_10_n04111531_5991.png
subject-01,1,764,0.979730844497681,truck,truck,c05,0764_cop_s01_c05_truck_10_n04467665_11609.png
subject-01,1,765,0.817523002624512,airplane,airplane,c30,0765_cop_s01_c30_airplane_10_n02690373_5146.png
subject-01,1,766,1.37957191467285,knife,knife,c50,0766_cop_s01_c50_knife_10_n03041632_27575.png
subject-01,1,767,0.927085876464844,cat,bird,c10,0767_cop_s01_c10_bird_10_n01622779_1961.png
subject-01,1,768,0.804867029190063,cat,boat,c03,0768_cop_s01_c03_boat_10_n02951358_15072.png
subject-01,1,769,0.922866821289062,airplane,airplane,c30,0769_cop_s01_c30_airplane_10_n02690373_12984.png
subject-01,1,770,0.728553771972656,oven,oven,c50,0770_cop_s01_c50_oven_10_n04111531_5126.png
subject-01,1,771,0.676779985427856,oven,bird,c03,0771_cop_s01_c03_bird_10_n01860187_728.png
subject-01,1,772,0.684195041656494,clock,clock,c10,0772_cop_s01_c10_clock_10_n02708093_149.png
subject-01,1,773,0.795974016189575,clock,clock,c30,0773_cop_s01_c30_clock_10_n03196217_6814.png
subject-01,1,774,1.09180879592896,keyboard,keyboard,c50,0774_cop_s01_c50_keyboard_10_n03085013_18907.png
subject-01,1,775,0.86362099647522,bicycle,bicycle,c03,0775_cop_s01_c03_bicycle_10_n02835271_7355.png
subject-01,1,776,1.03765916824341,truck,truck,c15,0776_cop_s01_c15_truck_10_n03796401_14189.png
subject-01,1,777,1.02309608459473,boat,clock,c05,0777_cop_s01_c05_clock_10_n02708093_1559.png
subject-01,1,778,0.992920875549316,dog,bottle,c03,0778_cop_s01_c03_bottle_10_n04560804_13157.png
subject-01,1,779,0.650957107543945,oven,elephant,c01,0779_cop_s01_c01_elephant_10_n02504458_4864.png
subject-01,1,780,1.14856791496277,chair,clock,c05,0780_cop_s01_c05_clock_10_n03196217_127.png
subject-01,1,781,0.830464124679565,airplane,airplane,c05,0781_cop_s01_c05_airplane_10_n02690373_4108.png
subject-01,1,782,1.0663378238678,truck,truck,c10,0782_cop_s01_c10_truck_10_n04467665_2505.png
subject-01,1,783,1.18594694137573,truck,car,c05,0783_cop_s01_c05_car_10_n03100240_159.png
subject-01,1,784,1.35778307914734,dog,dog,c100,0784_cop_s01_c100_dog_10_n02090622_4585.png
subject-01,1,785,0.883611917495728,cat,bottle,c10,0785_cop_s01_c10_bottle_10_n03937543_2336.png
subject-01,1,786,1.24329710006714,car,clock,c50,0786_cop_s01_c50_clock_10_n02708093_404.png
subject-01,1,787,0.969364881515503,car,car,c03,0787_cop_s01_c03_car_10_n04285008_1453.png
subject-01,1,788,0.96304988861084,car,car,c50,0788_cop_s01_c50_car_10_n03100240_2985.png
subject-01,1,789,1.24480891227722,car,bird,c01,0789_cop_s01_c01_bird_10_n02013706_3748.png
subject-01,1,790,0.878654003143311,cat,elephant,c15,0790_cop_s01_c15_elephant_10_n02504458_4010.png
subject-01,1,791,1.36492085456848,car,car,c100,0791_cop_s01_c100_car_10_n02814533_37548.png
subject-01,1,792,1.24031019210815,keyboard,keyboard,c10,0792_cop_s01_c10_keyboard_10_n04505470_1692.png
subject-01,1,793,1.07011604309082,bottle,bottle,c50,0793_cop_s01_c50_bottle_10_n04591713_5607.png
subject-01,1,794,0.964130878448486,truck,truck,c15,0794_cop_s01_c15_truck_10_n04467665_1015.png
subject-01,1,795,0.875922918319702,bottle,knife,c10,0795_cop_s01_c10_knife_10_n03041632_13108.png
subject-01,1,796,0.811537027359009,truck,truck,c100,0796_cop_s01_c100_truck_10_n03796401_8100.png
subject-01,1,797,1.07152390480042,cat,clock,c03,0797_cop_s01_c03_clock_10_n04548280_4286.png
subject-01,1,798,0.673104047775269,boat,car,c03,0798_cop_s01_c03_car_10_n02814533_33602.png
subject-01,1,799,0.971122980117798,bicycle,bicycle,c10,0799_cop_s01_c10_bicycle_10_n03792782_7182.png
subject-01,1,800,0.941006898880005,clock,airplane,c01,0800_cop_s01_c01_airplane_10_n02690373_5106.png
subject-01,1,801,1.09752082824707,airplane,boat,c50,0801_cop_s01_c50_boat_10_n03662601_20110.png
subject-01,1,802,1.10741305351257,bear,bear,c10,0802_cop_s01_c10_bear_10_n02133161_546.png
subject-01,1,803,1.03718400001526,bear,elephant,c30,0803_cop_s01_c30_elephant_10_n02504458_5055.png
subject-01,1,804,1.22929501533508,truck,truck,c100,0804_cop_s01_c100_truck_10_n04467665_4239.png
subject-01,1,805,1.22064113616943,truck,car,c05,0805_cop_s01_c05_car_10_n02814533_872.png
subject-01,1,806,0.720483064651489,oven,oven,c30,0806_cop_s01_c30_oven_10_n04111531_1970.png
subject-01,1,807,0.902531862258911,chair,truck,c30,0807_cop_s01_c30_truck_10_n03796401_7699.png
subject-01,1,808,0.966227054595947,car,oven,c50,0808_cop_s01_c50_oven_10_n04111531_23046.png
subject-01,1,809,0.725899934768677,clock,clock,c50,0809_cop_s01_c50_clock_10_n03196217_4526.png
subject-01,1,810,0.867918968200684,truck,truck,c10,0810_cop_s01_c10_truck_10_n03796401_2060.png
subject-01,1,811,0.687710046768188,oven,bottle,c03,0811_cop_s01_c03_bottle_10_n04560804_15840.png
subject-01,1,812,0.819530010223389,cat,elephant,c03,0812_cop_s01_c03_elephant_10_n02504013_3028.png
subject-01,1,813,0.78360390663147,keyboard,keyboard,c50,0813_cop_s01_c50_keyboard_10_n03085013_20682.png
subject-01,1,814,0.769080877304077,oven,knife,c05,0814_cop_s01_c05_knife_10_n03041632_37618.png
subject-01,1,815,1.05878710746765,elephant,elephant,c05,0815_cop_s01_c05_elephant_10_n02504013_8162.png
subject-01,1,816,0.786747932434082,keyboard,keyboard,c30,0816_cop_s01_c30_keyboard_10_n03085013_21399.png
subject-01,1,817,0.7566077709198,bottle,bottle,c30,0817_cop_s01_c30_bottle_10_n04560804_11350.png
subject-01,1,818,1.11027097702026,bird,truck,c05,0818_cop_s01_c05_truck_10_n03796401_3509.png
subject-01,1,819,0.6423020362854,oven,bear,c01,0819_cop_s01_c01_bear_10_n02134418_4114.png
subject-01,1,820,0.845839977264404,keyboard,keyboard,c15,0820_cop_s01_c15_keyboard_10_n03085013_23008.png
subject-01,1,821,1.47009205818176,bicycle,bottle,c50,0821_cop_s01_c50_bottle_10_n03937543_4425.png
subject-01,1,822,1.24351596832275,airplane,airplane,c05,0822_cop_s01_c05_airplane_10_n02690373_8650.png
subject-01,1,823,0.919365167617798,cat,cat,c50,0823_cop_s01_c50_cat_10_n02123597_13272.png
subject-01,1,824,1.1895010471344,truck,truck,c100,0824_cop_s01_c100_truck_10_n04467665_27096.png
subject-01,1,825,1.15100693702698,knife,knife,c100,0825_cop_s01_c100_knife_10_n03041632_23968.png
subject-01,1,826,1.1907320022583,oven,airplane,c01,0826_cop_s01_c01_airplane_10_n02690373_8883.png
subject-01,1,827,0.750807046890259,oven,bear,c01,0827_cop_s01_c01_bear_10_n02133161_16808.png
subject-01,1,828,1.40832614898682,dog,dog,c50,0828_cop_s01_c50_dog_10_n02102177_5341.png
subject-01,1,829,0.926263093948364,dog,elephant,c10,0829_cop_s01_c10_elephant_10_n02504458_7359.png
subject-01,1,830,0.794146060943604,clock,clock,c30,0830_cop_s01_c30_clock_10_n04548280_1960.png
subject-01,1,831,0.82389497756958,boat,dog,c05,0831_cop_s01_c05_dog_10_n02111129_2245.png
subject-01,1,832,1.22757506370544,oven,oven,c30,0832_cop_s01_c30_oven_10_n04111531_1442.png
subject-01,1,833,0.917612075805664,chair,chair,c05,0833_cop_s01_c05_chair_10_n02791124_4519.png
subject-01,1,834,0.767396211624146,oven,cat,c05,0834_cop_s01_c05_cat_10_n02123597_13769.png
subject-01,1,835,0.744998931884766,oven,car,c05,0835_cop_s01_c05_car_10_n03100240_3208.png
subject-01,1,836,1.16882395744324,oven,oven,c100,0836_cop_s01_c100_oven_10_n04111531_887.png
subject-01,1,837,0.702527046203613,oven,bottle,c05,0837_cop_s01_c05_bottle_10_n04557648_4168.png
subject-01,1,838,1.288419008255,bicycle,bicycle,c10,0838_cop_s01_c10_bicycle_10_n02835271_3529.png
subject-01,1,839,1.04636406898499,bicycle,bicycle,c100,0839_cop_s01_c100_bicycle_10_n03792782_19937.png
subject-01,1,840,1.00225806236267,cat,bird,c30,0840_cop_s01_c30_bird_10_n01592084_1228.png
subject-01,1,841,0.628035068511963,boat,boat,c50,0841_cop_s01_c50_boat_10_n03344393_629.png
subject-01,1,842,0.785842895507812,boat,boat,c30,0842_cop_s01_c30_boat_10_n03662601_3823.png
subject-01,1,843,0.755962133407593,cat,airplane,c01,0843_cop_s01_c01_airplane_10_n02690373_5917.png
subject-01,1,844,1.08728909492493,dog,bear,c05,0844_cop_s01_c05_bear_10_n02133161_313.png
subject-01,1,845,1.03159403800964,cat,bear,c01,0845_cop_s01_c01_bear_10_n02133161_9134.png
subject-01,1,846,1.47693109512329,dog,dog,c50,0846_cop_s01_c50_dog_10_n02113023_4391.png
subject-01,1,847,0.840972900390625,bird,bird,c50,0847_cop_s01_c50_bird_10_n01616318_603.png
subject-01,1,848,0.876770973205566,cat,airplane,c10,0848_cop_s01_c10_airplane_10_n02690373_7408.png
subject-01,1,849,0.894814014434814,boat,boat,c15,0849_cop_s01_c15_boat_10_n02951358_10912.png
subject-01,1,850,0.692111015319824,oven,cat,c01,0850_cop_s01_c01_cat_10_n02123394_7700.png
subject-01,1,851,0.634013891220093,oven,bear,c01,0851_cop_s01_c01_bear_10_n02134084_4477.png
subject-01,1,852,1.29191112518311,oven,bicycle,c01,0852_cop_s01_c01_bicycle_10_n02835271_5437.png
subject-01,1,853,0.729852914810181,cat,elephant,c10,0853_cop_s01_c10_elephant_10_n02504013_1833.png
subject-01,1,854,0.823670148849487,cat,oven,c30,0854_cop_s01_c30_oven_10_n04111531_695.png
subject-01,1,855,0.575553178787231,clock,clock,c50,0855_cop_s01_c50_clock_10_n02708093_2043.png
subject-01,1,856,0.777199029922485,bicycle,bicycle,c30,0856_cop_s01_c30_bicycle_10_n03792782_20190.png
subject-01,1,857,0.730894088745117,bird,bird,c100,0857_cop_s01_c100_bird_10_n02028035_15091.png
subject-01,1,858,0.904839992523193,cat,bicycle,c03,0858_cop_s01_c03_bicycle_10_n02835271_3832.png
subject-01,1,859,0.920639038085938,car,car,c30,0859_cop_s01_c30_car_10_n03100240_10440.png
subject-01,1,860,1.05470395088196,bird,bear,c15,0860_cop_s01_c15_bear_10_n02132136_2791.png
subject-01,1,861,0.944369077682495,bicycle,bicycle,c10,0861_cop_s01_c10_bicycle_10_n02835271_2553.png
subject-01,1,862,0.906337976455688,clock,clock,c30,0862_cop_s01_c30_clock_10_n02708093_4976.png
subject-01,1,863,1.18785810470581,bird,bird,c15,0863_cop_s01_c15_bird_10_n02027492_4900.png
subject-01,1,864,NaN,na,oven,c100,0864_cop_s01_c100_oven_10_n04111531_6536.png
subject-01,1,865,0.78132700920105,car,car,c50,0865_cop_s01_c50_car_10_n02814533_71838.png
subject-01,1,866,0.747267007827759,dog,dog,c100,0866_cop_s01_c100_dog_10_n02100583_26422.png
subject-01,1,867,0.565032005310059,cat,chair,c03,0867_cop_s01_c03_chair_10_n04429376_31331.png
subject-01,1,868,0.823283910751343,car,car,c15,0868_cop_s01_c15_car_10_n03100240_11107.png
subject-01,1,869,0.692632913589478,oven,oven,c50,0869_cop_s01_c50_oven_10_n04111531_452.png
subject-01,1,870,0.74650502204895,bottle,bottle,c15,0870_cop_s01_c15_bottle_10_n04557648_5967.png
subject-01,1,871,0.764418840408325,bottle,chair,c30,0871_cop_s01_c30_chair_10_n02791124_3370.png
subject-01,1,872,0.880513906478882,cat,boat,c01,0872_cop_s01_c01_boat_10_n04273569_1288.png
subject-01,1,873,0.818031072616577,keyboard,keyboard,c30,0873_cop_s01_c30_keyboard_10_n04505470_709.png
subject-01,1,874,0.871692895889282,dog,dog,c50,0874_cop_s01_c50_dog_10_n02092002_1139.png
subject-01,1,875,0.911800146102905,keyboard,keyboard,c100,0875_cop_s01_c100_keyboard_10_n04505470_9395.png
subject-01,1,876,0.865509986877441,oven,clock,c03,0876_cop_s01_c03_clock_10_n04548280_750.png
subject-01,1,877,0.737581968307495,boat,boat,c10,0877_cop_s01_c10_boat_10_n03344393_14897.png
subject-01,1,878,0.942876100540161,bird,bird,c05,0878_cop_s01_c05_bird_10_n02056570_13462.png
subject-01,1,879,1.31881809234619,keyboard,keyboard,c10,0879_cop_s01_c10_keyboard_10_n03085013_19630.png
subject-01,1,880,0.766531944274902,bicycle,bicycle,c50,0880_cop_s01_c50_bicycle_10_n02835271_5751.png
subject-01,1,881,0.773364782333374,oven,car,c01,0881_cop_s01_c01_car_10_n03100240_3289.png
subject-01,1,882,0.87926197052002,keyboard,truck,c15,0882_cop_s01_c15_truck_10_n04467665_80098.png
subject-01,1,883,0.692731857299805,clock,clock,c100,0883_cop_s01_c100_clock_10_n04548280_5773.png
subject-01,1,884,1.00655698776245,elephant,elephant,c15,0884_cop_s01_c15_elephant_10_n02504013_1028.png
subject-01,1,885,0.750586032867432,dog,bear,c30,0885_cop_s01_c30_bear_10_n02134418_76.png
subject-01,1,886,0.622575998306274,boat,dog,c03,0886_cop_s01_c03_dog_10_n02088632_747.png
subject-01,1,887,0.890446186065674,boat,bicycle,c01,0887_cop_s01_c01_bicycle_10_n02835271_10741.png
subject-01,1,888,0.863871097564697,elephant,elephant,c50,0888_cop_s01_c50_elephant_10_n02504458_3182.png
subject-01,1,889,0.775841951370239,truck,truck,c100,0889_cop_s01_c100_truck_10_n04467665_52409.png
subject-01,1,890,0.675473928451538,bottle,bottle,c50,0890_cop_s01_c50_bottle_10_n04591713_3284.png
subject-01,1,891,0.97131609916687,cat,boat,c05,0891_cop_s01_c05_boat_10_n02951358_15858.png
subject-01,1,892,1.01915192604065,elephant,elephant,c50,0892_cop_s01_c50_elephant_10_n02504458_3684.png
subject-01,1,893,0.942982912063599,oven,oven,c50,0893_cop_s01_c50_oven_10_n04111531_15852.png
subject-01,1,894,1.08464312553406,cat,cat,c30,0894_cop_s01_c30_cat_10_n02124075_10155.png
subject-01,1,895,0.828898906707764,airplane,airplane,c30,0895_cop_s01_c30_airplane_10_n02690373_8876.png
subject-01,1,896,0.838773012161255,airplane,airplane,c100,0896_cop_s01_c100_airplane_10_n02690373_5007.png
subject-01,1,897,1.01225590705872,cat,dog,c15,0897_cop_s01_c15_dog_10_n02097658_5000.png
subject-01,1,898,0.739954948425293,oven,bear,c01,0898_cop_s01_c01_bear_10_n02132136_10428.png
subject-01,1,899,0.756129026412964,oven,chair,c05,0899_cop_s01_c05_chair_10_n04099969_3686.png
subject-01,1,900,0.915683031082153,dog,dog,c30,0900_cop_s01_c30_dog_10_n02102480_3679.png
subject-01,1,901,0.713464975357056,boat,car,c10,0901_cop_s01_c10_car_10_n02814533_1480.png
subject-01,1,902,0.737089872360229,clock,clock,c100,0902_cop_s01_c100_clock_10_n02708093_579.png
subject-01,1,903,0.747175931930542,oven,truck,c03,0903_cop_s01_c03_truck_10_n03796401_23550.png
subject-01,1,904,0.822748899459839,car,car,c100,0904_cop_s01_c100_car_10_n02814533_35760.png
subject-01,1,905,0.75468111038208,boat,cat,c03,0905_cop_s01_c03_cat_10_n02124075_12797.png
subject-01,1,906,0.928493976593018,airplane,keyboard,c30,0906_cop_s01_c30_keyboard_10_n03085013_18945.png
subject-01,1,907,1.06217908859253,airplane,airplane,c15,0907_cop_s01_c15_airplane_10_n02690373_379.png
subject-01,1,908,0.946066856384277,bird,oven,c30,0908_cop_s01_c30_oven_10_n04111531_4331.png
subject-01,1,909,0.791871070861816,cat,truck,c01,0909_cop_s01_c01_truck_10_n04467665_13193.png
subject-01,1,910,1.32966899871826,bear,bear,c10,0910_cop_s01_c10_bear_10_n02132136_26027.png
subject-01,1,911,1.40957498550415,bicycle,bicycle,c50,0911_cop_s01_c50_bicycle_10_n03792782_15138.png
subject-01,1,912,1.21530890464783,knife,knife,c10,0912_cop_s01_c10_knife_10_n03041632_11741.png
subject-01,1,913,1.06129503250122,cat,bottle,c10,0913_cop_s01_c10_bottle_10_n02823428_721.png
subject-01,1,914,1.43691110610962,bear,bear,c100,0914_cop_s01_c100_bear_10_n02134084_19791.png
subject-01,1,915,1.00094294548035,bird,bird,c10,0915_cop_s01_c10_bird_10_n01622779_684.png
subject-01,1,916,0.830517053604126,cat,truck,c01,0916_cop_s01_c01_truck_10_n03417042_23038.png
subject-01,1,917,0.644590139389038,cat,bear,c03,0917_cop_s01_c03_bear_10_n02133161_968.png
subject-01,1,918,0.792280912399292,boat,elephant,c01,0918_cop_s01_c01_elephant_10_n02504458_5483.png
subject-01,1,919,0.980005025863647,keyboard,oven,c15,0919_cop_s01_c15_oven_10_n04111531_4549.png
subject-01,1,920,0.817845106124878,boat,boat,c10,0920_cop_s01_c10_boat_10_n03344393_5511.png
subject-01,1,921,0.781667947769165,clock,clock,c01,0921_cop_s01_c01_clock_10_n04548280_2343.png
subject-01,1,922,0.821647167205811,clock,clock,c100,0922_cop_s01_c100_clock_10_n03196217_1275.png
subject-01,1,923,0.917791128158569,cat,bear,c50,0923_cop_s01_c50_bear_10_n02133161_5904.png
subject-01,1,924,0.719238996505737,oven,clock,c03,0924_cop_s01_c03_clock_10_n03196217_5079.png
subject-01,1,925,0.901410818099976,bird,bird,c100,0925_cop_s01_c100_bird_10_n01797886_465.png
subject-01,1,926,0.988584995269775,chair,chair,c10,0926_cop_s01_c10_chair_10_n04099969_10458.png
subject-01,1,927,0.824666023254395,airplane,airplane,c15,0927_cop_s01_c15_airplane_10_n02690373_10181.png
subject-01,1,928,1.49636101722717,oven,knife,c01,0928_cop_s01_c01_knife_10_n03041632_36235.png
subject-01,1,929,0.772170066833496,bird,bird,c50,0929_cop_s01_c50_bird_10_n02033041_6046.png
subject-01,1,930,0.983930110931396,bicycle,bicycle,c100,0930_cop_s01_c100_bicycle_10_n03792782_1363.png
subject-01,1,931,0.990198135375977,dog,dog,c100,0931_cop_s01_c100_dog_10_n02102177_988.png
subject-01,1,932,0.827754974365234,cat,keyboard,c03,0932_cop_s01_c03_keyboard_10_n03085013_24306.png
subject-01,1,933,0.707341909408569,oven,oven,c01,0933_cop_s01_c01_oven_10_n04111531_9963.png
subject-01,1,934,1.16723299026489,bird,bird,c30,0934_cop_s01_c30_bird_10_n01843383_296.png
subject-01,1,935,0.739048004150391,keyboard,keyboard,c100,0935_cop_s01_c100_keyboard_10_n04505470_3825.png
subject-01,1,936,0.792824983596802,clock,clock,c50,0936_cop_s01_c50_clock_10_n02708093_6835.png
subject-01,1,937,0.94861102104187,chair,chair,c50,0937_cop_s01_c50_chair_10_n04099969_25664.png
subject-01,1,938,0.986497163772583,chair,knife,c01,0938_cop_s01_c01_knife_10_n03041632_50332.png
subject-01,1,939,0.802342176437378,keyboard,keyboard,c50,0939_cop_s01_c50_keyboard_10_n04505470_9331.png
subject-01,1,940,0.95406699180603,oven,truck,c05,0940_cop_s01_c05_truck_10_n03417042_19958.png
subject-01,1,941,0.963913917541504,oven,clock,c03,0941_cop_s01_c03_clock_10_n04548280_3161.png
subject-01,1,942,0.731856107711792,clock,clock,c10,0942_cop_s01_c10_clock_10_n03196217_1814.png
subject-01,1,943,0.763428926467896,bird,bird,c100,0943_cop_s01_c100_bird_10_n02027492_10246.png
subject-01,1,944,0.921366930007935,oven,chair,c05,0944_cop_s01_c05_chair_10_n02791124_1737.png
subject-01,1,945,0.609304904937744,boat,boat,c100,0945_cop_s01_c100_boat_10_n03344393_1131.png
subject-01,1,946,0.834930181503296,clock,elephant,c01,0946_cop_s01_c01_elephant_10_n02504458_7207.png
subject-01,1,947,0.882773876190186,cat,boat,c10,0947_cop_s01_c10_boat_10_n03344393_4485.png
subject-01,1,948,0.884515047073364,airplane,airplane,c05,0948_cop_s01_c05_airplane_10_n02690373_2607.png
subject-01,1,949,0.944885969161987,airplane,bottle,c05,0949_cop_s01_c05_bottle_10_n03937543_6014.png
subject-01,1,950,0.746545076370239,clock,elephant,c01,0950_cop_s01_c01_elephant_10_n02504013_3599.png
subject-01,1,951,1.08402395248413,cat,cat,c15,0951_cop_s01_c15_cat_10_n02123159_6624.png
subject-01,1,952,0.79618501663208,airplane,airplane,c100,0952_cop_s01_c100_airplane_10_n02690373_13078.png
subject-01,1,953,0.983682870864868,clock,boat,c03,0953_cop_s01_c03_boat_10_n03344393_2676.png
subject-01,1,954,0.897866010665894,bicycle,bicycle,c10,0954_cop_s01_c10_bicycle_10_n02835271_12764.png
subject-01,1,955,1.06315279006958,keyboard,keyboard,c100,0955_cop_s01_c100_keyboard_10_n04505470_361.png
subject-01,1,956,0.924991846084595,keyboard,keyboard,c30,0956_cop_s01_c30_keyboard_10_n03085013_2272.png
subject-01,1,957,0.766829967498779,oven,cat,c03,0957_cop_s01_c03_cat_10_n02123597_1965.png
subject-01,1,958,0.77495002746582,boat,bird,c10,0958_cop_s01_c10_bird_10_n01820546_2924.png
subject-01,1,959,0.788544893264771,bicycle,bicycle,c15,0959_cop_s01_c15_bicycle_10_n03792782_5557.png
subject-01,1,960,1.13034701347351,keyboard,boat,c10,0960_cop_s01_c10_boat_10_n04273569_14373.png
subject-01,1,961,0.657564163208008,clock,clock,c15,0961_cop_s01_c15_clock_10_n04548280_5519.png
subject-01,1,962,0.720993995666504,boat,cat,c10,0962_cop_s01_c10_cat_10_n02125311_32129.png
subject-01,1,963,0.652651071548462,cat,car,c03,0963_cop_s01_c03_car_10_n04285008_8213.png
subject-01,1,964,1.06265187263489,car,car,c50,0964_cop_s01_c50_car_10_n04285008_507.png
subject-01,1,965,1.00056409835815,cat,dog,c01,0965_cop_s01_c01_dog_10_n02091134_3701.png
subject-01,1,966,0.900186061859131,car,boat,c05,0966_cop_s01_c05_boat_10_n04612504_17854.png
subject-01,1,967,0.711936950683594,oven,elephant,c10,0967_cop_s01_c10_elephant_10_n02504013_4654.png
subject-01,1,968,0.722115039825439,oven,dog,c03,0968_cop_s01_c03_dog_10_n02102480_7875.png
subject-01,1,969,0.753968000411987,oven,elephant,c05,0969_cop_s01_c05_elephant_10_n02504013_7633.png
subject-01,1,970,0.815371990203857,airplane,airplane,c50,0970_cop_s01_c50_airplane_10_n02690373_2544.png
subject-01,1,971,0.871293067932129,airplane,airplane,c15,0971_cop_s01_c15_airplane_10_n02690373_4728.png
subject-01,1,972,0.683385133743286,clock,clock,c10,0972_cop_s01_c10_clock_10_n02708093_8340.png
subject-01,1,973,0.974869012832642,bottle,bottle,c100,0973_cop_s01_c100_bottle_10_n04560804_23390.png
subject-01,1,974,0.762657880783081,cat,keyboard,c01,0974_cop_s01_c01_keyboard_10_n04505470_26.png
subject-01,1,975,1.10063982009888,elephant,elephant,c15,0975_cop_s01_c15_elephant_10_n02504013_2479.png
subject-01,1,976,0.990204095840454,cat,car,c03,0976_cop_s01_c03_car_10_n02814533_87871.png
subject-01,1,977,0.920022964477539,oven,bottle,c30,0977_cop_s01_c30_bottle_10_n04579145_466.png
subject-01,1,978,1.17799305915833,airplane,bird,c05,0978_cop_s01_c05_bird_10_n01616318_2700.png
subject-01,1,979,0.873971939086914,oven,elephant,c10,0979_cop_s01_c10_elephant_10_n02504013_1970.png
subject-01,1,980,0.879565954208374,elephant,elephant,c50,0980_cop_s01_c50_elephant_10_n02504458_209.png
subject-01,1,981,0.91347599029541,bear,truck,c05,0981_cop_s01_c05_truck_10_n03796401_21407.png
subject-01,1,982,0.813358068466187,keyboard,keyboard,c15,0982_cop_s01_c15_keyboard_10_n04505470_5057.png
subject-01,1,983,1.3511791229248,oven,cat,c01,0983_cop_s01_c01_cat_10_n02123597_23389.png
subject-01,1,984,0.727038860321045,keyboard,keyboard,c10,0984_cop_s01_c10_keyboard_10_n04505470_4374.png
subject-01,1,985,1.4705228805542,bear,bear,c10,0985_cop_s01_c10_bear_10_n02133161_15177.png
subject-01,1,986,0.848428010940552,oven,cat,c10,0986_cop_s01_c10_cat_10_n02123597_7248.png
subject-01,1,987,1.06038498878479,keyboard,keyboard,c05,0987_cop_s01_c05_keyboard_10_n04505470_8822.png
subject-01,1,988,0.708086967468262,cat,cat,c15,0988_cop_s01_c15_cat_10_n02123045_5200.png
subject-01,1,989,0.928212881088257,bird,bird,c30,0989_cop_s01_c30_bird_10_n01855032_7567.png
subject-01,1,990,1.03161215782166,dog,dog,c30,0990_cop_s01_c30_dog_10_n02094258_1334.png
subject-01,1,991,0.759656190872192,cat,bear,c03,0991_cop_s01_c03_bear_10_n02133161_10024.png
subject-01,1,992,0.779284954071045,oven,boat,c01,0992_cop_s01_c01_boat_10_n03344393_8143.png
subject-01,1,993,0.837146997451782,bicycle,bicycle,c15,0993_cop_s01_c15_bicycle_10_n02835271_5193.png
subject-01,1,994,0.978897094726562,bear,bear,c30,0994_cop_s01_c30_bear_10_n02132136_4157.png
subject-01,1,995,0.828956127166748,car,truck,c50,0995_cop_s01_c50_truck_10_n04467665_23173.png
subject-01,1,996,0.842781782150269,boat,boat,c10,0996_cop_s01_c10_boat_10_n04612504_17514.png
subject-01,1,997,1.23832702636719,bicycle,bicycle,c10,0997_cop_s01_c10_bicycle_10_n03792782_77949.png
subject-01,1,998,0.810464859008789,knife,chair,c05,0998_cop_s01_c05_chair_10_n02791124_1371.png
subject-01,1,999,0.760032176971436,oven,oven,c50,0999_cop_s01_c50_oven_10_n04111531_4963.png
subject-01,1,1000,0.82793402671814,cat,oven,c05,1000_cop_s01_c05_oven_10_n04111531_2201.png
subject-01,1,1001,0.629633903503418,oven,clock,c01,1001_cop_s01_c01_clock_10_n02708093_2710.png
subject-01,1,1002,1.13944101333618,bottle,knife,c100,1002_cop_s01_c100_knife_10_n03041632_4044.png
subject-01,1,1003,0.993359804153442,knife,bear,c100,1003_cop_s01_c100_bear_10_n02133161_741.png
subject-01,1,1004,0.639008045196533,oven,knife,c03,1004_cop_s01_c03_knife_10_n03041632_31932.png
subject-01,1,1005,0.658976793289185,oven,car,c01,1005_cop_s01_c01_car_10_n03100240_3205.png
subject-01,1,1006,0.576751947402954,oven,elephant,c03,1006_cop_s01_c03_elephant_10_n02504458_6972.png
subject-01,1,1007,0.608410120010376,oven,dog,c01,1007_cop_s01_c01_dog_10_n02111500_8079.png
subject-01,1,1008,0.828341960906982,car,truck,c30,1008_cop_s01_c30_truck_10_n03417042_3659.png
subject-01,1,1009,1.08826994895935,car,dog,c03,1009_cop_s01_c03_dog_10_n02091467_9499.png
subject-01,1,1010,1.0699360370636,car,car,c100,1010_cop_s01_c100_car_10_n03100240_1443.png
subject-01,1,1011,1.16415882110596,car,keyboard,c01,1011_cop_s01_c01_keyboard_10_n04505470_2787.png
subject-01,1,1012,0.859711885452271,bear,bear,c100,1012_cop_s01_c100_bear_10_n02134084_1207.png
subject-01,1,1013,0.769386053085327,bear,bicycle,c03,1013_cop_s01_c03_bicycle_10_n03792782_818.png
subject-01,1,1014,0.927350044250488,car,car,c05,1014_cop_s01_c05_car_10_n04285008_12539.png
subject-01,1,1015,0.874936819076538,chair,chair,c50,1015_cop_s01_c50_chair_10_n03376595_4669.png
subject-01,1,1016,1.39881491661072,bear,bear,c15,1016_cop_s01_c15_bear_10_n02134418_1259.png
subject-01,1,1017,0.678750038146973,car,car,c100,1017_cop_s01_c100_car_10_n03100240_1794.png
subject-01,1,1018,0.804415941238403,boat,bear,c01,1018_cop_s01_c01_bear_10_n02134084_6113.png
subject-01,1,1019,0.792232036590576,elephant,elephant,c100,1019_cop_s01_c100_elephant_10_n02504458_99.png
subject-01,1,1020,1.0983259677887,knife,keyboard,c100,1020_cop_s01_c100_keyboard_10_n03085013_2808.png
subject-01,1,1021,1.07021617889404,chair,keyboard,c10,1021_cop_s01_c10_keyboard_10_n03085013_18649.png
subject-01,1,1022,0.811697006225586,chair,chair,c15,1022_cop_s01_c15_chair_10_n04429376_43275.png
subject-01,1,1023,0.993525981903076,oven,bottle,c15,1023_cop_s01_c15_bottle_10_n03937543_3726.png
subject-01,1,1024,0.909199953079224,chair,chair,c100,1024_cop_s01_c100_chair_10_n04429376_10597.png
subject-01,1,1025,1.01512503623962,cat,clock,c01,1025_cop_s01_c01_clock_10_n02708093_2574.png
subject-01,1,1026,0.911337852478027,dog,dog,c100,1026_cop_s01_c100_dog_10_n02107908_3490.png
subject-01,1,1027,0.920819044113159,cat,cat,c03,1027_cop_s01_c03_cat_10_n02124075_2751.png
subject-01,1,1028,0.928704977035522,chair,chair,c15,1028_cop_s01_c15_chair_10_n03376595_9482.png
subject-01,1,1029,0.836385011672974,oven,bird,c03,1029_cop_s01_c03_bird_10_n02006656_2496.png
subject-01,1,1030,0.980295896530151,dog,dog,c10,1030_cop_s01_c10_dog_10_n02109961_14816.png
subject-01,1,1031,0.957989931106567,bicycle,bicycle,c100,1031_cop_s01_c100_bicycle_10_n03792782_1586.png
subject-01,1,1032,0.849781036376953,chair,chair,c03,1032_cop_s01_c03_chair_10_n04099969_3536.png
subject-01,1,1033,0.811885118484497,car,car,c50,1033_cop_s01_c50_car_10_n04285008_12662.png
subject-01,1,1034,1.23127388954163,dog,dog,c100,1034_cop_s01_c100_dog_10_n02090622_5881.png
subject-01,1,1035,0.771181106567383,cat,bear,c05,1035_cop_s01_c05_bear_10_n02134418_3579.png
subject-01,1,1036,0.707498788833618,bicycle,bicycle,c15,1036_cop_s01_c15_bicycle_10_n03792782_14642.png
subject-01,1,1037,0.991101026535034,bicycle,dog,c15,1037_cop_s01_c15_dog_10_n02108000_4202.png
subject-01,1,1038,0.924928903579712,elephant,elephant,c10,1038_cop_s01_c10_elephant_10_n02504458_6470.png
subject-01,1,1039,1.1309540271759,oven,oven,c01,1039_cop_s01_c01_oven_10_n04111531_5102.png
subject-01,1,1040,0.83422589302063,airplane,dog,c15,1040_cop_s01_c15_dog_10_n02091032_3390.png
subject-01,1,1041,0.791306972503662,dog,dog,c100,1041_cop_s01_c100_dog_10_n02101556_2504.png
