subj,Session,trial,rt,object_response,category,condition,imagename
subject-04,1,1,0.906422853469849,cat,cat,c01,0001_cop_s04_c01_cat_10_n02123159_386.png
subject-04,1,2,0.712171077728271,boat,oven,c10,0002_cop_s04_c10_oven_10_n04111531_6128.png
subject-04,1,3,0.693978071212769,airplane,airplane,c15,0003_cop_s04_c15_airplane_10_n02690373_1933.png
subject-04,1,4,1.01393890380859,cat,clock,c01,0004_cop_s04_c01_clock_10_n04548280_2374.png
subject-04,1,5,1.3655800819397,knife,bottle,c15,0005_cop_s04_c15_bottle_10_n04591713_6842.png
subject-04,1,6,1.12531495094299,bear,dog,c10,0006_cop_s04_c10_dog_10_n02110806_642.png
subject-04,1,7,0.711137056350708,bear,bear,c100,0007_cop_s04_c100_bear_10_n02132136_14778.png
subject-04,1,8,0.649130821228027,bear,bear,c100,0008_cop_s04_c100_bear_10_n02134084_1207.png
subject-04,1,9,1.13689112663269,bottle,bottle,c50,0009_cop_s04_c50_bottle_10_n04560804_5756.png
subject-04,1,10,1.10082697868347,oven,elephant,c01,0010_cop_s04_c01_elephant_10_n02504013_3599.png
subject-04,1,11,1.02257609367371,bottle,bottle,c100,0011_cop_s04_c100_bottle_10_n02823428_6050.png
subject-04,1,12,1.03438305854797,cat,bicycle,c01,0012_cop_s04_c01_bicycle_10_n02835271_1436.png
subject-04,1,13,0.816271066665649,boat,boat,c30,0013_cop_s04_c30_boat_10_n04273569_10099.png
subject-04,1,14,0.696114063262939,airplane,airplane,c30,0014_cop_s04_c30_airplane_10_n02690373_6138.png
subject-04,1,15,0.917696952819824,airplane,airplane,c100,0015_cop_s04_c100_airplane_10_n02690373_5007.png
subject-04,1,16,1.37366509437561,car,cat,c03,0016_cop_s04_c03_cat_10_n02123045_840.png
subject-04,1,17,1.07747197151184,knife,knife,c50,0017_cop_s04_c50_knife_10_n03041632_4714.png
subject-04,1,18,0.911098957061768,dog,dog,c01,0018_cop_s04_c01_dog_10_n02111500_8079.png
subject-04,1,19,0.819046020507812,truck,truck,c10,0019_cop_s04_c10_truck_10_n04467665_56815.png
subject-04,1,20,0.752878904342651,boat,cat,c03,0020_cop_s04_c03_cat_10_n02123597_11138.png
subject-04,1,21,0.562525987625122,boat,boat,c100,0021_cop_s04_c100_boat_10_n04273569_24747.png
subject-04,1,22,0.652868986129761,bird,bird,c30,0022_cop_s04_c30_bird_10_n02013706_19220.png
subject-04,1,23,0.880724191665649,chair,chair,c30,0023_cop_s04_c30_chair_10_n04429376_6242.png
subject-04,1,24,0.623991012573242,airplane,airplane,c30,0024_cop_s04_c30_airplane_10_n02690373_8876.png
subject-04,1,25,0.879863977432251,elephant,elephant,c100,0025_cop_s04_c100_elephant_10_n02504458_12217.png
subject-04,1,26,0.999691963195801,bird,cat,c05,0026_cop_s04_c05_cat_10_n02125311_37322.png
subject-04,1,27,0.701657056808472,oven,chair,c03,0027_cop_s04_c03_chair_10_n04429376_31331.png
subject-04,1,28,1.0756561756134,bear,bear,c50,0028_cop_s04_c50_bear_10_n02133161_1247.png
subject-04,1,29,0.983218193054199,bicycle,dog,c05,0029_cop_s04_c05_dog_10_n02091831_510.png
subject-04,1,30,0.809024095535278,bottle,knife,c10,0030_cop_s04_c10_knife_10_n03041632_46185.png
subject-04,1,31,0.657072067260742,bird,bird,c30,0031_cop_s04_c30_bird_10_n01796340_10024.png
subject-04,1,32,0.832445859909058,car,car,c15,0032_cop_s04_c15_car_10_n03100240_10096.png
subject-04,1,33,0.776412963867188,car,car,c100,0033_cop_s04_c100_car_10_n03100240_1443.png
subject-04,1,34,NaN,na,oven,c15,0034_cop_s04_c15_oven_10_n04111531_8305.png
subject-04,1,35,0.624162197113037,car,car,c10,0035_cop_s04_c10_car_10_n03100240_13929.png
subject-04,1,36,0.665917873382568,cat,bottle,c01,0036_cop_s04_c01_bottle_10_n02823428_4245.png
subject-04,1,37,0.75170111656189,bottle,bottle,c100,0037_cop_s04_c100_bottle_10_n04560804_14130.png
subject-04,1,38,0.647808074951172,oven,oven,c10,0038_cop_s04_c10_oven_10_n04111531_20429.png
subject-04,1,39,0.613427877426147,keyboard,keyboard,c50,0039_cop_s04_c50_keyboard_10_n04505470_3117.png
subject-04,1,40,1.13709402084351,car,bear,c05,0040_cop_s04_c05_bear_10_n02132136_1726.png
subject-04,1,41,0.772946119308472,boat,airplane,c15,0041_cop_s04_c15_airplane_10_n02690373_1952.png
subject-04,1,42,0.834786176681519,oven,bottle,c03,0042_cop_s04_c03_bottle_10_n04560804_722.png
subject-04,1,43,0.638680934906006,bicycle,bicycle,c100,0043_cop_s04_c100_bicycle_10_n03792782_5966.png
subject-04,1,44,0.796422004699707,car,knife,c05,0044_cop_s04_c05_knife_10_n03041632_37618.png
subject-04,1,45,0.766250848770142,bird,bird,c15,0045_cop_s04_c15_bird_10_n01592084_4764.png
subject-04,1,46,1.03590202331543,boat,oven,c15,0046_cop_s04_c15_oven_10_n04111531_22403.png
subject-04,1,47,0.64159893989563,airplane,airplane,c50,0047_cop_s04_c50_airplane_10_n02690373_2675.png
subject-04,1,48,0.621509075164795,chair,chair,c50,0048_cop_s04_c50_chair_10_n03376595_12602.png
subject-04,1,49,0.673440933227539,bear,bear,c01,0049_cop_s04_c01_bear_10_n02132136_10428.png
subject-04,1,50,1.0054759979248,bicycle,bottle,c10,0050_cop_s04_c10_bottle_10_n04557648_4165.png
subject-04,1,51,0.579026937484741,car,car,c50,0051_cop_s04_c50_car_10_n03100240_21982.png
subject-04,1,52,0.796779870986938,bottle,dog,c05,0052_cop_s04_c05_dog_10_n02094433_5139.png
subject-04,1,53,0.636640071868896,oven,car,c03,0053_cop_s04_c03_car_10_n04285008_3193.png
subject-04,1,54,0.804509878158569,cat,cat,c10,0054_cop_s04_c10_cat_10_n02123597_488.png
subject-04,1,55,0.750708103179932,chair,airplane,c01,0055_cop_s04_c01_airplane_10_n02690373_4793.png
subject-04,1,56,0.904129981994629,keyboard,bottle,c05,0056_cop_s04_c05_bottle_10_n04557648_4168.png
subject-04,1,57,0.861974954605103,elephant,elephant,c15,0057_cop_s04_c15_elephant_10_n02504013_2479.png
subject-04,1,58,0.837816953659058,chair,chair,c50,0058_cop_s04_c50_chair_10_n04099969_25664.png
subject-04,1,59,0.54988694190979,boat,boat,c50,0059_cop_s04_c50_boat_10_n03344393_4243.png
subject-04,1,60,0.65350079536438,bird,bird,c10,0060_cop_s04_c10_bird_10_n02009229_263.png
subject-04,1,61,0.767553091049194,keyboard,bicycle,c03,0061_cop_s04_c03_bicycle_10_n02835271_7355.png
subject-04,1,62,0.686928987503052,keyboard,keyboard,c100,0062_cop_s04_c100_keyboard_10_n04505470_9395.png
subject-04,1,63,0.612920045852661,oven,oven,c100,0063_cop_s04_c100_oven_10_n04111531_4685.png
subject-04,1,64,0.672630071640015,oven,oven,c30,0064_cop_s04_c30_oven_10_n04111531_8963.png
subject-04,1,65,0.664709091186523,cat,car,c01,0065_cop_s04_c01_car_10_n03100240_3289.png
subject-04,1,66,0.598235130310059,cat,cat,c30,0066_cop_s04_c30_cat_10_n02123394_5466.png
subject-04,1,67,0.880112171173096,airplane,bicycle,c50,0067_cop_s04_c50_bicycle_10_n03792782_11023.png
subject-04,1,68,0.94579005241394,boat,elephant,c10,0068_cop_s04_c10_elephant_10_n02504458_7359.png
subject-04,1,69,0.841611862182617,chair,dog,c15,0069_cop_s04_c15_dog_10_n02091032_3390.png
subject-04,1,70,0.757473945617676,bottle,elephant,c05,0070_cop_s04_c05_elephant_10_n02504013_7633.png
subject-04,1,71,0.919337034225464,knife,knife,c100,0071_cop_s04_c100_knife_10_n03041632_10263.png
subject-04,1,72,0.563235998153687,keyboard,keyboard,c50,0072_cop_s04_c50_keyboard_10_n03085013_14279.png
subject-04,1,73,0.716804027557373,bicycle,bicycle,c50,0073_cop_s04_c50_bicycle_10_n02835271_5751.png
subject-04,1,74,0.96851110458374,cat,truck,c03,0074_cop_s04_c03_truck_10_n04467665_30581.png
subject-04,1,75,0.816728115081787,knife,keyboard,c100,0075_cop_s04_c100_keyboard_10_n03085013_2808.png
subject-04,1,76,0.946367979049683,boat,clock,c03,0076_cop_s04_c03_clock_10_n04548280_750.png
subject-04,1,77,0.630477905273438,car,car,c30,0077_cop_s04_c30_car_10_n04285008_11323.png
subject-04,1,78,0.604135990142822,keyboard,keyboard,c05,0078_cop_s04_c05_keyboard_10_n04505470_6080.png
subject-04,1,79,0.660006999969482,truck,truck,c100,0079_cop_s04_c100_truck_10_n03417042_3338.png
subject-04,1,80,0.843464136123657,bicycle,bicycle,c15,0080_cop_s04_c15_bicycle_10_n03792782_20193.png
subject-04,1,81,0.878767013549805,keyboard,keyboard,c03,0081_cop_s04_c03_keyboard_10_n04505470_4887.png
subject-04,1,82,0.66656494140625,oven,bottle,c01,0082_cop_s04_c01_bottle_10_n04591713_1879.png
subject-04,1,83,0.568460941314697,clock,oven,c01,0083_cop_s04_c01_oven_10_n04111531_5102.png
subject-04,1,84,0.732028007507324,dog,dog,c30,0084_cop_s04_c30_dog_10_n02101388_8775.png
subject-04,1,85,0.628350019454956,bird,bird,c50,0085_cop_s04_c50_bird_10_n02027492_6499.png
subject-04,1,86,0.779700040817261,bird,bird,c05,0086_cop_s04_c05_bird_10_n02056570_13462.png
subject-04,1,87,0.657502889633179,boat,bicycle,c03,0087_cop_s04_c03_bicycle_10_n03792782_4844.png
subject-04,1,88,0.839717149734497,cat,cat,c50,0088_cop_s04_c50_cat_10_n02123159_8273.png
subject-04,1,89,0.657180070877075,knife,knife,c15,0089_cop_s04_c15_knife_10_n03041632_11700.png
subject-04,1,90,0.68100905418396,bicycle,bicycle,c30,0090_cop_s04_c30_bicycle_10_n03792782_67167.png
subject-04,1,91,0.604782819747925,bottle,bottle,c100,0091_cop_s04_c100_bottle_10_n03983396_17803.png
subject-04,1,92,1.25854182243347,cat,cat,c05,0092_cop_s04_c05_cat_10_n02125311_46330.png
subject-04,1,93,0.84035587310791,bear,truck,c05,0093_cop_s04_c05_truck_10_n03417042_708.png
subject-04,1,94,0.936147928237915,oven,truck,c03,0094_cop_s04_c03_truck_10_n03796401_28635.png
subject-04,1,95,0.692516088485718,bear,bear,c100,0095_cop_s04_c100_bear_10_n02133161_741.png
subject-04,1,96,0.683743953704834,clock,oven,c01,0096_cop_s04_c01_oven_10_n04111531_14435.png
subject-04,1,97,0.62372088432312,car,car,c30,0097_cop_s04_c30_car_10_n02814533_5155.png
subject-04,1,98,0.60331392288208,bear,bird,c100,0098_cop_s04_c100_bird_10_n01558993_5185.png
subject-04,1,99,0.73320198059082,keyboard,dog,c03,0099_cop_s04_c03_dog_10_n02088632_747.png
subject-04,1,100,0.719121932983398,boat,bicycle,c100,0100_cop_s04_c100_bicycle_10_n03792782_1363.png
subject-04,1,101,0.777285099029541,car,car,c05,0101_cop_s04_c05_car_10_n03100240_159.png
subject-04,1,102,1.02470707893372,bear,oven,c10,0102_cop_s04_c10_oven_10_n04111531_1580.png
subject-04,1,103,0.832589149475098,oven,oven,c30,0103_cop_s04_c30_oven_10_n04111531_14269.png
subject-04,1,104,0.760525941848755,chair,chair,c100,0104_cop_s04_c100_chair_10_n04429376_10597.png
subject-04,1,105,0.654093027114868,car,car,c10,0105_cop_s04_c10_car_10_n03100240_12141.png
subject-04,1,106,0.767858982086182,clock,clock,c15,0106_cop_s04_c15_clock_10_n02708093_3743.png
subject-04,1,107,0.601885080337524,chair,chair,c100,0107_cop_s04_c100_chair_10_n04429376_6308.png
subject-04,1,108,1.1256959438324,clock,clock,c30,0108_cop_s04_c30_clock_10_n02708093_442.png
subject-04,1,109,0.649781942367554,oven,chair,c100,0109_cop_s04_c100_chair_10_n02791124_12707.png
subject-04,1,110,0.599613904953003,cat,cat,c10,0110_cop_s04_c10_cat_10_n02124075_9716.png
subject-04,1,111,0.773362874984741,elephant,elephant,c30,0111_cop_s04_c30_elephant_10_n02504458_2994.png
subject-04,1,112,0.5590980052948,car,car,c15,0112_cop_s04_c15_car_10_n02814533_3117.png
subject-04,1,113,0.906790971755981,bird,bird,c50,0113_cop_s04_c50_bird_10_n01614925_1908.png
subject-04,1,114,0.988713026046753,keyboard,bicycle,c05,0114_cop_s04_c05_bicycle_10_n03792782_10129.png
subject-04,1,115,0.680131912231445,elephant,elephant,c100,0115_cop_s04_c100_elephant_10_n02504458_2031.png
subject-04,1,116,0.892198085784912,keyboard,keyboard,c50,0116_cop_s04_c50_keyboard_10_n03085013_24111.png
subject-04,1,117,0.576179981231689,boat,bear,c30,0117_cop_s04_c30_bear_10_n02134084_14775.png
subject-04,1,118,0.743565082550049,chair,chair,c30,0118_cop_s04_c30_chair_10_n02791124_4109.png
subject-04,1,119,0.641692876815796,bicycle,bicycle,c10,0119_cop_s04_c10_bicycle_10_n02835271_13437.png
subject-04,1,120,0.75739598274231,airplane,airplane,c50,0120_cop_s04_c50_airplane_10_n02690373_1436.png
subject-04,1,121,0.67526912689209,oven,knife,c05,0121_cop_s04_c05_knife_10_n03041632_29886.png
subject-04,1,122,0.632952928543091,keyboard,keyboard,c10,0122_cop_s04_c10_keyboard_10_n04505470_4374.png
subject-04,1,123,0.730736970901489,chair,knife,c03,0123_cop_s04_c03_knife_10_n03041632_11932.png
subject-04,1,124,0.73465895652771,bottle,bottle,c15,0124_cop_s04_c15_bottle_10_n04557648_5967.png
subject-04,1,125,0.574569940567017,oven,oven,c100,0125_cop_s04_c100_oven_10_n04111531_5991.png
subject-04,1,126,0.602303981781006,clock,clock,c50,0126_cop_s04_c50_clock_10_n02708093_3759.png
subject-04,1,127,0.568061113357544,oven,oven,c100,0127_cop_s04_c100_oven_10_n04111531_14095.png
subject-04,1,128,0.620033979415894,bird,bird,c30,0128_cop_s04_c30_bird_10_n01514859_8317.png
subject-04,1,129,0.857691049575806,cat,cat,c30,0129_cop_s04_c30_cat_10_n02123045_11032.png
subject-04,1,130,0.589359998703003,knife,knife,c100,0130_cop_s04_c100_knife_10_n03041632_3101.png
subject-04,1,131,0.951615810394287,truck,boat,c03,0131_cop_s04_c03_boat_10_n03344393_2676.png
subject-04,1,132,0.922963857650757,bear,bicycle,c05,0132_cop_s04_c05_bicycle_10_n03792782_8057.png
subject-04,1,133,1.02881097793579,keyboard,keyboard,c05,0133_cop_s04_c05_keyboard_10_n04505470_5155.png
subject-04,1,134,0.806619882583618,knife,knife,c15,0134_cop_s04_c15_knife_10_n03041632_16206.png
subject-04,1,135,0.488540887832642,clock,clock,c05,0135_cop_s04_c05_clock_10_n03196217_10641.png
subject-04,1,136,0.618342876434326,bottle,bottle,c30,0136_cop_s04_c30_bottle_10_n03983396_9090.png
subject-04,1,137,0.790289163589478,chair,oven,c15,0137_cop_s04_c15_oven_10_n04111531_7034.png
subject-04,1,138,0.732297897338867,bicycle,bicycle,c30,0138_cop_s04_c30_bicycle_10_n03792782_8847.png
subject-04,1,139,0.963762998580933,oven,dog,c01,0139_cop_s04_c01_dog_10_n02110185_14953.png
subject-04,1,140,0.959831953048706,knife,dog,c10,0140_cop_s04_c10_dog_10_n02093428_592.png
subject-04,1,141,0.805443048477173,car,oven,c01,0141_cop_s04_c01_oven_10_n04111531_21248.png
subject-04,1,142,0.88114595413208,airplane,boat,c10,0142_cop_s04_c10_boat_10_n03344393_4485.png
subject-04,1,143,1.00095582008362,dog,oven,c15,0143_cop_s04_c15_oven_10_n04111531_1977.png
subject-04,1,144,0.603071212768555,cat,cat,c03,0144_cop_s04_c03_cat_10_n02123597_1965.png
subject-04,1,145,0.814939975738525,knife,chair,c50,0145_cop_s04_c50_chair_10_n02791124_5824.png
subject-04,1,146,0.67070198059082,oven,bear,c05,0146_cop_s04_c05_bear_10_n02134418_3579.png
subject-04,1,147,0.610402822494507,clock,clock,c05,0147_cop_s04_c05_clock_10_n02708093_3750.png
subject-04,1,148,0.846040010452271,keyboard,car,c10,0148_cop_s04_c10_car_10_n03100240_24420.png
subject-04,1,149,1.241947889328,car,clock,c05,0149_cop_s04_c05_clock_10_n03196217_3605.png
subject-04,1,150,0.669711112976074,bicycle,airplane,c01,0150_cop_s04_c01_airplane_10_n02690373_5106.png
subject-04,1,151,0.619525909423828,boat,airplane,c01,0151_cop_s04_c01_airplane_10_n02690373_5266.png
subject-04,1,152,1.23925399780273,knife,knife,c50,0152_cop_s04_c50_knife_10_n03041632_13612.png
subject-04,1,153,0.86912202835083,boat,boat,c15,0153_cop_s04_c15_boat_10_n03344393_6467.png
subject-04,1,154,0.967346906661987,truck,truck,c03,0154_cop_s04_c03_truck_10_n03796401_23550.png
subject-04,1,155,0.594734907150269,keyboard,keyboard,c100,0155_cop_s04_c100_keyboard_10_n04505470_5068.png
subject-04,1,156,1.14254307746887,chair,chair,c05,0156_cop_s04_c05_chair_10_n04099969_3686.png
subject-04,1,157,0.706577062606812,cat,truck,c01,0157_cop_s04_c01_truck_10_n03417042_23038.png
subject-04,1,158,0.664169073104858,cat,cat,c100,0158_cop_s04_c100_cat_10_n02123597_16831.png
subject-04,1,159,1.08395791053772,keyboard,keyboard,c15,0159_cop_s04_c15_keyboard_10_n03085013_20891.png
subject-04,1,160,0.813726902008057,oven,bird,c15,0160_cop_s04_c15_bird_10_n01819313_1282.png
subject-04,1,161,0.937802076339722,bear,cat,c30,0161_cop_s04_c30_cat_10_n02125311_5717.png
subject-04,1,162,0.809701919555664,keyboard,knife,c100,0162_cop_s04_c100_knife_10_n03041632_50034.png
subject-04,1,163,0.585278987884521,clock,car,c01,0163_cop_s04_c01_car_10_n02814533_3590.png
subject-04,1,164,0.62922191619873,bottle,bottle,c30,0164_cop_s04_c30_bottle_10_n03983396_5545.png
subject-04,1,165,1.13294291496277,keyboard,bear,c03,0165_cop_s04_c03_bear_10_n02133161_968.png
subject-04,1,166,0.564767122268677,bear,bear,c50,0166_cop_s04_c50_bear_10_n02133161_4954.png
subject-04,1,167,0.606575012207031,clock,oven,c03,0167_cop_s04_c03_oven_10_n04111531_584.png
subject-04,1,168,0.928337097167969,bottle,bottle,c100,0168_cop_s04_c100_bottle_10_n03937543_2123.png
subject-04,1,169,0.948375940322876,knife,airplane,c05,0169_cop_s04_c05_airplane_10_n02690373_1773.png
subject-04,1,170,0.474459886550903,boat,bicycle,c10,0170_cop_s04_c10_bicycle_10_n03792782_14557.png
subject-04,1,171,1.04990696907043,elephant,elephant,c30,0171_cop_s04_c30_elephant_10_n02504013_476.png
subject-04,1,172,0.56781005859375,bottle,bottle,c50,0172_cop_s04_c50_bottle_10_n02823428_5288.png
subject-04,1,173,0.57951021194458,bicycle,bicycle,c15,0173_cop_s04_c15_bicycle_10_n02835271_26158.png
subject-04,1,174,0.685363054275513,airplane,airplane,c05,0174_cop_s04_c05_airplane_10_n02690373_4402.png
subject-04,1,175,0.745113134384155,oven,boat,c03,0175_cop_s04_c03_boat_10_n02951358_34234.png
subject-04,1,176,0.568936824798584,cat,bicycle,c03,0176_cop_s04_c03_bicycle_10_n03792782_818.png
subject-04,1,177,0.618896961212158,car,dog,c01,0177_cop_s04_c01_dog_10_n02091134_3701.png
subject-04,1,178,0.59879207611084,keyboard,keyboard,c50,0178_cop_s04_c50_keyboard_10_n04505470_1047.png
subject-04,1,179,0.550536870956421,boat,boat,c10,0179_cop_s04_c10_boat_10_n03344393_14897.png
subject-04,1,180,0.578289031982422,cat,keyboard,c03,0180_cop_s04_c03_keyboard_10_n03085013_21447.png
subject-04,1,181,0.474512100219727,cat,cat,c30,0181_cop_s04_c30_cat_10_n02123045_1484.png
subject-04,1,182,0.635895967483521,bicycle,bicycle,c100,0182_cop_s04_c100_bicycle_10_n02835271_2885.png
subject-04,1,183,0.62196683883667,dog,dog,c100,0183_cop_s04_c100_dog_10_n02101556_2504.png
subject-04,1,184,0.65745997428894,keyboard,keyboard,c30,0184_cop_s04_c30_keyboard_10_n03085013_2272.png
subject-04,1,185,1.16131186485291,knife,knife,c30,0185_cop_s04_c30_knife_10_n03041632_77022.png
subject-04,1,186,0.710976123809814,bird,oven,c05,0186_cop_s04_c05_oven_10_n04111531_22886.png
subject-04,1,187,0.706959009170532,elephant,elephant,c05,0187_cop_s04_c05_elephant_10_n02504013_8347.png
subject-04,1,188,0.704715967178345,car,knife,c01,0188_cop_s04_c01_knife_10_n03041632_81630.png
subject-04,1,189,0.676451921463013,bear,bear,c50,0189_cop_s04_c50_bear_10_n02132136_19512.png
subject-04,1,190,0.758238077163696,elephant,dog,c05,0190_cop_s04_c05_dog_10_n02108551_3425.png
subject-04,1,191,0.732033014297485,dog,dog,c50,0191_cop_s04_c50_dog_10_n02093991_6192.png
subject-04,1,192,0.641788959503174,airplane,airplane,c100,0192_cop_s04_c100_airplane_10_n02690373_6046.png
subject-04,1,193,0.8958899974823,clock,clock,c50,0193_cop_s04_c50_clock_10_n03196217_3006.png
subject-04,1,194,0.695558071136475,truck,truck,c100,0194_cop_s04_c100_truck_10_n04467665_4239.png
subject-04,1,195,0.947480916976929,bear,elephant,c50,0195_cop_s04_c50_elephant_10_n02504458_209.png
subject-04,1,196,1.1852068901062,bottle,knife,c15,0196_cop_s04_c15_knife_10_n03041632_28009.png
subject-04,1,197,0.906998157501221,chair,truck,c05,0197_cop_s04_c05_truck_10_n03417042_19958.png
subject-04,1,198,0.665132999420166,truck,truck,c10,0198_cop_s04_c10_truck_10_n03417042_14261.png
subject-04,1,199,0.692573070526123,cat,chair,c03,0199_cop_s04_c03_chair_10_n02791124_1333.png
subject-04,1,200,0.702526092529297,dog,dog,c10,0200_cop_s04_c10_dog_10_n02087394_9693.png
subject-04,1,201,0.55811595916748,oven,bird,c03,0201_cop_s04_c03_bird_10_n02011460_2886.png
subject-04,1,202,0.640075922012329,truck,truck,c100,0202_cop_s04_c100_truck_10_n04467665_52409.png
subject-04,1,203,0.628051996231079,elephant,elephant,c15,0203_cop_s04_c15_elephant_10_n02504458_2607.png
subject-04,1,204,0.905747175216675,elephant,bird,c10,0204_cop_s04_c10_bird_10_n02007558_16029.png
subject-04,1,205,0.629523992538452,chair,chair,c30,0205_cop_s04_c30_chair_10_n02791124_3370.png
subject-04,1,206,1.49999809265137,dog,dog,c30,0206_cop_s04_c30_dog_10_n02102480_8264.png
subject-04,1,207,0.641235113143921,cat,clock,c03,0207_cop_s04_c03_clock_10_n02708093_7257.png
subject-04,1,208,0.741082906723022,bird,bird,c50,0208_cop_s04_c50_bird_10_n01860187_810.png
subject-04,1,209,0.752894878387451,dog,dog,c05,0209_cop_s04_c05_dog_10_n02086079_37199.png
subject-04,1,210,0.528551816940308,bottle,bottle,c50,0210_cop_s04_c50_bottle_10_n03983396_11506.png
subject-04,1,211,0.510393142700195,bicycle,bicycle,c100,0211_cop_s04_c100_bicycle_10_n03792782_19937.png
subject-04,1,212,0.574198007583618,car,car,c30,0212_cop_s04_c30_car_10_n02814533_5147.png
subject-04,1,213,0.804041147232056,oven,oven,c10,0213_cop_s04_c10_oven_10_n04111531_9026.png
subject-04,1,214,0.605831146240234,airplane,airplane,c10,0214_cop_s04_c10_airplane_10_n02690373_4375.png
subject-04,1,215,1.03976511955261,chair,knife,c100,0215_cop_s04_c100_knife_10_n03041632_1143.png
subject-04,1,216,0.77949595451355,boat,oven,c30,0216_cop_s04_c30_oven_10_n04111531_467.png
subject-04,1,217,0.885299921035767,bottle,chair,c15,0217_cop_s04_c15_chair_10_n02791124_15853.png
subject-04,1,218,1.50014591217041,oven,chair,c05,0218_cop_s04_c05_chair_10_n02791124_5939.png
subject-04,1,219,0.776911973953247,bear,bear,c50,0219_cop_s04_c50_bear_10_n02133161_5904.png
subject-04,1,220,0.796795129776001,bird,dog,c01,0220_cop_s04_c01_dog_10_n02097658_6391.png
subject-04,1,221,0.678742170333862,oven,oven,c30,0221_cop_s04_c30_oven_10_n04111531_695.png
subject-04,1,222,0.824253082275391,chair,chair,c15,0222_cop_s04_c15_chair_10_n02791124_5706.png
subject-04,1,223,1.10809397697449,bottle,clock,c03,0223_cop_s04_c03_clock_10_n04548280_3161.png
subject-04,1,224,0.729895114898682,bird,bird,c50,0224_cop_s04_c50_bird_10_n02002724_7019.png
subject-04,1,225,0.663748025894165,boat,dog,c03,0225_cop_s04_c03_dog_10_n02113712_4486.png
subject-04,1,226,0.791769981384277,dog,dog,c05,0226_cop_s04_c05_dog_10_n02105641_416.png
subject-04,1,227,0.64732813835144,bear,bear,c10,0227_cop_s04_c10_bear_10_n02132136_10514.png
subject-04,1,228,0.61915397644043,clock,clock,c15,0228_cop_s04_c15_clock_10_n02708093_2025.png
subject-04,1,229,0.761049032211304,oven,bottle,c01,0229_cop_s04_c01_bottle_10_n04591713_1126.png
subject-04,1,230,0.706998825073242,bird,elephant,c01,0230_cop_s04_c01_elephant_10_n02504458_5331.png
subject-04,1,231,0.648720026016235,car,boat,c01,0231_cop_s04_c01_boat_10_n02951358_20960.png
subject-04,1,232,0.770443201065063,boat,knife,c03,0232_cop_s04_c03_knife_10_n03041632_89912.png
subject-04,1,233,0.528305053710938,boat,boat,c50,0233_cop_s04_c50_boat_10_n03662601_28046.png
subject-04,1,234,1.42411017417908,truck,truck,c30,0234_cop_s04_c30_truck_10_n03796401_3012.png
subject-04,1,235,0.584052085876465,oven,oven,c100,0235_cop_s04_c100_oven_10_n04111531_9411.png
subject-04,1,236,0.729875802993774,knife,knife,c100,0236_cop_s04_c100_knife_10_n03041632_7279.png
subject-04,1,237,0.677643060684204,keyboard,keyboard,c30,0237_cop_s04_c30_keyboard_10_n03085013_24103.png
subject-04,1,238,0.541336059570312,boat,boat,c15,0238_cop_s04_c15_boat_10_n03662601_6289.png
subject-04,1,239,0.769333124160767,bird,clock,c01,0239_cop_s04_c01_clock_10_n02708093_7929.png
subject-04,1,240,0.535041093826294,clock,clock,c100,0240_cop_s04_c100_clock_10_n04548280_7539.png
subject-04,1,241,0.684371948242188,bottle,bottle,c50,0241_cop_s04_c50_bottle_10_n03937543_8197.png
subject-04,1,242,0.530332088470459,oven,bear,c03,0242_cop_s04_c03_bear_10_n02134084_6840.png
subject-04,1,243,0.558021068572998,cat,keyboard,c01,0243_cop_s04_c01_keyboard_10_n04505470_2787.png
subject-04,1,244,0.616062879562378,airplane,airplane,c10,0244_cop_s04_c10_airplane_10_n02690373_9642.png
subject-04,1,245,0.701740980148315,boat,boat,c03,0245_cop_s04_c03_boat_10_n03662601_6462.png
subject-04,1,246,0.511425971984863,clock,clock,c15,0246_cop_s04_c15_clock_10_n02708093_5429.png
subject-04,1,247,1.20343589782715,chair,car,c10,0247_cop_s04_c10_car_10_n03100240_2108.png
subject-04,1,248,0.595037937164307,boat,boat,c30,0248_cop_s04_c30_boat_10_n04273569_3085.png
subject-04,1,249,0.528842926025391,oven,oven,c100,0249_cop_s04_c100_oven_10_n04111531_9113.png
subject-04,1,250,0.524622917175293,clock,clock,c30,0250_cop_s04_c30_clock_10_n03196217_4537.png
subject-04,1,251,0.59642505645752,oven,oven,c50,0251_cop_s04_c50_oven_10_n04111531_7064.png
subject-04,1,252,0.726629018783569,bear,truck,c01,0252_cop_s04_c01_truck_10_n03796401_2226.png
subject-04,1,253,0.518224954605103,boat,boat,c50,0253_cop_s04_c50_boat_10_n02951358_22332.png
subject-04,1,254,0.565927028656006,cat,chair,c01,0254_cop_s04_c01_chair_10_n03376595_6173.png
subject-04,1,255,0.545918941497803,oven,car,c03,0255_cop_s04_c03_car_10_n04285008_1453.png
subject-04,1,256,0.783667087554932,bird,elephant,c01,0256_cop_s04_c01_elephant_10_n02504458_4137.png
subject-04,1,257,0.607352018356323,clock,dog,c05,0257_cop_s04_c05_dog_10_n02105162_8899.png
subject-04,1,258,0.557249069213867,cat,car,c01,0258_cop_s04_c01_car_10_n02814533_83665.png
subject-04,1,259,0.611156940460205,truck,truck,c100,0259_cop_s04_c100_truck_10_n03417042_7365.png
subject-04,1,260,0.708810806274414,bottle,elephant,c03,0260_cop_s04_c03_elephant_10_n02504458_1328.png
subject-04,1,261,0.744952917098999,keyboard,keyboard,c03,0261_cop_s04_c03_keyboard_10_n04505470_4797.png
subject-04,1,262,0.71644401550293,boat,dog,c03,0262_cop_s04_c03_dog_10_n02102480_7875.png
subject-04,1,263,1.1062490940094,bear,bottle,c01,0263_cop_s04_c01_bottle_10_n02823428_8696.png
subject-04,1,264,0.544106006622314,bicycle,bicycle,c30,0264_cop_s04_c30_bicycle_10_n03792782_2628.png
subject-04,1,265,0.836035966873169,bird,bicycle,c05,0265_cop_s04_c05_bicycle_10_n03792782_5284.png
subject-04,1,266,0.637666940689087,chair,chair,c03,0266_cop_s04_c03_chair_10_n04099969_3536.png
subject-04,1,267,0.539533138275146,cat,knife,c03,0267_cop_s04_c03_knife_10_n03041632_36390.png
subject-04,1,268,0.611276865005493,boat,keyboard,c05,0268_cop_s04_c05_keyboard_10_n03085013_2227.png
subject-04,1,269,0.87316107749939,bottle,truck,c03,0269_cop_s04_c03_truck_10_n04467665_276.png
subject-04,1,270,0.546917915344238,cat,bird,c03,0270_cop_s04_c03_bird_10_n02017213_689.png
subject-04,1,271,0.488617897033691,clock,clock,c100,0271_cop_s04_c100_clock_10_n03196217_4947.png
subject-04,1,272,0.582541942596436,oven,airplane,c01,0272_cop_s04_c01_airplane_10_n02690373_13591.png
subject-04,1,273,0.600320816040039,cat,truck,c01,0273_cop_s04_c01_truck_10_n03417042_17645.png
subject-04,1,274,0.644207954406738,chair,chair,c50,0274_cop_s04_c50_chair_10_n04429376_15534.png
subject-04,1,275,0.459847927093506,cat,cat,c50,0275_cop_s04_c50_cat_10_n02123597_13272.png
subject-04,1,276,0.525893926620483,boat,boat,c30,0276_cop_s04_c30_boat_10_n04612504_14669.png
subject-04,1,277,0.657710075378418,boat,boat,c50,0277_cop_s04_c50_boat_10_n04273569_4380.png
subject-04,1,278,0.755647897720337,clock,bottle,c01,0278_cop_s04_c01_bottle_10_n04591713_5364.png
subject-04,1,279,1.26543283462524,bird,airplane,c10,0279_cop_s04_c10_airplane_10_n02690373_8804.png
subject-04,1,280,0.831243991851807,knife,bottle,c01,0280_cop_s04_c01_bottle_10_n04560804_24166.png
subject-04,1,281,0.791056871414185,bicycle,boat,c01,0281_cop_s04_c01_boat_10_n04273569_1288.png
subject-04,1,282,0.636662006378174,bear,dog,c50,0282_cop_s04_c50_dog_10_n02105056_951.png
subject-04,1,283,0.622524976730347,bear,bear,c30,0283_cop_s04_c30_bear_10_n02134418_4717.png
subject-04,1,284,0.688353061676025,car,chair,c03,0284_cop_s04_c03_chair_10_n04099969_27865.png
subject-04,1,285,1.49999284744263,car,oven,c05,0285_cop_s04_c05_oven_10_n04111531_13822.png
subject-04,1,286,0.774014949798584,keyboard,keyboard,c10,0286_cop_s04_c10_keyboard_10_n03085013_16359.png
subject-04,1,287,0.695723056793213,chair,chair,c05,0287_cop_s04_c05_chair_10_n02791124_3531.png
subject-04,1,288,0.813537120819092,car,car,c03,0288_cop_s04_c03_car_10_n02814533_33602.png
subject-04,1,289,0.68958592414856,bear,bear,c50,0289_cop_s04_c50_bear_10_n02134084_7250.png
subject-04,1,290,0.787398099899292,bottle,dog,c01,0290_cop_s04_c01_dog_10_n02104365_1123.png
subject-04,1,291,0.516909122467041,boat,oven,c10,0291_cop_s04_c10_oven_10_n04111531_14279.png
subject-04,1,292,0.656775951385498,bird,boat,c03,0292_cop_s04_c03_boat_10_n04612504_15061.png
subject-04,1,293,0.950814962387085,truck,truck,c10,0293_cop_s04_c10_truck_10_n03417042_5604.png
subject-04,1,294,0.578481912612915,boat,boat,c05,0294_cop_s04_c05_boat_10_n04273569_7312.png
subject-04,1,295,0.564206123352051,bird,bird,c100,0295_cop_s04_c100_bird_10_n01616318_5417.png
subject-04,1,296,0.624009132385254,bottle,chair,c03,0296_cop_s04_c03_chair_10_n04099969_3804.png
subject-04,1,297,0.698366165161133,elephant,elephant,c50,0297_cop_s04_c50_elephant_10_n02504458_4580.png
subject-04,1,298,0.605844974517822,clock,knife,c30,0298_cop_s04_c30_knife_10_n03041632_7380.png
subject-04,1,299,0.703579902648926,cat,clock,c05,0299_cop_s04_c05_clock_10_n02708093_4391.png
subject-04,1,300,0.691274166107178,bottle,bear,c01,0300_cop_s04_c01_bear_10_n02133161_9134.png
subject-04,1,301,0.755189895629883,chair,chair,c05,0301_cop_s04_c05_chair_10_n02791124_5995.png
subject-04,1,302,0.828999042510986,boat,clock,c50,0302_cop_s04_c50_clock_10_n02708093_7081.png
subject-04,1,303,0.734782934188843,airplane,airplane,c50,0303_cop_s04_c50_airplane_10_n02690373_1350.png
subject-04,1,304,0.762540102005005,bicycle,boat,c03,0304_cop_s04_c03_boat_10_n03662601_18803.png
subject-04,1,305,0.828717947006226,elephant,elephant,c30,0305_cop_s04_c30_elephant_10_n02504458_3409.png
subject-04,1,306,0.816304206848145,knife,knife,c10,0306_cop_s04_c10_knife_10_n03041632_11741.png
subject-04,1,307,0.726216077804565,car,bear,c03,0307_cop_s04_c03_bear_10_n02134084_3345.png
subject-04,1,308,0.759855031967163,bird,bicycle,c01,0308_cop_s04_c01_bicycle_10_n02835271_1505.png
subject-04,1,309,0.791574954986572,dog,dog,c10,0309_cop_s04_c10_dog_10_n02109961_14816.png
subject-04,1,310,1.36331701278687,chair,truck,c30,0310_cop_s04_c30_truck_10_n03796401_7699.png
subject-04,1,311,0.623247146606445,keyboard,keyboard,c50,0311_cop_s04_c50_keyboard_10_n03085013_20682.png
subject-04,1,312,0.745133876800537,airplane,airplane,c05,0312_cop_s04_c05_airplane_10_n02690373_6114.png
subject-04,1,313,0.827240943908691,bear,bear,c15,0313_cop_s04_c15_bear_10_n02134084_24140.png
subject-04,1,314,0.83077597618103,keyboard,bottle,c15,0314_cop_s04_c15_bottle_10_n04557648_2709.png
subject-04,1,315,0.762881994247437,bicycle,bicycle,c50,0315_cop_s04_c50_bicycle_10_n03792782_4826.png
subject-04,1,316,0.578465938568115,car,car,c100,0316_cop_s04_c100_car_10_n03100240_15647.png
subject-04,1,317,0.692583084106445,chair,oven,c30,0317_cop_s04_c30_oven_10_n04111531_10710.png
subject-04,1,318,0.648299932479858,cat,cat,c50,0318_cop_s04_c50_cat_10_n02123045_455.png
subject-04,1,319,0.706110954284668,boat,dog,c01,0319_cop_s04_c01_dog_10_n02107908_12294.png
subject-04,1,320,0.779545068740845,bicycle,chair,c03,0320_cop_s04_c03_chair_10_n02791124_3245.png
subject-04,1,321,0.676772117614746,cat,knife,c03,0321_cop_s04_c03_knife_10_n03041632_48151.png
subject-04,1,322,0.63055682182312,chair,chair,c15,0322_cop_s04_c15_chair_10_n04429376_16378.png
subject-04,1,323,0.754589080810547,clock,clock,c30,0323_cop_s04_c30_clock_10_n03196217_3877.png
subject-04,1,324,0.656200885772705,cat,cat,c100,0324_cop_s04_c100_cat_10_n02123045_9845.png
subject-04,1,325,0.895961999893188,dog,dog,c10,0325_cop_s04_c10_dog_10_n02092339_2268.png
subject-04,1,326,0.563822031021118,bicycle,bicycle,c50,0326_cop_s04_c50_bicycle_10_n03792782_66048.png
subject-04,1,327,0.81964111328125,bicycle,bicycle,c50,0327_cop_s04_c50_bicycle_10_n02835271_3383.png
subject-04,1,328,0.901407957077026,dog,dog,c10,0328_cop_s04_c10_dog_10_n02105251_7686.png
subject-04,1,329,0.531280994415283,chair,chair,c30,0329_cop_s04_c30_chair_10_n03376595_1024.png
subject-04,1,330,0.551405191421509,cat,cat,c50,0330_cop_s04_c50_cat_10_n02124075_10976.png
subject-04,1,331,0.8590087890625,bird,cat,c05,0331_cop_s04_c05_cat_10_n02123159_5487.png
subject-04,1,332,0.5748450756073,bicycle,bicycle,c100,0332_cop_s04_c100_bicycle_10_n02835271_4887.png
subject-04,1,333,0.796609163284302,truck,truck,c100,0333_cop_s04_c100_truck_10_n04467665_27096.png
subject-04,1,334,0.582498073577881,cat,cat,c10,0334_cop_s04_c10_cat_10_n02123159_4856.png
subject-04,1,335,0.77426290512085,bottle,knife,c10,0335_cop_s04_c10_knife_10_n03041632_24646.png
subject-04,1,336,0.754073143005371,clock,boat,c01,0336_cop_s04_c01_boat_10_n04273569_661.png
subject-04,1,337,0.641691923141479,boat,cat,c01,0337_cop_s04_c01_cat_10_n02123045_6066.png
subject-04,1,338,0.584131002426147,bird,bird,c50,0338_cop_s04_c50_bird_10_n01560419_6583.png
subject-04,1,339,0.721503973007202,oven,cat,c03,0339_cop_s04_c03_cat_10_n02124075_2751.png
subject-04,1,340,0.81519889831543,bird,bottle,c10,0340_cop_s04_c10_bottle_10_n03937543_2494.png
subject-04,1,341,0.983108997344971,boat,boat,c05,0341_cop_s04_c05_boat_10_n03344393_5636.png
subject-04,1,342,1.50002717971802,bear,car,c05,0342_cop_s04_c05_car_10_n02814533_4491.png
subject-04,1,343,0.636723041534424,bear,bear,c15,0343_cop_s04_c15_bear_10_n02132136_6352.png
subject-04,1,344,0.654640197753906,elephant,elephant,c100,0344_cop_s04_c100_elephant_10_n02504458_8615.png
subject-04,1,345,0.556364059448242,boat,boat,c50,0345_cop_s04_c50_boat_10_n03662601_12226.png
subject-04,1,346,0.630035877227783,bottle,bottle,c15,0346_cop_s04_c15_bottle_10_n03937543_3726.png
subject-04,1,347,1.50011897087097,bottle,bicycle,c50,0347_cop_s04_c50_bicycle_10_n03792782_15138.png
subject-04,1,348,0.97973108291626,car,clock,c01,0348_cop_s04_c01_clock_10_n02708093_2318.png
subject-04,1,349,0.561458110809326,chair,chair,c100,0349_cop_s04_c100_chair_10_n04099969_28072.png
subject-04,1,350,0.635694026947021,cat,cat,c15,0350_cop_s04_c15_cat_10_n02125311_17613.png
subject-04,1,351,0.625436782836914,clock,clock,c05,0351_cop_s04_c05_clock_10_n04548280_2559.png
subject-04,1,352,0.747035980224609,truck,truck,c10,0352_cop_s04_c10_truck_10_n04467665_53339.png
subject-04,1,353,0.89703106880188,car,boat,c03,0353_cop_s04_c03_boat_10_n02951358_15072.png
subject-04,1,354,0.690753936767578,dog,dog,c15,0354_cop_s04_c15_dog_10_n02090379_4952.png
subject-04,1,355,0.54658317565918,boat,chair,c10,0355_cop_s04_c10_chair_10_n02791124_880.png
subject-04,1,356,0.67622709274292,chair,chair,c10,0356_cop_s04_c10_chair_10_n04429376_4391.png
subject-04,1,357,1.22011399269104,bird,bottle,c03,0357_cop_s04_c03_bottle_10_n03983396_7378.png
subject-04,1,358,0.989974021911621,airplane,car,c01,0358_cop_s04_c01_car_10_n03100240_17587.png
subject-04,1,359,0.832159996032715,bottle,truck,c30,0359_cop_s04_c30_truck_10_n03796401_15097.png
subject-04,1,360,0.803661108016968,knife,knife,c30,0360_cop_s04_c30_knife_10_n03041632_44269.png
subject-04,1,361,0.519454956054688,cat,cat,c10,0361_cop_s04_c10_cat_10_n02125311_32129.png
subject-04,1,362,0.649528980255127,bird,car,c03,0362_cop_s04_c03_car_10_n04285008_7950.png
subject-04,1,363,0.747073173522949,bird,bird,c10,0363_cop_s04_c10_bird_10_n01622779_684.png
subject-04,1,364,0.736708164215088,truck,truck,c15,0364_cop_s04_c15_truck_10_n03796401_14189.png
subject-04,1,365,0.850543022155762,truck,truck,c15,0365_cop_s04_c15_truck_10_n04467665_39477.png
subject-04,1,366,0.838537931442261,bird,bird,c50,0366_cop_s04_c50_bird_10_n02033041_6046.png
subject-04,1,367,1.26623892784119,car,boat,c100,0367_cop_s04_c100_boat_10_n02951358_3087.png
subject-04,1,368,0.742067098617554,truck,truck,c05,0368_cop_s04_c05_truck_10_n04467665_70237.png
subject-04,1,369,0.635907888412476,bird,bird,c100,0369_cop_s04_c100_bird_10_n02025239_10194.png
subject-04,1,370,0.729942798614502,bottle,cat,c01,0370_cop_s04_c01_cat_10_n02123045_7334.png
subject-04,1,371,0.739317893981934,keyboard,keyboard,c05,0371_cop_s04_c05_keyboard_10_n04505470_3207.png
subject-04,1,372,0.693377017974854,chair,chair,c100,0372_cop_s04_c100_chair_10_n04099969_1490.png
subject-04,1,373,0.657037019729614,cat,clock,c01,0373_cop_s04_c01_clock_10_n04548280_1325.png
subject-04,1,374,0.814791917800903,dog,keyboard,c01,0374_cop_s04_c01_keyboard_10_n04505470_763.png
subject-04,1,375,0.850697040557861,dog,dog,c15,0375_cop_s04_c15_dog_10_n02094114_8231.png
subject-04,1,376,0.718700170516968,cat,cat,c15,0376_cop_s04_c15_cat_10_n02123159_7607.png
subject-04,1,377,0.74641489982605,car,bicycle,c01,0377_cop_s04_c01_bicycle_10_n02835271_5437.png
subject-04,1,378,0.656291961669922,airplane,airplane,c03,0378_cop_s04_c03_airplane_10_n02690373_13604.png
subject-04,1,379,0.744064807891846,bird,bird,c50,0379_cop_s04_c50_bird_10_n01616318_603.png
subject-04,1,380,0.858170032501221,chair,chair,c05,0380_cop_s04_c05_chair_10_n02791124_4296.png
subject-04,1,381,0.807760000228882,dog,bear,c100,0381_cop_s04_c100_bear_10_n02134084_19791.png
subject-04,1,382,0.649432897567749,bear,bicycle,c01,0382_cop_s04_c01_bicycle_10_n03792782_19053.png
subject-04,1,383,0.845157146453857,keyboard,keyboard,c03,0383_cop_s04_c03_keyboard_10_n04505470_432.png
subject-04,1,384,0.738924980163574,keyboard,keyboard,c50,0384_cop_s04_c50_keyboard_10_n03085013_19161.png
subject-04,1,385,0.686792135238647,bird,bird,c15,0385_cop_s04_c15_bird_10_n02027492_4900.png
subject-04,1,386,0.636599779129028,bird,bird,c10,0386_cop_s04_c10_bird_10_n01843065_4020.png
subject-04,1,387,1.12651205062866,car,clock,c50,0387_cop_s04_c50_clock_10_n02708093_404.png
subject-04,1,388,0.952260971069336,knife,keyboard,c03,0388_cop_s04_c03_keyboard_10_n03085013_24306.png
subject-04,1,389,0.674166202545166,bicycle,bicycle,c50,0389_cop_s04_c50_bicycle_10_n02835271_7958.png
subject-04,1,390,0.700252056121826,bear,car,c01,0390_cop_s04_c01_car_10_n04285008_4868.png
subject-04,1,391,0.747698068618774,chair,bottle,c01,0391_cop_s04_c01_bottle_10_n03937543_986.png
subject-04,1,392,0.757629156112671,bird,dog,c05,0392_cop_s04_c05_dog_10_n02108422_4529.png
subject-04,1,393,0.687461137771606,chair,chair,c15,0393_cop_s04_c15_chair_10_n03376595_9482.png
subject-04,1,394,0.887123107910156,elephant,cat,c05,0394_cop_s04_c05_cat_10_n02123159_6590.png
subject-04,1,395,1.41886687278748,bird,knife,c01,0395_cop_s04_c01_knife_10_n03041632_50332.png
subject-04,1,396,0.615139961242676,dog,dog,c100,0396_cop_s04_c100_dog_10_n02104029_4704.png
subject-04,1,397,0.656617164611816,bear,airplane,c03,0397_cop_s04_c03_airplane_10_n02690373_12929.png
subject-04,1,398,1.32642793655396,bear,bear,c15,0398_cop_s04_c15_bear_10_n02134084_1689.png
subject-04,1,399,0.59620213508606,cat,oven,c30,0399_cop_s04_c30_oven_10_n04111531_4331.png
subject-04,1,400,0.763932943344116,bicycle,bicycle,c05,0400_cop_s04_c05_bicycle_10_n03792782_19774.png
subject-04,1,401,0.813377141952515,airplane,airplane,c30,0401_cop_s04_c30_airplane_10_n02690373_5247.png
subject-04,1,402,0.629424095153809,bottle,bottle,c50,0402_cop_s04_c50_bottle_10_n04557648_10265.png
subject-04,1,403,0.743067026138306,chair,cat,c01,0403_cop_s04_c01_cat_10_n02124075_13792.png
subject-04,1,404,0.598814010620117,bird,bicycle,c03,0404_cop_s04_c03_bicycle_10_n02835271_3832.png
subject-04,1,405,0.61891508102417,bottle,bottle,c30,0405_cop_s04_c30_bottle_10_n02823428_4468.png
subject-04,1,406,0.700549125671387,dog,dog,c10,0406_cop_s04_c10_dog_10_n02108422_9533.png
subject-04,1,407,0.454463005065918,clock,clock,c15,0407_cop_s04_c15_clock_10_n02708093_118.png
subject-04,1,408,0.80604100227356,bottle,dog,c100,0408_cop_s04_c100_dog_10_n02107312_7422.png
subject-04,1,409,1.31019401550293,chair,knife,c10,0409_cop_s04_c10_knife_10_n03041632_31037.png
subject-04,1,410,0.681824922561646,airplane,airplane,c50,0410_cop_s04_c50_airplane_10_n02690373_4964.png
subject-04,1,411,0.727481126785278,bird,bottle,c05,0411_cop_s04_c05_bottle_10_n03937543_6014.png
subject-04,1,412,0.591254949569702,bottle,elephant,c50,0412_cop_s04_c50_elephant_10_n02504013_4278.png
subject-04,1,413,0.60361385345459,bicycle,chair,c03,0413_cop_s04_c03_chair_10_n02791124_5868.png
subject-04,1,414,0.633310079574585,boat,chair,c03,0414_cop_s04_c03_chair_10_n04099969_2610.png
subject-04,1,415,0.586845874786377,keyboard,keyboard,c100,0415_cop_s04_c100_keyboard_10_n04505470_375.png
subject-04,1,416,0.638542175292969,bird,bird,c15,0416_cop_s04_c15_bird_10_n02009229_6149.png
subject-04,1,417,0.726433038711548,bird,bird,c15,0417_cop_s04_c15_bird_10_n02009229_4224.png
subject-04,1,418,0.574172973632812,boat,boat,c100,0418_cop_s04_c100_boat_10_n03344393_646.png
subject-04,1,419,0.648283004760742,airplane,airplane,c05,0419_cop_s04_c05_airplane_10_n02690373_4945.png
subject-04,1,420,0.598027944564819,clock,clock,c50,0420_cop_s04_c50_clock_10_n02708093_616.png
subject-04,1,421,0.723866939544678,chair,keyboard,c10,0421_cop_s04_c10_keyboard_10_n03085013_30073.png
subject-04,1,422,0.557394981384277,bird,bird,c100,0422_cop_s04_c100_bird_10_n01530575_34173.png
subject-04,1,423,0.499342918395996,boat,boat,c100,0423_cop_s04_c100_boat_10_n03662601_11901.png
subject-04,1,424,0.909195184707642,truck,truck,c30,0424_cop_s04_c30_truck_10_n03417042_3659.png
subject-04,1,425,0.685073137283325,bicycle,knife,c01,0425_cop_s04_c01_knife_10_n03041632_18126.png
subject-04,1,426,0.660942792892456,airplane,airplane,c100,0426_cop_s04_c100_airplane_10_n02690373_139.png
subject-04,1,427,0.884767055511475,elephant,elephant,c10,0427_cop_s04_c10_elephant_10_n02504458_4997.png
subject-04,1,428,0.630226850509644,truck,truck,c30,0428_cop_s04_c30_truck_10_n03417042_26885.png
subject-04,1,429,0.628130912780762,bicycle,bicycle,c100,0429_cop_s04_c100_bicycle_10_n02835271_22549.png
subject-04,1,430,0.679917097091675,bear,bear,c10,0430_cop_s04_c10_bear_10_n02133161_12045.png
subject-04,1,431,0.739863872528076,bottle,chair,c01,0431_cop_s04_c01_chair_10_n03376595_9603.png
subject-04,1,432,0.751612901687622,bicycle,bicycle,c10,0432_cop_s04_c10_bicycle_10_n02835271_19143.png
subject-04,1,433,0.763438940048218,chair,chair,c50,0433_cop_s04_c50_chair_10_n04099969_48172.png
subject-04,1,434,0.745350122451782,bear,bear,c100,0434_cop_s04_c100_bear_10_n02132136_10833.png
subject-04,1,435,0.61513090133667,chair,chair,c10,0435_cop_s04_c10_chair_10_n04429376_56624.png
subject-04,1,436,0.546737909317017,bear,bear,c50,0436_cop_s04_c50_bear_10_n02132136_27823.png
subject-04,1,437,0.800879955291748,bicycle,bicycle,c15,0437_cop_s04_c15_bicycle_10_n03792782_7331.png
subject-04,1,438,0.563024044036865,cat,cat,c15,0438_cop_s04_c15_cat_10_n02125311_24985.png
subject-04,1,439,0.566341161727905,cat,cat,c100,0439_cop_s04_c100_cat_10_n02123045_9583.png
subject-04,1,440,0.70202898979187,keyboard,keyboard,c03,0440_cop_s04_c03_keyboard_10_n03085013_29941.png
subject-04,1,441,0.550331115722656,oven,oven,c50,0441_cop_s04_c50_oven_10_n04111531_4963.png
subject-04,1,442,0.585752964019775,airplane,airplane,c30,0442_cop_s04_c30_airplane_10_n02690373_8789.png
subject-04,1,443,0.643516063690186,elephant,elephant,c30,0443_cop_s04_c30_elephant_10_n02504013_5237.png
subject-04,1,444,0.765239953994751,bottle,bird,c01,0444_cop_s04_c01_bird_10_n02017213_2183.png
subject-04,1,445,0.571316003799438,bicycle,bicycle,c30,0445_cop_s04_c30_bicycle_10_n03792782_19253.png
subject-04,1,446,0.756922006607056,car,truck,c50,0446_cop_s04_c50_truck_10_n03796401_296.png
subject-04,1,447,0.820751905441284,elephant,elephant,c30,0447_cop_s04_c30_elephant_10_n02504458_5055.png
subject-04,1,448,1.3027400970459,bear,bear,c30,0448_cop_s04_c30_bear_10_n02134418_76.png
subject-04,1,449,0.722665071487427,oven,oven,c50,0449_cop_s04_c50_oven_10_n04111531_8658.png
subject-04,1,450,0.634269952774048,oven,oven,c100,0450_cop_s04_c100_oven_10_n04111531_2350.png
subject-04,1,451,0.743991136550903,bear,bear,c10,0451_cop_s04_c10_bear_10_n02133161_14945.png
subject-04,1,452,0.630248785018921,bottle,bottle,c100,0452_cop_s04_c100_bottle_10_n04560804_23390.png
subject-04,1,453,0.467576026916504,clock,clock,c100,0453_cop_s04_c100_clock_10_n03196217_9197.png
subject-04,1,454,0.527855157852173,oven,oven,c100,0454_cop_s04_c100_oven_10_n04111531_6536.png
subject-04,1,455,0.539236068725586,cat,cat,c50,0455_cop_s04_c50_cat_10_n02123159_6132.png
subject-04,1,456,0.591495990753174,boat,boat,c100,0456_cop_s04_c100_boat_10_n03344393_1131.png
subject-04,1,457,0.815126895904541,car,cat,c01,0457_cop_s04_c01_cat_10_n02123597_23389.png
subject-04,1,458,0.59895396232605,bottle,knife,c01,0458_cop_s04_c01_knife_10_n03041632_8666.png
subject-04,1,459,0.61261510848999,oven,oven,c05,0459_cop_s04_c05_oven_10_n04111531_9297.png
subject-04,1,460,1.48464512825012,clock,chair,c50,0460_cop_s04_c50_chair_10_n03376595_13018.png
subject-04,1,461,0.790481090545654,cat,cat,c03,0461_cop_s04_c03_cat_10_n02123394_4164.png
subject-04,1,462,0.648036003112793,bottle,knife,c05,0462_cop_s04_c05_knife_10_n03041632_30602.png
subject-04,1,463,0.580013990402222,car,car,c10,0463_cop_s04_c10_car_10_n03100240_3373.png
subject-04,1,464,0.715633153915405,dog,dog,c50,0464_cop_s04_c50_dog_10_n02113023_4391.png
subject-04,1,465,0.663718938827515,keyboard,cat,c03,0465_cop_s04_c03_cat_10_n02124075_11759.png
subject-04,1,466,0.79326605796814,airplane,airplane,c15,0466_cop_s04_c15_airplane_10_n02690373_379.png
subject-04,1,467,0.679090023040771,chair,chair,c30,0467_cop_s04_c30_chair_10_n02791124_3850.png
subject-04,1,468,0.979034900665283,bottle,elephant,c10,0468_cop_s04_c10_elephant_10_n02504013_2128.png
subject-04,1,469,0.647166967391968,airplane,airplane,c10,0469_cop_s04_c10_airplane_10_n02690373_7408.png
subject-04,1,470,1.08044505119324,knife,dog,c05,0470_cop_s04_c05_dog_10_n02099849_6384.png
subject-04,1,471,0.640576839447021,airplane,airplane,c100,0471_cop_s04_c100_airplane_10_n02690373_2268.png
subject-04,1,472,0.576143026351929,car,car,c100,0472_cop_s04_c100_car_10_n03100240_5569.png
subject-04,1,473,0.768396139144897,dog,airplane,c03,0473_cop_s04_c03_airplane_10_n02690373_10006.png
subject-04,1,474,0.757844209671021,chair,chair,c15,0474_cop_s04_c15_chair_10_n02791124_11404.png
subject-04,1,475,0.8196120262146,truck,truck,c05,0475_cop_s04_c05_truck_10_n04467665_8955.png
subject-04,1,476,0.567456960678101,oven,oven,c30,0476_cop_s04_c30_oven_10_n04111531_9692.png
subject-04,1,477,0.743219137191772,bottle,elephant,c01,0477_cop_s04_c01_elephant_10_n02504013_7351.png
subject-04,1,478,0.625218868255615,keyboard,keyboard,c100,0478_cop_s04_c100_keyboard_10_n03085013_19065.png
subject-04,1,479,0.542829990386963,cat,cat,c10,0479_cop_s04_c10_cat_10_n02123159_5945.png
subject-04,1,480,0.642770051956177,bird,bird,c03,0480_cop_s04_c03_bird_10_n02025239_660.png
subject-04,1,481,0.690113067626953,keyboard,knife,c30,0481_cop_s04_c30_knife_10_n03041632_30565.png
subject-04,1,482,0.584084033966064,oven,bear,c05,0482_cop_s04_c05_bear_10_n02134084_13014.png
subject-04,1,483,1.00378608703613,airplane,airplane,c30,0483_cop_s04_c30_airplane_10_n02690373_12984.png
subject-04,1,484,0.695873975753784,elephant,elephant,c15,0484_cop_s04_c15_elephant_10_n02504458_8936.png
subject-04,1,485,0.515764951705933,cat,truck,c01,0485_cop_s04_c01_truck_10_n03796401_15046.png
subject-04,1,486,0.675382137298584,airplane,airplane,c30,0486_cop_s04_c30_airplane_10_n02690373_5146.png
subject-04,1,487,0.605034828186035,oven,keyboard,c01,0487_cop_s04_c01_keyboard_10_n03085013_23005.png
subject-04,1,488,0.586816072463989,clock,clock,c30,0488_cop_s04_c30_clock_10_n03196217_6814.png
subject-04,1,489,0.7169189453125,car,car,c05,0489_cop_s04_c05_car_10_n04285008_3891.png
subject-04,1,490,0.660683870315552,dog,dog,c50,0490_cop_s04_c50_dog_10_n02087046_4421.png
subject-04,1,491,0.578271865844727,boat,bicycle,c05,0491_cop_s04_c05_bicycle_10_n03792782_18294.png
subject-04,1,492,0.702179908752441,keyboard,keyboard,c10,0492_cop_s04_c10_keyboard_10_n03085013_18649.png
subject-04,1,493,0.60391902923584,car,car,c30,0493_cop_s04_c30_car_10_n03100240_3499.png
subject-04,1,494,0.729863882064819,bicycle,bicycle,c30,0494_cop_s04_c30_bicycle_10_n03792782_5426.png
subject-04,1,495,0.639702081680298,clock,clock,c30,0495_cop_s04_c30_clock_10_n04548280_1960.png
subject-04,1,496,0.601442098617554,bottle,keyboard,c01,0496_cop_s04_c01_keyboard_10_n04505470_4440.png
subject-04,1,497,0.531201124191284,cat,cat,c100,0497_cop_s04_c100_cat_10_n02125311_21377.png
subject-04,1,498,0.618817806243896,car,car,c30,0498_cop_s04_c30_car_10_n03100240_17245.png
subject-04,1,499,0.732994079589844,airplane,airplane,c100,0499_cop_s04_c100_airplane_10_n02690373_9322.png
subject-04,1,500,0.730636835098267,airplane,airplane,c100,0500_cop_s04_c100_airplane_10_n02690373_736.png
subject-04,1,501,0.666481018066406,bicycle,bicycle,c10,0501_cop_s04_c10_bicycle_10_n02835271_3529.png
subject-04,1,502,0.812467813491821,keyboard,keyboard,c50,0502_cop_s04_c50_keyboard_10_n03085013_18907.png
subject-04,1,503,0.634430170059204,bird,truck,c01,0503_cop_s04_c01_truck_10_n03417042_908.png
subject-04,1,504,0.600332975387573,cat,bird,c03,0504_cop_s04_c03_bird_10_n01592084_5936.png
subject-04,1,505,0.649733066558838,bear,bear,c30,0505_cop_s04_c30_bear_10_n02134084_10839.png
subject-04,1,506,0.857547998428345,bicycle,boat,c10,0506_cop_s04_c10_boat_10_n04273569_10292.png
subject-04,1,507,0.585391044616699,clock,clock,c30,0507_cop_s04_c30_clock_10_n03196217_3780.png
subject-04,1,508,0.527543067932129,cat,bear,c03,0508_cop_s04_c03_bear_10_n02133161_10024.png
subject-04,1,509,0.679162979125977,truck,truck,c05,0509_cop_s04_c05_truck_10_n04467665_11609.png
subject-04,1,510,0.790968894958496,chair,chair,c30,0510_cop_s04_c30_chair_10_n04429376_9000.png
subject-04,1,511,0.708488941192627,bird,bird,c30,0511_cop_s04_c30_bird_10_n01843383_296.png
subject-04,1,512,0.802452087402344,elephant,elephant,c50,0512_cop_s04_c50_elephant_10_n02504458_3182.png
subject-04,1,513,0.596292972564697,boat,knife,c03,0513_cop_s04_c03_knife_10_n03041632_25479.png
subject-04,1,514,0.590282917022705,elephant,elephant,c100,0514_cop_s04_c100_elephant_10_n02504013_7248.png
subject-04,1,515,0.785794019699097,bird,bird,c100,0515_cop_s04_c100_bird_10_n02028035_15091.png
subject-04,1,516,0.760083913803101,chair,chair,c10,0516_cop_s04_c10_chair_10_n04429376_30621.png
subject-04,1,517,0.629611015319824,truck,truck,c30,0517_cop_s04_c30_truck_10_n04467665_2199.png
subject-04,1,518,1.32315397262573,bottle,bird,c03,0518_cop_s04_c03_bird_10_n01798484_8189.png
subject-04,1,519,0.647144079208374,knife,knife,c100,0519_cop_s04_c100_knife_10_n03041632_29037.png
subject-04,1,520,0.761002063751221,bicycle,bicycle,c100,0520_cop_s04_c100_bicycle_10_n03792782_11297.png
subject-04,1,521,0.532712936401367,cat,cat,c100,0521_cop_s04_c100_cat_10_n02123394_2755.png
subject-04,1,522,0.62243390083313,bottle,knife,c03,0522_cop_s04_c03_knife_10_n03041632_99799.png
subject-04,1,523,0.680428028106689,keyboard,oven,c01,0523_cop_s04_c01_oven_10_n04111531_20953.png
subject-04,1,524,0.556195974349976,bird,bird,c50,0524_cop_s04_c50_bird_10_n01829413_14594.png
subject-04,1,525,0.842016935348511,dog,dog,c100,0525_cop_s04_c100_dog_10_n02091831_4110.png
subject-04,1,526,0.797916889190674,bear,bear,c50,0526_cop_s04_c50_bear_10_n02134084_21462.png
subject-04,1,527,0.747627973556519,airplane,oven,c03,0527_cop_s04_c03_oven_10_n04111531_13795.png
subject-04,1,528,0.607372999191284,bird,knife,c05,0528_cop_s04_c05_knife_10_n03041632_46112.png
subject-04,1,529,0.61316704750061,boat,boat,c30,0529_cop_s04_c30_boat_10_n03344393_4583.png
subject-04,1,530,0.601126909255981,oven,knife,c50,0530_cop_s04_c50_knife_10_n03041632_37274.png
subject-04,1,531,0.903331995010376,oven,bottle,c10,0531_cop_s04_c10_bottle_10_n02823428_721.png
subject-04,1,532,0.602842092514038,bicycle,bear,c03,0532_cop_s04_c03_bear_10_n02132136_10309.png
subject-04,1,533,0.690659999847412,bird,bird,c05,0533_cop_s04_c05_bird_10_n02037110_6736.png
subject-04,1,534,0.606452941894531,car,car,c30,0534_cop_s04_c30_car_10_n02814533_5183.png
subject-04,1,535,0.684021949768066,bottle,oven,c05,0535_cop_s04_c05_oven_10_n04111531_6863.png
subject-04,1,536,0.677973985671997,clock,clock,c15,0536_cop_s04_c15_clock_10_n03196217_2447.png
subject-04,1,537,0.815882921218872,cat,bottle,c05,0537_cop_s04_c05_bottle_10_n04579145_2910.png
subject-04,1,538,0.725581884384155,boat,truck,c05,0538_cop_s04_c05_truck_10_n03796401_21407.png
subject-04,1,539,0.657426118850708,bird,bear,c01,0539_cop_s04_c01_bear_10_n02133161_16808.png
subject-04,1,540,0.55928111076355,bicycle,bicycle,c15,0540_cop_s04_c15_bicycle_10_n03792782_43279.png
subject-04,1,541,0.574980974197388,car,car,c05,0541_cop_s04_c05_car_10_n03100240_9011.png
subject-04,1,542,0.642988920211792,airplane,airplane,c15,0542_cop_s04_c15_airplane_10_n02690373_10181.png
subject-04,1,543,0.660557985305786,bottle,bottle,c50,0543_cop_s04_c50_bottle_10_n03983396_105.png
subject-04,1,544,0.570393085479736,bicycle,knife,c10,0544_cop_s04_c10_knife_10_n03041632_16020.png
subject-04,1,545,0.622570037841797,cat,cat,c15,0545_cop_s04_c15_cat_10_n02123159_1549.png
subject-04,1,546,0.660090923309326,chair,clock,c03,0546_cop_s04_c03_clock_10_n04548280_4286.png
subject-04,1,547,0.588200092315674,oven,bicycle,c05,0547_cop_s04_c05_bicycle_10_n02835271_10104.png
subject-04,1,548,NaN,na,knife,c10,0548_cop_s04_c10_knife_10_n03041632_14916.png
subject-04,1,549,0.749667882919312,dog,dog,c50,0549_cop_s04_c50_dog_10_n02092002_1139.png
subject-04,1,550,0.631504058837891,cat,bear,c10,0550_cop_s04_c10_bear_10_n02133161_546.png
subject-04,1,551,0.518933057785034,cat,cat,c100,0551_cop_s04_c100_cat_10_n02125311_1127.png
subject-04,1,552,0.496948957443237,clock,oven,c01,0552_cop_s04_c01_oven_10_n04111531_797.png
subject-04,1,553,0.635169982910156,car,car,c30,0553_cop_s04_c30_car_10_n03100240_11693.png
subject-04,1,554,0.572502136230469,keyboard,keyboard,c15,0554_cop_s04_c15_keyboard_10_n04505470_5161.png
subject-04,1,555,0.66653299331665,chair,chair,c50,0555_cop_s04_c50_chair_10_n03376595_9247.png
subject-04,1,556,0.584716081619263,chair,chair,c30,0556_cop_s04_c30_chair_10_n04099969_9891.png
subject-04,1,557,0.572027206420898,bottle,boat,c03,0557_cop_s04_c03_boat_10_n02951358_29817.png
subject-04,1,558,0.669973134994507,bottle,oven,c03,0558_cop_s04_c03_oven_10_n04111531_14951.png
subject-04,1,559,0.669895887374878,bicycle,boat,c10,0559_cop_s04_c10_boat_10_n03344393_6638.png
subject-04,1,560,0.603784084320068,airplane,keyboard,c30,0560_cop_s04_c30_keyboard_10_n03085013_18945.png
subject-04,1,561,0.661964893341064,boat,dog,c01,0561_cop_s04_c01_dog_10_n02090622_1126.png
subject-04,1,562,0.870260000228882,bear,dog,c30,0562_cop_s04_c30_dog_10_n02107312_860.png
subject-04,1,563,0.701746940612793,bottle,bottle,c10,0563_cop_s04_c10_bottle_10_n04557648_818.png
subject-04,1,564,0.99780797958374,bottle,clock,c03,0564_cop_s04_c03_clock_10_n02708093_1546.png
subject-04,1,565,0.539284944534302,bicycle,bicycle,c15,0565_cop_s04_c15_bicycle_10_n03792782_13002.png
subject-04,1,566,0.763151884078979,cat,truck,c03,0566_cop_s04_c03_truck_10_n04467665_28988.png
subject-04,1,567,0.709009170532227,truck,truck,c50,0567_cop_s04_c50_truck_10_n04467665_7110.png
subject-04,1,568,0.560647010803223,cat,cat,c01,0568_cop_s04_c01_cat_10_n02123394_7700.png
subject-04,1,569,0.548681020736694,oven,dog,c03,0569_cop_s04_c03_dog_10_n02099429_1992.png
subject-04,1,570,0.748357057571411,chair,boat,c01,0570_cop_s04_c01_boat_10_n04273569_3112.png
subject-04,1,571,0.702184915542603,clock,clock,c15,0571_cop_s04_c15_clock_10_n02708093_6696.png
subject-04,1,572,0.713953018188477,elephant,elephant,c100,0572_cop_s04_c100_elephant_10_n02504458_99.png
subject-04,1,573,0.788116216659546,clock,car,c03,0573_cop_s04_c03_car_10_n04285008_2460.png
subject-04,1,574,0.697543144226074,chair,chair,c10,0574_cop_s04_c10_chair_10_n04099969_10458.png
subject-04,1,575,0.521517992019653,airplane,airplane,c30,0575_cop_s04_c30_airplane_10_n02690373_7004.png
subject-04,1,576,0.583254098892212,bottle,knife,c01,0576_cop_s04_c01_knife_10_n03041632_36235.png
subject-04,1,577,0.625063180923462,chair,chair,c100,0577_cop_s04_c100_chair_10_n03376595_7824.png
subject-04,1,578,1.50004601478577,truck,airplane,c15,0578_cop_s04_c15_airplane_10_n02690373_9712.png
subject-04,1,579,0.844598054885864,truck,truck,c15,0579_cop_s04_c15_truck_10_n04467665_66065.png
subject-04,1,580,0.764632940292358,knife,knife,c100,0580_cop_s04_c100_knife_10_n03041632_35116.png
subject-04,1,581,0.558218955993652,oven,bicycle,c03,0581_cop_s04_c03_bicycle_10_n03792782_12908.png
subject-04,1,582,0.510226964950562,cat,airplane,c01,0582_cop_s04_c01_airplane_10_n02690373_5917.png
subject-04,1,583,0.68586802482605,truck,truck,c15,0583_cop_s04_c15_truck_10_n04467665_80098.png
subject-04,1,584,0.649823904037476,bottle,bird,c01,0584_cop_s04_c01_bird_10_n01601694_10802.png
subject-04,1,585,0.495766878128052,cat,cat,c10,0585_cop_s04_c10_cat_10_n02123597_4357.png
subject-04,1,586,0.585276126861572,clock,oven,c05,0586_cop_s04_c05_oven_10_n04111531_2923.png
subject-04,1,587,0.559151172637939,boat,boat,c10,0587_cop_s04_c10_boat_10_n04612504_2472.png
subject-04,1,588,0.469005107879639,oven,dog,c01,0588_cop_s04_c01_dog_10_n02110627_20194.png
subject-04,1,589,0.664783000946045,bottle,elephant,c01,0589_cop_s04_c01_elephant_10_n02504458_7207.png
subject-04,1,590,0.564751148223877,bird,car,c01,0590_cop_s04_c01_car_10_n02814533_32835.png
subject-04,1,591,0.616739988327026,boat,oven,c03,0591_cop_s04_c03_oven_10_n04111531_1798.png
subject-04,1,592,0.66628098487854,airplane,airplane,c10,0592_cop_s04_c10_airplane_10_n02690373_6549.png
subject-04,1,593,0.874133825302124,airplane,boat,c15,0593_cop_s04_c15_boat_10_n04273569_16295.png
subject-04,1,594,0.559753179550171,clock,clock,c50,0594_cop_s04_c50_clock_10_n03196217_4526.png
subject-04,1,595,1.11980986595154,dog,bird,c10,0595_cop_s04_c10_bird_10_n02018207_9697.png
subject-04,1,596,0.677596092224121,car,car,c50,0596_cop_s04_c50_car_10_n04285008_2483.png
subject-04,1,597,0.5956130027771,bottle,airplane,c01,0597_cop_s04_c01_airplane_10_n02690373_13613.png
subject-04,1,598,0.613251924514771,keyboard,oven,c01,0598_cop_s04_c01_oven_10_n04111531_9963.png
subject-04,1,599,0.580909013748169,bird,bird,c30,0599_cop_s04_c30_bird_10_n02011460_11838.png
subject-04,1,600,0.596667051315308,airplane,airplane,c10,0600_cop_s04_c10_airplane_10_n02690373_6716.png
subject-04,1,601,0.552621841430664,clock,clock,c100,0601_cop_s04_c100_clock_10_n03196217_8618.png
subject-04,1,602,0.65640115737915,truck,truck,c10,0602_cop_s04_c10_truck_10_n03796401_2060.png
subject-04,1,603,0.846192836761475,chair,chair,c30,0603_cop_s04_c30_chair_10_n02791124_7207.png
subject-04,1,604,0.816004991531372,bottle,bottle,c30,0604_cop_s04_c30_bottle_10_n04591713_1652.png
subject-04,1,605,0.803805112838745,keyboard,keyboard,c10,0605_cop_s04_c10_keyboard_10_n04505470_1692.png
subject-04,1,606,0.807476043701172,bottle,bicycle,c03,0606_cop_s04_c03_bicycle_10_n02835271_3841.png
subject-04,1,607,0.569607973098755,keyboard,keyboard,c100,0607_cop_s04_c100_keyboard_10_n03085013_12175.png
subject-04,1,608,0.517579793930054,clock,clock,c30,0608_cop_s04_c30_clock_10_n04548280_8646.png
subject-04,1,609,0.629196882247925,oven,oven,c50,0609_cop_s04_c50_oven_10_n04111531_22388.png
subject-04,1,610,0.685170888900757,truck,truck,c100,0610_cop_s04_c100_truck_10_n03796401_3608.png
subject-04,1,611,1.34666109085083,dog,bear,c10,0611_cop_s04_c10_bear_10_n02134084_1346.png
subject-04,1,612,0.770414113998413,bottle,bear,c01,0612_cop_s04_c01_bear_10_n02133161_789.png
subject-04,1,613,0.454268932342529,boat,elephant,c03,0613_cop_s04_c03_elephant_10_n02504013_3634.png
subject-04,1,614,0.834054946899414,knife,keyboard,c30,0614_cop_s04_c30_keyboard_10_n04505470_4803.png
subject-04,1,615,0.719754934310913,dog,dog,c30,0615_cop_s04_c30_dog_10_n02108422_293.png
subject-04,1,616,0.638051986694336,truck,truck,c30,0616_cop_s04_c30_truck_10_n03417042_5346.png
subject-04,1,617,0.663563013076782,cat,bear,c03,0617_cop_s04_c03_bear_10_n02134084_169.png
subject-04,1,618,0.543437957763672,boat,elephant,c03,0618_cop_s04_c03_elephant_10_n02504013_7467.png
subject-04,1,619,0.503233909606934,clock,bird,c05,0619_cop_s04_c05_bird_10_n01534433_14198.png
subject-04,1,620,0.81923508644104,elephant,bird,c05,0620_cop_s04_c05_bird_10_n01616318_2700.png
subject-04,1,621,0.597003936767578,keyboard,keyboard,c100,0621_cop_s04_c100_keyboard_10_n03085013_21534.png
subject-04,1,622,0.882674932479858,keyboard,bear,c05,0622_cop_s04_c05_bear_10_n02134084_6223.png
subject-04,1,623,0.686534881591797,knife,knife,c50,0623_cop_s04_c50_knife_10_n03041632_39836.png
subject-04,1,624,0.878252983093262,dog,dog,c10,0624_cop_s04_c10_dog_10_n02096294_1043.png
subject-04,1,625,0.760292053222656,bird,bird,c10,0625_cop_s04_c10_bird_10_n01532829_560.png
subject-04,1,626,0.661861896514893,cat,cat,c15,0626_cop_s04_c15_cat_10_n02123159_6624.png
subject-04,1,627,0.643997192382812,chair,chair,c10,0627_cop_s04_c10_chair_10_n04099969_8993.png
subject-04,1,628,0.693693161010742,boat,bottle,c10,0628_cop_s04_c10_bottle_10_n04557648_2904.png
subject-04,1,629,0.51321816444397,cat,cat,c15,0629_cop_s04_c15_cat_10_n02123045_11224.png
subject-04,1,630,0.60300612449646,airplane,airplane,c10,0630_cop_s04_c10_airplane_10_n02690373_2724.png
subject-04,1,631,0.730883836746216,keyboard,keyboard,c100,0631_cop_s04_c100_keyboard_10_n04505470_361.png
subject-04,1,632,0.922976970672607,bear,bear,c03,0632_cop_s04_c03_bear_10_n02133161_14164.png
subject-04,1,633,0.790960788726807,bottle,bicycle,c50,0633_cop_s04_c50_bicycle_10_n02835271_25718.png
subject-04,1,634,0.75434398651123,elephant,elephant,c50,0634_cop_s04_c50_elephant_10_n02504458_2875.png
subject-04,1,635,0.624071836471558,chair,chair,c100,0635_cop_s04_c100_chair_10_n04099969_2502.png
subject-04,1,636,0.792364120483398,elephant,elephant,c05,0636_cop_s04_c05_elephant_10_n02504458_6018.png
subject-04,1,637,0.647881984710693,elephant,elephant,c100,0637_cop_s04_c100_elephant_10_n02504458_5652.png
subject-04,1,638,0.78961706161499,bottle,car,c03,0638_cop_s04_c03_car_10_n04285008_296.png
subject-04,1,639,0.735551834106445,bottle,clock,c05,0639_cop_s04_c05_clock_10_n03196217_127.png
subject-04,1,640,0.54144811630249,car,car,c100,0640_cop_s04_c100_car_10_n03100240_6773.png
subject-04,1,641,0.855134963989258,cat,dog,c03,0641_cop_s04_c03_dog_10_n02113799_653.png
subject-04,1,642,0.789090871810913,dog,bird,c05,0642_cop_s04_c05_bird_10_n02027492_3072.png
subject-04,1,643,0.652799129486084,cat,bear,c03,0643_cop_s04_c03_bear_10_n02134418_12457.png
subject-04,1,644,0.748460054397583,truck,truck,c30,0644_cop_s04_c30_truck_10_n03417042_265.png
subject-04,1,645,0.698135137557983,boat,oven,c05,0645_cop_s04_c05_oven_10_n04111531_2201.png
subject-04,1,646,0.890113115310669,bottle,knife,c05,0646_cop_s04_c05_knife_10_n03041632_96345.png
subject-04,1,647,0.737851142883301,bird,bird,c15,0647_cop_s04_c15_bird_10_n01860187_38598.png
subject-04,1,648,1.07178902626038,bear,cat,c05,0648_cop_s04_c05_cat_10_n02123045_15474.png
subject-04,1,649,0.695463180541992,bear,bear,c30,0649_cop_s04_c30_bear_10_n02132136_915.png
subject-04,1,650,0.609417200088501,bottle,chair,c01,0650_cop_s04_c01_chair_10_n02791124_2773.png
subject-04,1,651,0.739070177078247,chair,bird,c03,0651_cop_s04_c03_bird_10_n01855672_14214.png
subject-04,1,652,0.742918014526367,chair,chair,c50,0652_cop_s04_c50_chair_10_n02791124_2173.png
subject-04,1,653,0.833196878433228,dog,dog,c30,0653_cop_s04_c30_dog_10_n02093991_9672.png
subject-04,1,654,0.631044149398804,bird,bottle,c03,0654_cop_s04_c03_bottle_10_n04579145_2298.png
subject-04,1,655,0.718464136123657,oven,bottle,c30,0655_cop_s04_c30_bottle_10_n04579145_466.png
subject-04,1,656,0.69025707244873,clock,dog,c03,0656_cop_s04_c03_dog_10_n02091467_9499.png
subject-04,1,657,0.664062023162842,chair,chair,c50,0657_cop_s04_c50_chair_10_n02791124_7630.png
subject-04,1,658,0.917762041091919,cat,cat,c05,0658_cop_s04_c05_cat_10_n02123394_8524.png
subject-04,1,659,0.76215386390686,boat,boat,c05,0659_cop_s04_c05_boat_10_n04612504_17854.png
subject-04,1,660,0.625459909439087,cat,cat,c15,0660_cop_s04_c15_cat_10_n02123045_20719.png
subject-04,1,661,0.74734091758728,truck,truck,c10,0661_cop_s04_c10_truck_10_n03417042_7530.png
subject-04,1,662,0.719108104705811,bottle,oven,c03,0662_cop_s04_c03_oven_10_n04111531_1778.png
subject-04,1,663,0.708903789520264,chair,oven,c10,0663_cop_s04_c10_oven_10_n04111531_13006.png
subject-04,1,664,0.916804790496826,bottle,knife,c50,0664_cop_s04_c50_knife_10_n03041632_1006.png
subject-04,1,665,0.564459085464478,cat,cat,c15,0665_cop_s04_c15_cat_10_n02123045_12200.png
subject-04,1,666,0.694353818893433,knife,knife,c50,0666_cop_s04_c50_knife_10_n03041632_41310.png
subject-04,1,667,0.628270864486694,car,car,c30,0667_cop_s04_c30_car_10_n02814533_18148.png
subject-04,1,668,0.726402044296265,bicycle,bicycle,c15,0668_cop_s04_c15_bicycle_10_n03792782_7165.png
subject-04,1,669,0.683973073959351,car,car,c100,0669_cop_s04_c100_car_10_n02814533_26369.png
subject-04,1,670,0.639575958251953,bottle,boat,c01,0670_cop_s04_c01_boat_10_n03344393_8761.png
subject-04,1,671,0.6894690990448,truck,truck,c100,0671_cop_s04_c100_truck_10_n04467665_52762.png
subject-04,1,672,0.603307008743286,bottle,dog,c03,0672_cop_s04_c03_dog_10_n02097474_9129.png
subject-04,1,673,0.807084798812866,knife,knife,c15,0673_cop_s04_c15_knife_10_n03041632_51225.png
subject-04,1,674,0.901014089584351,bicycle,bottle,c15,0674_cop_s04_c15_bottle_10_n04557648_6060.png
subject-04,1,675,0.624737977981567,bicycle,bicycle,c10,0675_cop_s04_c10_bicycle_10_n02835271_12764.png
subject-04,1,676,0.784553050994873,knife,knife,c30,0676_cop_s04_c30_knife_10_n03041632_4808.png
subject-04,1,677,0.696425914764404,dog,dog,c15,0677_cop_s04_c15_dog_10_n02102318_11746.png
subject-04,1,678,0.73003077507019,truck,truck,c03,0678_cop_s04_c03_truck_10_n03796401_4119.png
subject-04,1,679,0.584095001220703,bottle,knife,c03,0679_cop_s04_c03_knife_10_n03041632_31932.png
subject-04,1,680,0.743768930435181,truck,truck,c15,0680_cop_s04_c15_truck_10_n03417042_8654.png
subject-04,1,681,0.739836931228638,keyboard,keyboard,c15,0681_cop_s04_c15_keyboard_10_n04505470_6115.png
subject-04,1,682,0.689336061477661,car,chair,c10,0682_cop_s04_c10_chair_10_n04429376_311.png
subject-04,1,683,0.995368957519531,elephant,elephant,c10,0683_cop_s04_c10_elephant_10_n02504458_7817.png
subject-04,1,684,0.744894027709961,elephant,elephant,c10,0684_cop_s04_c10_elephant_10_n02504013_14948.png
subject-04,1,685,0.623112916946411,airplane,airplane,c100,0685_cop_s04_c100_airplane_10_n02690373_871.png
subject-04,1,686,0.662714958190918,airplane,boat,c50,0686_cop_s04_c50_boat_10_n03662601_20110.png
subject-04,1,687,0.58647894859314,keyboard,keyboard,c15,0687_cop_s04_c15_keyboard_10_n03085013_3665.png
subject-04,1,688,0.716323852539062,bear,bear,c100,0688_cop_s04_c100_bear_10_n02134418_4372.png
subject-04,1,689,0.59610390663147,airplane,airplane,c50,0689_cop_s04_c50_airplane_10_n02690373_3589.png
subject-04,1,690,0.574229955673218,chair,bear,c01,0690_cop_s04_c01_bear_10_n02134418_4114.png
subject-04,1,691,1.24358701705933,bird,truck,c01,0691_cop_s04_c01_truck_10_n04467665_13193.png
subject-04,1,692,0.645416975021362,knife,knife,c05,0692_cop_s04_c05_knife_10_n03041632_34676.png
subject-04,1,693,0.729202032089233,bottle,knife,c05,0693_cop_s04_c05_knife_10_n03041632_9302.png
subject-04,1,694,0.841133117675781,dog,dog,c50,0694_cop_s04_c50_dog_10_n02104029_2132.png
subject-04,1,695,0.788914918899536,dog,dog,c15,0695_cop_s04_c15_dog_10_n02097658_5000.png
subject-04,1,696,0.778711080551147,keyboard,oven,c100,0696_cop_s04_c100_oven_10_n04111531_887.png
subject-04,1,697,0.888459205627441,clock,bottle,c15,0697_cop_s04_c15_bottle_10_n02823428_780.png
subject-04,1,698,0.510344982147217,clock,clock,c100,0698_cop_s04_c100_clock_10_n03196217_1275.png
subject-04,1,699,0.616240978240967,car,car,c10,0699_cop_s04_c10_car_10_n02814533_1480.png
subject-04,1,700,0.968027114868164,cat,cat,c50,0700_cop_s04_c50_cat_10_n02123159_7647.png
subject-04,1,701,0.613739967346191,bottle,elephant,c03,0701_cop_s04_c03_elephant_10_n02504458_6972.png
subject-04,1,702,0.623554944992065,car,car,c15,0702_cop_s04_c15_car_10_n03100240_1856.png
subject-04,1,703,0.581331968307495,boat,boat,c50,0703_cop_s04_c50_boat_10_n04612504_11939.png
subject-04,1,704,0.709249019622803,bicycle,bicycle,c10,0704_cop_s04_c10_bicycle_10_n03792782_7182.png
subject-04,1,705,0.589042901992798,bear,bear,c30,0705_cop_s04_c30_bear_10_n02133161_4091.png
subject-04,1,706,0.657011985778809,car,oven,c05,0706_cop_s04_c05_oven_10_n04111531_8688.png
subject-04,1,707,0.640943050384521,cat,bear,c30,0707_cop_s04_c30_bear_10_n02133161_5365.png
subject-04,1,708,0.746438980102539,bottle,keyboard,c01,0708_cop_s04_c01_keyboard_10_n04505470_1904.png
subject-04,1,709,0.512292861938477,bicycle,bicycle,c10,0709_cop_s04_c10_bicycle_10_n03792782_68259.png
subject-04,1,710,0.746296882629395,chair,chair,c15,0710_cop_s04_c15_chair_10_n02791124_9757.png
subject-04,1,711,0.727959871292114,bicycle,bicycle,c30,0711_cop_s04_c30_bicycle_10_n03792782_10526.png
subject-04,1,712,0.723998069763184,chair,truck,c01,0712_cop_s04_c01_truck_10_n04467665_22414.png
subject-04,1,713,0.565995931625366,car,truck,c01,0713_cop_s04_c01_truck_10_n04467665_3720.png
subject-04,1,714,1.35726809501648,truck,truck,c30,0714_cop_s04_c30_truck_10_n04467665_71074.png
subject-04,1,715,0.689119100570679,bottle,knife,c03,0715_cop_s04_c03_knife_10_n03041632_4260.png
subject-04,1,716,0.597030878067017,car,car,c03,0716_cop_s04_c03_car_10_n04285008_11922.png
subject-04,1,717,0.614874839782715,keyboard,chair,c03,0717_cop_s04_c03_chair_10_n03376595_6540.png
subject-04,1,718,0.550661087036133,clock,clock,c15,0718_cop_s04_c15_clock_10_n04548280_5087.png
subject-04,1,719,0.682564973831177,bird,dog,c01,0719_cop_s04_c01_dog_10_n02098105_2086.png
subject-04,1,720,0.514759063720703,clock,clock,c100,0720_cop_s04_c100_clock_10_n03196217_7199.png
subject-04,1,721,0.677285194396973,elephant,elephant,c15,0721_cop_s04_c15_elephant_10_n02504458_8923.png
subject-04,1,722,0.764951944351196,knife,knife,c50,0722_cop_s04_c50_knife_10_n03041632_6557.png
subject-04,1,723,0.650856971740723,cat,cat,c30,0723_cop_s04_c30_cat_10_n02124075_11970.png
subject-04,1,724,0.670654058456421,boat,dog,c03,0724_cop_s04_c03_dog_10_n02096437_6849.png
subject-04,1,725,0.526633024215698,oven,oven,c50,0725_cop_s04_c50_oven_10_n04111531_5126.png
subject-04,1,726,0.628332138061523,bird,bird,c100,0726_cop_s04_c100_bird_10_n01855672_9451.png
subject-04,1,727,0.594106197357178,airplane,airplane,c15,0727_cop_s04_c15_airplane_10_n02690373_4728.png
subject-04,1,728,0.637965202331543,bottle,bird,c01,0728_cop_s04_c01_bird_10_n01601694_11888.png
subject-04,1,729,0.469916105270386,cat,cat,c50,0729_cop_s04_c50_cat_10_n02123045_1274.png
subject-04,1,730,0.583559989929199,oven,bicycle,c01,0730_cop_s04_c01_bicycle_10_n03792782_5437.png
subject-04,1,731,0.501375913619995,boat,oven,c03,0731_cop_s04_c03_oven_10_n04111531_10446.png
subject-04,1,732,0.605319976806641,bird,bird,c50,0732_cop_s04_c50_bird_10_n01855032_1815.png
subject-04,1,733,0.55498194694519,keyboard,keyboard,c10,0733_cop_s04_c10_keyboard_10_n04505470_2421.png
subject-04,1,734,0.816956996917725,bear,clock,c01,0734_cop_s04_c01_clock_10_n04548280_2343.png
subject-04,1,735,0.80449914932251,car,bird,c10,0735_cop_s04_c10_bird_10_n02007558_45529.png
subject-04,1,736,0.52653694152832,bottle,keyboard,c05,0736_cop_s04_c05_keyboard_10_n03085013_30899.png
subject-04,1,737,1.50003409385681,bottle,bottle,c30,0737_cop_s04_c30_bottle_10_n04591713_7476.png
subject-04,1,738,0.764098167419434,dog,dog,c50,0738_cop_s04_c50_dog_10_n02092339_6946.png
subject-04,1,739,0.726067066192627,bird,airplane,c03,0739_cop_s04_c03_airplane_10_n02690373_6621.png
subject-04,1,740,0.71570611000061,elephant,cat,c10,0740_cop_s04_c10_cat_10_n02125311_14569.png
subject-04,1,741,0.813892841339111,dog,dog,c100,0741_cop_s04_c100_dog_10_n02102177_988.png
subject-04,1,742,0.567785978317261,boat,boat,c30,0742_cop_s04_c30_boat_10_n03662601_5575.png
subject-04,1,743,0.669116973876953,bottle,knife,c03,0743_cop_s04_c03_knife_10_n03041632_29684.png
subject-04,1,744,0.721438884735107,truck,truck,c30,0744_cop_s04_c30_truck_10_n04467665_56527.png
subject-04,1,745,0.765286922454834,airplane,airplane,c15,0745_cop_s04_c15_airplane_10_n02690373_4921.png
subject-04,1,746,0.772533893585205,dog,dog,c30,0746_cop_s04_c30_dog_10_n02102480_3679.png
subject-04,1,747,1.28844785690308,chair,keyboard,c15,0747_cop_s04_c15_keyboard_10_n03085013_23008.png
subject-04,1,748,0.962353944778442,truck,truck,c50,0748_cop_s04_c50_truck_10_n03796401_10519.png
subject-04,1,749,0.692294120788574,cat,cat,c50,0749_cop_s04_c50_cat_10_n02124075_10241.png
subject-04,1,750,0.599817991256714,bottle,truck,c01,0750_cop_s04_c01_truck_10_n04467665_32090.png
subject-04,1,751,0.651660203933716,knife,knife,c15,0751_cop_s04_c15_knife_10_n03041632_45090.png
subject-04,1,752,0.793337106704712,bird,truck,c03,0752_cop_s04_c03_truck_10_n04467665_52595.png
subject-04,1,753,0.539162158966064,boat,bear,c05,0753_cop_s04_c05_bear_10_n02134418_6252.png
subject-04,1,754,0.814971923828125,bear,bear,c30,0754_cop_s04_c30_bear_10_n02133161_12157.png
subject-04,1,755,1.49298286437988,oven,dog,c100,0755_cop_s04_c100_dog_10_n02090622_5881.png
subject-04,1,756,0.658731937408447,bicycle,bicycle,c30,0756_cop_s04_c30_bicycle_10_n03792782_20190.png
subject-04,1,757,0.614766836166382,oven,oven,c10,0757_cop_s04_c10_oven_10_n04111531_8309.png
subject-04,1,758,0.718353986740112,truck,truck,c100,0758_cop_s04_c100_truck_10_n03417042_4420.png
subject-04,1,759,0.542119979858398,oven,oven,c15,0759_cop_s04_c15_oven_10_n04111531_6094.png
subject-04,1,760,0.634120225906372,knife,bird,c10,0760_cop_s04_c10_bird_10_n02002556_9804.png
subject-04,1,761,0.569599866867065,oven,oven,c15,0761_cop_s04_c15_oven_10_n04111531_1752.png
subject-04,1,762,0.660154819488525,bottle,car,c01,0762_cop_s04_c01_car_10_n04285008_7325.png
subject-04,1,763,0.787556171417236,truck,truck,c03,0763_cop_s04_c03_truck_10_n04467665_9266.png
subject-04,1,764,0.60554313659668,car,car,c30,0764_cop_s04_c30_car_10_n04285008_12453.png
subject-04,1,765,0.727118015289307,clock,clock,c10,0765_cop_s04_c10_clock_10_n03196217_1814.png
subject-04,1,766,0.566764116287231,keyboard,keyboard,c30,0766_cop_s04_c30_keyboard_10_n03085013_21050.png
subject-04,1,767,0.657101154327393,bottle,bottle,c15,0767_cop_s04_c15_bottle_10_n03983396_1629.png
subject-04,1,768,0.914398193359375,bear,oven,c03,0768_cop_s04_c03_oven_10_n04111531_14611.png
subject-04,1,769,0.674286127090454,bottle,bottle,c10,0769_cop_s04_c10_bottle_10_n04579145_784.png
subject-04,1,770,0.688019990921021,truck,truck,c15,0770_cop_s04_c15_truck_10_n03796401_4154.png
subject-04,1,771,0.799919843673706,elephant,elephant,c50,0771_cop_s04_c50_elephant_10_n02504013_6552.png
subject-04,1,772,0.749763011932373,car,chair,c05,0772_cop_s04_c05_chair_10_n02791124_1371.png
subject-04,1,773,1.04998707771301,bear,cat,c03,0773_cop_s04_c03_cat_10_n02123597_14713.png
subject-04,1,774,0.80345606803894,keyboard,keyboard,c10,0774_cop_s04_c10_keyboard_10_n04505470_4061.png
subject-04,1,775,0.719184160232544,keyboard,keyboard,c05,0775_cop_s04_c05_keyboard_10_n03085013_2335.png
subject-04,1,776,1.05308604240417,cat,truck,c03,0776_cop_s04_c03_truck_10_n04467665_22358.png
subject-04,1,777,0.812698125839233,bottle,bottle,c100,0777_cop_s04_c100_bottle_10_n04557648_14715.png
subject-04,1,778,0.636865854263306,bird,elephant,c01,0778_cop_s04_c01_elephant_10_n02504458_5483.png
subject-04,1,779,0.60041618347168,bottle,boat,c05,0779_cop_s04_c05_boat_10_n04273569_6586.png
subject-04,1,780,0.558092832565308,car,car,c10,0780_cop_s04_c10_car_10_n04285008_1619.png
subject-04,1,781,0.750162839889526,keyboard,keyboard,c05,0781_cop_s04_c05_keyboard_10_n03085013_1824.png
subject-04,1,782,0.567730903625488,airplane,airplane,c05,0782_cop_s04_c05_airplane_10_n02690373_2607.png
subject-04,1,783,1.37756109237671,bottle,knife,c10,0783_cop_s04_c10_knife_10_n03041632_10140.png
subject-04,1,784,0.959468126296997,boat,car,c10,0784_cop_s04_c10_car_10_n03100240_52.png
subject-04,1,785,0.691635131835938,bottle,bear,c03,0785_cop_s04_c03_bear_10_n02133161_1059.png
subject-04,1,786,0.645236015319824,truck,truck,c50,0786_cop_s04_c50_truck_10_n03417042_10993.png
subject-04,1,787,0.610941171646118,airplane,airplane,c30,0787_cop_s04_c30_airplane_10_n02690373_7676.png
subject-04,1,788,0.71670389175415,dog,bottle,c03,0788_cop_s04_c03_bottle_10_n03937543_4916.png
subject-04,1,789,0.756690979003906,keyboard,keyboard,c50,0789_cop_s04_c50_keyboard_10_n03085013_661.png
subject-04,1,790,0.750500917434692,airplane,airplane,c05,0790_cop_s04_c05_airplane_10_n02690373_5729.png
subject-04,1,791,0.576210975646973,boat,boat,c10,0791_cop_s04_c10_boat_10_n03344393_5511.png
subject-04,1,792,0.625859975814819,boat,boat,c15,0792_cop_s04_c15_boat_10_n03662601_16412.png
subject-04,1,793,0.67779803276062,car,car,c100,0793_cop_s04_c100_car_10_n04285008_12446.png
subject-04,1,794,1.10761022567749,bird,elephant,c01,0794_cop_s04_c01_elephant_10_n02504013_3864.png
subject-04,1,795,0.611500978469849,elephant,elephant,c50,0795_cop_s04_c50_elephant_10_n02504458_5600.png
subject-04,1,796,0.743376016616821,bicycle,elephant,c03,0796_cop_s04_c03_elephant_10_n02504013_6426.png
subject-04,1,797,0.61910605430603,boat,bear,c15,0797_cop_s04_c15_bear_10_n02132136_2791.png
subject-04,1,798,0.64693284034729,elephant,elephant,c100,0798_cop_s04_c100_elephant_10_n02504458_5561.png
subject-04,1,799,0.612770080566406,keyboard,keyboard,c03,0799_cop_s04_c03_keyboard_10_n04505470_9663.png
subject-04,1,800,0.68671703338623,bottle,knife,c10,0800_cop_s04_c10_knife_10_n03041632_13108.png
subject-04,1,801,0.648453950881958,boat,clock,c01,0801_cop_s04_c01_clock_10_n02708093_2710.png
subject-04,1,802,0.504031896591187,bottle,bottle,c100,0802_cop_s04_c100_bottle_10_n02823428_10933.png
subject-04,1,803,0.459810972213745,cat,bottle,c03,0803_cop_s04_c03_bottle_10_n04557648_10944.png
subject-04,1,804,0.76767897605896,dog,dog,c10,0804_cop_s04_c10_dog_10_n02108422_2739.png
subject-04,1,805,0.70168399810791,keyboard,keyboard,c10,0805_cop_s04_c10_keyboard_10_n03085013_19630.png
subject-04,1,806,1.26921892166138,clock,bicycle,c100,0806_cop_s04_c100_bicycle_10_n03792782_15557.png
subject-04,1,807,0.82703709602356,elephant,bear,c15,0807_cop_s04_c15_bear_10_n02132136_1574.png
subject-04,1,808,0.643101930618286,airplane,airplane,c50,0808_cop_s04_c50_airplane_10_n02690373_8539.png
subject-04,1,809,0.482750177383423,clock,clock,c15,0809_cop_s04_c15_clock_10_n04548280_5519.png
subject-04,1,810,0.492549896240234,oven,keyboard,c01,0810_cop_s04_c01_keyboard_10_n03085013_24442.png
subject-04,1,811,0.542252063751221,bird,bird,c100,0811_cop_s04_c100_bird_10_n02027492_10246.png
subject-04,1,812,0.766217947006226,bottle,bottle,c10,0812_cop_s04_c10_bottle_10_n03983396_4227.png
subject-04,1,813,0.6438889503479,bird,bird,c15,0813_cop_s04_c15_bird_10_n01819313_4045.png
subject-04,1,814,0.628018140792847,bottle,cat,c01,0814_cop_s04_c01_cat_10_n02123394_4714.png
subject-04,1,815,0.591477870941162,chair,chair,c15,0815_cop_s04_c15_chair_10_n03376595_1961.png
subject-04,1,816,0.767697811126709,elephant,elephant,c30,0816_cop_s04_c30_elephant_10_n02504458_3225.png
subject-04,1,817,0.697437047958374,airplane,airplane,c100,0817_cop_s04_c100_airplane_10_n02690373_9720.png
subject-04,1,818,0.629258155822754,bicycle,bird,c01,0818_cop_s04_c01_bird_10_n02013706_3748.png
subject-04,1,819,0.642848014831543,elephant,elephant,c30,0819_cop_s04_c30_elephant_10_n02504013_7539.png
subject-04,1,820,0.45256495475769,boat,boat,c10,0820_cop_s04_c10_boat_10_n03662601_4844.png
subject-04,1,821,0.832443952560425,bear,dog,c05,0821_cop_s04_c05_dog_10_n02099601_22550.png
subject-04,1,822,0.72062611579895,truck,truck,c50,0822_cop_s04_c50_truck_10_n03796401_13298.png
subject-04,1,823,1.02029705047607,chair,oven,c30,0823_cop_s04_c30_oven_10_n04111531_6500.png
subject-04,1,824,0.622254848480225,bear,bear,c10,0824_cop_s04_c10_bear_10_n02132136_26027.png
subject-04,1,825,0.56367015838623,chair,chair,c100,0825_cop_s04_c100_chair_10_n04429376_5965.png
subject-04,1,826,1.16954112052917,bear,elephant,c10,0826_cop_s04_c10_elephant_10_n02504458_6470.png
subject-04,1,827,0.585749864578247,oven,keyboard,c03,0827_cop_s04_c03_keyboard_10_n03085013_4673.png
subject-04,1,828,0.533141136169434,chair,chair,c05,0828_cop_s04_c05_chair_10_n03376595_8953.png
subject-04,1,829,0.512928009033203,cat,cat,c50,0829_cop_s04_c50_cat_10_n02124075_20891.png
subject-04,1,830,0.826632976531982,elephant,elephant,c15,0830_cop_s04_c15_elephant_10_n02504013_1792.png
subject-04,1,831,0.760717868804932,airplane,airplane,c03,0831_cop_s04_c03_airplane_10_n02690373_8743.png
subject-04,1,832,0.706410884857178,bird,bird,c100,0832_cop_s04_c100_bird_10_n01819313_7109.png
subject-04,1,833,0.62264084815979,bottle,airplane,c03,0833_cop_s04_c03_airplane_10_n02690373_9317.png
subject-04,1,834,0.523955821990967,oven,clock,c03,0834_cop_s04_c03_clock_10_n02708093_3761.png
subject-04,1,835,0.449952125549316,boat,boat,c30,0835_cop_s04_c30_boat_10_n03662601_3741.png
subject-04,1,836,0.521764993667603,car,car,c50,0836_cop_s04_c50_car_10_n04285008_507.png
subject-04,1,837,0.495605945587158,cat,cat,c30,0837_cop_s04_c30_cat_10_n02123045_3575.png
subject-04,1,838,0.553140878677368,bottle,car,c01,0838_cop_s04_c01_car_10_n02814533_89472.png
subject-04,1,839,0.613085985183716,bear,bear,c50,0839_cop_s04_c50_bear_10_n02132136_29760.png
subject-04,1,840,0.600752115249634,clock,clock,c50,0840_cop_s04_c50_clock_10_n02708093_6835.png
subject-04,1,841,0.800733089447021,keyboard,dog,c10,0841_cop_s04_c10_dog_10_n02111129_932.png
subject-04,1,842,0.686434984207153,bird,elephant,c10,0842_cop_s04_c10_elephant_10_n02504013_4654.png
subject-04,1,843,1.18460512161255,oven,bear,c100,0843_cop_s04_c100_bear_10_n02134418_1218.png
subject-04,1,844,1.25845384597778,car,bottle,c01,0844_cop_s04_c01_bottle_10_n03937543_10092.png
subject-04,1,845,0.746222972869873,airplane,cat,c03,0845_cop_s04_c03_cat_10_n02124075_12430.png
subject-04,1,846,0.656089067459106,knife,chair,c01,0846_cop_s04_c01_chair_10_n04099969_4577.png
subject-04,1,847,0.527635097503662,boat,boat,c100,0847_cop_s04_c100_boat_10_n02951358_14624.png
subject-04,1,848,0.691310167312622,truck,truck,c50,0848_cop_s04_c50_truck_10_n04467665_30901.png
subject-04,1,849,0.655083894729614,bottle,dog,c05,0849_cop_s04_c05_dog_10_n02111129_2245.png
subject-04,1,850,0.887087106704712,elephant,elephant,c10,0850_cop_s04_c10_elephant_10_n02504013_3821.png
subject-04,1,851,0.870922088623047,elephant,elephant,c30,0851_cop_s04_c30_elephant_10_n02504013_5537.png
subject-04,1,852,0.703088045120239,knife,knife,c30,0852_cop_s04_c30_knife_10_n03041632_11495.png
subject-04,1,853,0.674645900726318,clock,clock,c10,0853_cop_s04_c10_clock_10_n03196217_11471.png
subject-04,1,854,1.36430311203003,bear,bottle,c03,0854_cop_s04_c03_bottle_10_n03937543_5257.png
subject-04,1,855,0.674108982086182,bird,dog,c03,0855_cop_s04_c03_dog_10_n02094433_9787.png
subject-04,1,856,0.69783091545105,boat,boat,c05,0856_cop_s04_c05_boat_10_n04273569_20587.png
subject-04,1,857,1.10210585594177,chair,dog,c15,0857_cop_s04_c15_dog_10_n02111129_6267.png
subject-04,1,858,0.519874095916748,boat,boat,c50,0858_cop_s04_c50_boat_10_n04273569_26139.png
subject-04,1,859,0.747308969497681,boat,knife,c15,0859_cop_s04_c15_knife_10_n03041632_51766.png
subject-04,1,860,0.775305986404419,bird,clock,c01,0860_cop_s04_c01_clock_10_n02708093_6957.png
subject-04,1,861,0.604969024658203,airplane,airplane,c01,0861_cop_s04_c01_airplane_10_n02690373_1797.png
subject-04,1,862,1.50003504753113,bear,bird,c15,0862_cop_s04_c15_bird_10_n01532829_2263.png
subject-04,1,863,0.580569982528687,clock,clock,c30,0863_cop_s04_c30_clock_10_n02708093_4976.png
subject-04,1,864,1.29434204101562,chair,oven,c05,0864_cop_s04_c05_oven_10_n04111531_13277.png
subject-04,1,865,1.06815719604492,bird,bear,c01,0865_cop_s04_c01_bear_10_n02134084_4477.png
subject-04,1,866,0.740005970001221,airplane,airplane,c30,0866_cop_s04_c30_airplane_10_n02690373_8350.png
subject-04,1,867,0.681864976882935,truck,truck,c15,0867_cop_s04_c15_truck_10_n03796401_20373.png
subject-04,1,868,0.699855089187622,dog,dog,c100,0868_cop_s04_c100_dog_10_n02107908_3490.png
subject-04,1,869,0.585496187210083,car,car,c10,0869_cop_s04_c10_car_10_n04285008_10073.png
subject-04,1,870,0.543300151824951,dog,dog,c30,0870_cop_s04_c30_dog_10_n02097474_5234.png
subject-04,1,871,0.589288949966431,car,car,c15,0871_cop_s04_c15_car_10_n02814533_19287.png
subject-04,1,872,0.89080810546875,cat,boat,c05,0872_cop_s04_c05_boat_10_n02951358_33807.png
subject-04,1,873,0.778724908828735,bird,bird,c05,0873_cop_s04_c05_bird_10_n02025239_3669.png
subject-04,1,874,0.600430011749268,bottle,bird,c01,0874_cop_s04_c01_bird_10_n01592084_9625.png
subject-04,1,875,0.616676092147827,keyboard,keyboard,c30,0875_cop_s04_c30_keyboard_10_n04505470_4893.png
subject-04,1,876,0.770262002944946,chair,bottle,c01,0876_cop_s04_c01_bottle_10_n03983396_751.png
subject-04,1,877,0.828137874603271,boat,boat,c03,0877_cop_s04_c03_boat_10_n04273569_6180.png
subject-04,1,878,0.690305948257446,keyboard,keyboard,c50,0878_cop_s04_c50_keyboard_10_n04505470_9331.png
subject-04,1,879,0.653605937957764,elephant,elephant,c50,0879_cop_s04_c50_elephant_10_n02504458_4909.png
subject-04,1,880,0.631525993347168,bird,bird,c15,0880_cop_s04_c15_bird_10_n02011460_2417.png
subject-04,1,881,0.696276903152466,elephant,bottle,c10,0881_cop_s04_c10_bottle_10_n03937543_2336.png
subject-04,1,882,0.704413890838623,car,dog,c03,0882_cop_s04_c03_dog_10_n02093991_247.png
subject-04,1,883,0.615981817245483,car,car,c15,0883_cop_s04_c15_car_10_n03100240_11107.png
subject-04,1,884,1.29789996147156,chair,chair,c100,0884_cop_s04_c100_chair_10_n03376595_11049.png
subject-04,1,885,0.477591037750244,boat,boat,c15,0885_cop_s04_c15_boat_10_n04612504_18954.png
subject-04,1,886,0.567337036132812,bottle,bottle,c100,0886_cop_s04_c100_bottle_10_n03983396_2182.png
subject-04,1,887,0.633520841598511,bird,bird,c30,0887_cop_s04_c30_bird_10_n01855032_7567.png
subject-04,1,888,0.701179981231689,bicycle,bicycle,c05,0888_cop_s04_c05_bicycle_10_n03792782_38641.png
subject-04,1,889,0.632938861846924,dog,oven,c01,0889_cop_s04_c01_oven_10_n04111531_4901.png
subject-04,1,890,0.608633995056152,boat,boat,c03,0890_cop_s04_c03_boat_10_n02951358_10488.png
subject-04,1,891,0.502464056015015,car,car,c100,0891_cop_s04_c100_car_10_n03100240_1794.png
subject-04,1,892,0.498017072677612,boat,truck,c03,0892_cop_s04_c03_truck_10_n03417042_751.png
subject-04,1,893,0.670091867446899,elephant,elephant,c05,0893_cop_s04_c05_elephant_10_n02504013_8162.png
subject-04,1,894,0.549906015396118,chair,chair,c50,0894_cop_s04_c50_chair_10_n03376595_4669.png
subject-04,1,895,0.745913982391357,dog,dog,c100,0895_cop_s04_c100_dog_10_n02100583_26422.png
subject-04,1,896,1.46937608718872,bear,bicycle,c10,0896_cop_s04_c10_bicycle_10_n03792782_77949.png
subject-04,1,897,0.815371036529541,oven,bottle,c50,0897_cop_s04_c50_bottle_10_n03937543_4425.png
subject-04,1,898,0.731146097183228,chair,chair,c01,0898_cop_s04_c01_chair_10_n03376595_16059.png
subject-04,1,899,0.530879020690918,bicycle,bicycle,c50,0899_cop_s04_c50_bicycle_10_n02835271_1701.png
subject-04,1,900,0.512727022171021,boat,boat,c100,0900_cop_s04_c100_boat_10_n02951358_1541.png
subject-04,1,901,0.630664110183716,bottle,bottle,c05,0901_cop_s04_c05_bottle_10_n04591713_6975.png
subject-04,1,902,0.612240076065063,keyboard,keyboard,c100,0902_cop_s04_c100_keyboard_10_n04505470_3825.png
subject-04,1,903,0.608531951904297,dog,dog,c15,0903_cop_s04_c15_dog_10_n02102177_835.png
subject-04,1,904,0.674175977706909,dog,dog,c30,0904_cop_s04_c30_dog_10_n02110958_15843.png
subject-04,1,905,0.584085941314697,bottle,elephant,c03,0905_cop_s04_c03_elephant_10_n02504013_3028.png
subject-04,1,906,0.733474016189575,dog,bear,c10,0906_cop_s04_c10_bear_10_n02132136_8975.png
subject-04,1,907,0.699456930160522,truck,truck,c05,0907_cop_s04_c05_truck_10_n03417042_13806.png
subject-04,1,908,1.20965099334717,chair,knife,c30,0908_cop_s04_c30_knife_10_n03041632_92637.png
subject-04,1,909,0.55518102645874,car,car,c03,0909_cop_s04_c03_car_10_n02814533_87871.png
subject-04,1,910,0.534933805465698,chair,chair,c15,0910_cop_s04_c15_chair_10_n04429376_43275.png
subject-04,1,911,0.5766921043396,chair,chair,c100,0911_cop_s04_c100_chair_10_n04099969_3929.png
subject-04,1,912,0.916527986526489,keyboard,chair,c01,0912_cop_s04_c01_chair_10_n04099969_10266.png
subject-04,1,913,0.65234112739563,truck,truck,c15,0913_cop_s04_c15_truck_10_n03796401_7381.png
subject-04,1,914,0.606205940246582,keyboard,keyboard,c15,0914_cop_s04_c15_keyboard_10_n04505470_4761.png
subject-04,1,915,0.548156023025513,car,car,c100,0915_cop_s04_c100_car_10_n02814533_35760.png
subject-04,1,916,1.0316789150238,elephant,oven,c15,0916_cop_s04_c15_oven_10_n04111531_23215.png
subject-04,1,917,0.749614953994751,bird,boat,c01,0917_cop_s04_c01_boat_10_n04273569_15906.png
subject-04,1,918,0.793402910232544,bottle,bird,c01,0918_cop_s04_c01_bird_10_n01537544_22049.png
subject-04,1,919,0.629373073577881,airplane,airplane,c15,0919_cop_s04_c15_airplane_10_n02690373_10399.png
subject-04,1,920,0.735369920730591,elephant,elephant,c15,0920_cop_s04_c15_elephant_10_n02504458_1891.png
subject-04,1,921,0.67477011680603,airplane,airplane,c100,0921_cop_s04_c100_airplane_10_n02690373_13078.png
subject-04,1,922,0.566561937332153,boat,boat,c15,0922_cop_s04_c15_boat_10_n02951358_10912.png
subject-04,1,923,0.904361963272095,keyboard,keyboard,c01,0923_cop_s04_c01_keyboard_10_n04505470_4400.png
subject-04,1,924,0.704268932342529,car,bird,c01,0924_cop_s04_c01_bird_10_n02002724_627.png
subject-04,1,925,0.596243858337402,elephant,elephant,c10,0925_cop_s04_c10_elephant_10_n02504013_1833.png
subject-04,1,926,0.784204006195068,chair,knife,c100,0926_cop_s04_c100_knife_10_n03041632_86338.png
subject-04,1,927,0.631744861602783,keyboard,keyboard,c15,0927_cop_s04_c15_keyboard_10_n04505470_725.png
subject-04,1,928,0.595821142196655,car,car,c05,0928_cop_s04_c05_car_10_n04285008_12539.png
subject-04,1,929,0.645575046539307,cat,cat,c30,0929_cop_s04_c30_cat_10_n02124075_10155.png
subject-04,1,930,0.62545108795166,keyboard,keyboard,c50,0930_cop_s04_c50_keyboard_10_n03085013_6644.png
subject-04,1,931,0.808835029602051,elephant,bear,c05,0931_cop_s04_c05_bear_10_n02133161_313.png
subject-04,1,932,0.614773035049438,bottle,knife,c05,0932_cop_s04_c05_knife_10_n03041632_27022.png
subject-04,1,933,0.548841953277588,clock,car,c01,0933_cop_s04_c01_car_10_n03100240_5825.png
subject-04,1,934,0.588466882705688,boat,boat,c10,0934_cop_s04_c10_boat_10_n04273569_14373.png
subject-04,1,935,0.68654203414917,car,knife,c05,0935_cop_s04_c05_knife_10_n03041632_13509.png
subject-04,1,936,0.678154945373535,truck,truck,c10,0936_cop_s04_c10_truck_10_n04467665_57085.png
subject-04,1,937,0.9878089427948,dog,bear,c15,0937_cop_s04_c15_bear_10_n02134418_2175.png
subject-04,1,938,0.71993613243103,truck,truck,c10,0938_cop_s04_c10_truck_10_n04467665_2505.png
subject-04,1,939,0.669389963150024,oven,knife,c15,0939_cop_s04_c15_knife_10_n03041632_4787.png
subject-04,1,940,0.785320997238159,oven,airplane,c03,0940_cop_s04_c03_airplane_10_n02690373_13318.png
subject-04,1,941,0.668936014175415,car,car,c05,0941_cop_s04_c05_car_10_n02814533_872.png
subject-04,1,942,1.50010800361633,bottle,clock,c05,0942_cop_s04_c05_clock_10_n02708093_8038.png
subject-04,1,943,1.07649707794189,bicycle,bicycle,c100,0943_cop_s04_c100_bicycle_10_n03792782_1586.png
subject-04,1,944,0.696672916412354,boat,knife,c03,0944_cop_s04_c03_knife_10_n03041632_55083.png
subject-04,1,945,0.586398839950562,cat,cat,c100,0945_cop_s04_c100_cat_10_n02123597_6972.png
subject-04,1,946,0.708370923995972,bottle,knife,c05,0946_cop_s04_c05_knife_10_n03041632_18859.png
subject-04,1,947,0.648076772689819,truck,truck,c100,0947_cop_s04_c100_truck_10_n03796401_8100.png
subject-04,1,948,0.876137018203735,boat,boat,c100,0948_cop_s04_c100_boat_10_n04273569_12214.png
subject-04,1,949,0.497948884963989,boat,boat,c100,0949_cop_s04_c100_boat_10_n02951358_14528.png
subject-04,1,950,0.625387191772461,bottle,cat,c01,0950_cop_s04_c01_cat_10_n02123597_8052.png
subject-04,1,951,0.807146072387695,boat,truck,c01,0951_cop_s04_c01_truck_10_n03796401_21335.png
subject-04,1,952,0.599083185195923,elephant,elephant,c50,0952_cop_s04_c50_elephant_10_n02504013_17337.png
subject-04,1,953,0.554917097091675,bicycle,bicycle,c30,0953_cop_s04_c30_bicycle_10_n03792782_3481.png
subject-04,1,954,0.616595029830933,dog,dog,c30,0954_cop_s04_c30_dog_10_n02113799_18413.png
subject-04,1,955,0.612333059310913,bottle,bicycle,c01,0955_cop_s04_c01_bicycle_10_n02835271_10283.png
subject-04,1,956,0.634315013885498,car,truck,c05,0956_cop_s04_c05_truck_10_n03796401_3509.png
subject-04,1,957,0.660193204879761,truck,chair,c15,0957_cop_s04_c15_chair_10_n02791124_5268.png
subject-04,1,958,0.578029870986938,boat,boat,c50,0958_cop_s04_c50_boat_10_n03344393_629.png
subject-04,1,959,0.569761991500854,bottle,bottle,c100,0959_cop_s04_c100_bottle_10_n04557648_988.png
subject-04,1,960,0.585875034332275,bicycle,bicycle,c30,0960_cop_s04_c30_bicycle_10_n02835271_2764.png
subject-04,1,961,0.71229887008667,cat,knife,c01,0961_cop_s04_c01_knife_10_n03041632_31483.png
subject-04,1,962,0.611996173858643,airplane,airplane,c50,0962_cop_s04_c50_airplane_10_n02690373_2544.png
subject-04,1,963,0.68836498260498,elephant,elephant,c50,0963_cop_s04_c50_elephant_10_n02504458_3684.png
subject-04,1,964,0.989822864532471,bird,bicycle,c05,0964_cop_s04_c05_bicycle_10_n02835271_6481.png
subject-04,1,965,0.717633962631226,boat,knife,c10,0965_cop_s04_c10_knife_10_n03041632_12242.png
subject-04,1,966,0.589524984359741,bottle,bottle,c01,0966_cop_s04_c01_bottle_10_n04557648_11142.png
subject-04,1,967,0.453274965286255,boat,boat,c30,0967_cop_s04_c30_boat_10_n02951358_29825.png
subject-04,1,968,0.779088973999023,bear,bear,c05,0968_cop_s04_c05_bear_10_n02134084_67.png
subject-04,1,969,0.860653877258301,car,car,c50,0969_cop_s04_c50_car_10_n03100240_2528.png
subject-04,1,970,0.676960945129395,bird,bird,c03,0970_cop_s04_c03_bird_10_n01860187_728.png
subject-04,1,971,0.57048487663269,keyboard,keyboard,c30,0971_cop_s04_c30_keyboard_10_n03085013_20462.png
subject-04,1,972,0.566608905792236,bear,bear,c15,0972_cop_s04_c15_bear_10_n02134084_4859.png
subject-04,1,973,0.668415069580078,cat,bicycle,c03,0973_cop_s04_c03_bicycle_10_n03792782_8357.png
subject-04,1,974,0.640033006668091,chair,chair,c30,0974_cop_s04_c30_chair_10_n04099969_34525.png
subject-04,1,975,0.702008008956909,bottle,knife,c01,0975_cop_s04_c01_knife_10_n03041632_21590.png
subject-04,1,976,0.643620014190674,bird,bird,c30,0976_cop_s04_c30_bird_10_n01592084_1228.png
subject-04,1,977,0.655416965484619,elephant,elephant,c100,0977_cop_s04_c100_elephant_10_n02504458_7955.png
subject-04,1,978,0.753166198730469,chair,chair,c10,0978_cop_s04_c10_chair_10_n02791124_1018.png
subject-04,1,979,0.695417165756226,keyboard,keyboard,c03,0979_cop_s04_c03_keyboard_10_n04505470_5022.png
subject-04,1,980,0.620774984359741,oven,oven,c10,0980_cop_s04_c10_oven_10_n04111531_10077.png
subject-04,1,981,0.764498949050903,truck,truck,c100,0981_cop_s04_c100_truck_10_n03417042_23815.png
subject-04,1,982,0.666517019271851,bottle,cat,c03,0982_cop_s04_c03_cat_10_n02123394_2632.png
subject-04,1,983,0.656445026397705,chair,bicycle,c05,0983_cop_s04_c05_bicycle_10_n02835271_4220.png
subject-04,1,984,0.738162040710449,boat,airplane,c10,0984_cop_s04_c10_airplane_10_n02690373_5344.png
subject-04,1,985,0.59172797203064,bear,bear,c50,0985_cop_s04_c50_bear_10_n02132136_1132.png
subject-04,1,986,0.657494068145752,chair,chair,c30,0986_cop_s04_c30_chair_10_n02791124_5401.png
subject-04,1,987,0.58755898475647,boat,boat,c10,0987_cop_s04_c10_boat_10_n04612504_17514.png
subject-04,1,988,0.779167890548706,knife,boat,c01,0988_cop_s04_c01_boat_10_n03344393_2838.png
subject-04,1,989,0.56298303604126,cat,cat,c10,0989_cop_s04_c10_cat_10_n02123159_6932.png
subject-04,1,990,0.622859001159668,boat,car,c50,0990_cop_s04_c50_car_10_n03100240_977.png
subject-04,1,991,0.602739095687866,oven,oven,c30,0991_cop_s04_c30_oven_10_n04111531_1970.png
subject-04,1,992,0.622890949249268,chair,bottle,c03,0992_cop_s04_c03_bottle_10_n04560804_15840.png
subject-04,1,993,0.526489973068237,oven,oven,c50,0993_cop_s04_c50_oven_10_n04111531_7106.png
subject-04,1,994,1.21019816398621,elephant,elephant,c15,0994_cop_s04_c15_elephant_10_n02504458_4010.png
subject-04,1,995,0.746351003646851,airplane,airplane,c50,0995_cop_s04_c50_airplane_10_n02690373_911.png
subject-04,1,996,0.575730800628662,clock,clock,c100,0996_cop_s04_c100_clock_10_n02708093_579.png
subject-04,1,997,1.50010204315186,boat,boat,c10,0997_cop_s04_c10_boat_10_n03344393_8869.png
subject-04,1,998,0.833524227142334,chair,chair,c01,0998_cop_s04_c01_chair_10_n04099969_6913.png
subject-04,1,999,0.565315008163452,oven,oven,c15,0999_cop_s04_c15_oven_10_n04111531_4549.png
subject-04,1,1000,0.621064901351929,bear,bear,c100,1000_cop_s04_c100_bear_10_n02134084_16084.png
subject-04,1,1001,1.50000095367432,boat,boat,c15,1001_cop_s04_c15_boat_10_n02951358_4972.png
subject-04,1,1002,0.706689119338989,bear,bear,c50,1002_cop_s04_c50_bear_10_n02133161_13461.png
subject-04,1,1003,0.788589954376221,bicycle,dog,c15,1003_cop_s04_c15_dog_10_n02108000_4202.png
subject-04,1,1004,0.884314060211182,keyboard,keyboard,c10,1004_cop_s04_c10_keyboard_10_n03085013_8325.png
subject-04,1,1005,0.760087013244629,chair,elephant,c01,1005_cop_s04_c01_elephant_10_n02504458_4244.png
subject-04,1,1006,0.682001113891602,keyboard,keyboard,c10,1006_cop_s04_c10_keyboard_10_n04505470_6638.png
subject-04,1,1007,0.725846767425537,car,car,c100,1007_cop_s04_c100_car_10_n03100240_13707.png
subject-04,1,1008,0.695725917816162,bear,bear,c10,1008_cop_s04_c10_bear_10_n02132136_4101.png
subject-04,1,1009,1.09937691688538,elephant,elephant,c15,1009_cop_s04_c15_elephant_10_n02504013_1028.png
subject-04,1,1010,0.703346967697144,bicycle,bicycle,c15,1010_cop_s04_c15_bicycle_10_n02835271_5193.png
subject-04,1,1011,0.732999086380005,car,car,c50,1011_cop_s04_c50_car_10_n04285008_3010.png
subject-04,1,1012,0.525016784667969,cat,cat,c30,1012_cop_s04_c30_cat_10_n02123597_29513.png
subject-04,1,1013,0.642560005187988,oven,chair,c05,1013_cop_s04_c05_chair_10_n02791124_1737.png
subject-04,1,1014,0.578492879867554,car,car,c30,1014_cop_s04_c30_car_10_n03100240_10440.png
subject-04,1,1015,0.780270099639893,bottle,elephant,c03,1015_cop_s04_c03_elephant_10_n02504458_5320.png
subject-04,1,1016,0.742020845413208,truck,truck,c15,1016_cop_s04_c15_truck_10_n04467665_1015.png
subject-04,1,1017,0.636080980300903,car,car,c15,1017_cop_s04_c15_car_10_n04285008_8323.png
subject-04,1,1018,0.557590961456299,oven,knife,c100,1018_cop_s04_c100_knife_10_n03041632_23968.png
subject-04,1,1019,0.64156699180603,bird,bird,c30,1019_cop_s04_c30_bird_10_n01824575_9736.png
subject-04,1,1020,0.555640935897827,bird,bird,c100,1020_cop_s04_c100_bird_10_n01797886_465.png
subject-04,1,1021,0.660998821258545,bottle,bear,c01,1021_cop_s04_c01_bear_10_n02134084_5031.png
subject-04,1,1022,0.540899038314819,car,car,c50,1022_cop_s04_c50_car_10_n04285008_12662.png
subject-04,1,1023,0.668777942657471,bear,bear,c100,1023_cop_s04_c100_bear_10_n02133161_223.png
subject-04,1,1024,0.626435041427612,clock,clock,c10,1024_cop_s04_c10_clock_10_n03196217_4527.png
subject-04,1,1025,0.694281101226807,oven,knife,c50,1025_cop_s04_c50_knife_10_n03041632_24326.png
subject-04,1,1026,0.644119024276733,car,car,c15,1026_cop_s04_c15_car_10_n04285008_5208.png
subject-04,1,1027,0.522266149520874,oven,oven,c50,1027_cop_s04_c50_oven_10_n04111531_452.png
subject-04,1,1028,0.605815172195435,elephant,elephant,c100,1028_cop_s04_c100_elephant_10_n02504013_2340.png
subject-04,1,1029,1.18795394897461,truck,clock,c03,1029_cop_s04_c03_clock_10_n04548280_4841.png
subject-04,1,1030,0.633569955825806,truck,truck,c50,1030_cop_s04_c50_truck_10_n04467665_69176.png
subject-04,1,1031,0.581228971481323,cat,cat,c30,1031_cop_s04_c30_cat_10_n02123394_2285.png
subject-04,1,1032,0.701124906539917,truck,truck,c10,1032_cop_s04_c10_truck_10_n03796401_3158.png
subject-04,1,1033,0.61883807182312,car,car,c100,1033_cop_s04_c100_car_10_n02814533_37548.png
subject-04,1,1034,0.690631866455078,bottle,bicycle,c01,1034_cop_s04_c01_bicycle_10_n02835271_10741.png
subject-04,1,1035,0.660813093185425,bird,bird,c30,1035_cop_s04_c30_bird_10_n01534433_3428.png
subject-04,1,1036,0.818387985229492,keyboard,boat,c03,1036_cop_s04_c03_boat_10_n03344393_4213.png
