subj,Session,trial,rt,object_response,category,condition,imagename
subject-03,1,1,1.24921989440918,bottle,elephant,c03,0001_cop_s03_c03_elephant_10_n02504458_5320.png
subject-03,1,2,1.22512698173523,airplane,airplane,c10,0002_cop_s03_c10_airplane_10_n02690373_6549.png
subject-03,1,3,0.528788089752197,bottle,bottle,c100,0003_cop_s03_c100_bottle_10_n03983396_11519.png
subject-03,1,4,0.832769155502319,bird,bird,c05,0004_cop_s03_c05_bird_10_n02037110_6736.png
subject-03,1,5,1.13634204864502,boat,bird,c03,0005_cop_s03_c03_bird_10_n01860187_728.png
subject-03,1,6,1.09022498130798,car,car,c05,0006_cop_s03_c05_car_10_n03100240_5718.png
subject-03,1,7,0.75829815864563,keyboard,keyboard,c03,0007_cop_s03_c03_keyboard_10_n04505470_5022.png
subject-03,1,8,0.814162015914917,bear,cat,c01,0008_cop_s03_c01_cat_10_n02123045_10689.png
subject-03,1,9,0.765851020812988,car,car,c15,0009_cop_s03_c15_car_10_n03100240_1856.png
subject-03,1,10,0.575971841812134,boat,boat,c15,0010_cop_s03_c15_boat_10_n02951358_10912.png
subject-03,1,11,0.819444179534912,car,truck,c10,0011_cop_s03_c10_truck_10_n03417042_7530.png
subject-03,1,12,0.803172826766968,boat,clock,c03,0012_cop_s03_c03_clock_10_n04548280_750.png
subject-03,1,13,0.92146897315979,cat,cat,c05,0013_cop_s03_c05_cat_10_n02125311_46330.png
subject-03,1,14,0.626744031906128,bicycle,bicycle,c100,0014_cop_s03_c100_bicycle_10_n03792782_19937.png
subject-03,1,15,NaN,na,oven,c100,0015_cop_s03_c100_oven_10_n04111531_6536.png
subject-03,1,16,1.50005602836609,elephant,bear,c03,0016_cop_s03_c03_bear_10_n02134418_12457.png
subject-03,1,17,0.860146999359131,boat,knife,c03,0017_cop_s03_c03_knife_10_n03041632_29684.png
subject-03,1,18,0.608047962188721,dog,dog,c100,0018_cop_s03_c100_dog_10_n02109047_14207.png
subject-03,1,19,0.749829053878784,airplane,airplane,c15,0019_cop_s03_c15_airplane_10_n02690373_10181.png
subject-03,1,20,0.939726114273071,oven,keyboard,c15,0020_cop_s03_c15_keyboard_10_n03085013_20891.png
subject-03,1,21,0.577878952026367,car,car,c10,0021_cop_s03_c10_car_10_n03100240_12141.png
subject-03,1,22,1.28327608108521,knife,knife,c50,0022_cop_s03_c50_knife_10_n03041632_13612.png
subject-03,1,23,0.997083902359009,car,boat,c10,0023_cop_s03_c10_boat_10_n03344393_14897.png
subject-03,1,24,1.38091683387756,oven,boat,c10,0024_cop_s03_c10_boat_10_n03344393_6638.png
subject-03,1,25,1.47474908828735,truck,knife,c03,0025_cop_s03_c03_knife_10_n03041632_31932.png
subject-03,1,26,0.850817918777466,dog,dog,c05,0026_cop_s03_c05_dog_10_n02086079_37199.png
subject-03,1,27,1.4023449420929,oven,keyboard,c05,0027_cop_s03_c05_keyboard_10_n03085013_30899.png
subject-03,1,28,0.740431785583496,chair,chair,c15,0028_cop_s03_c15_chair_10_n03376595_9482.png
subject-03,1,29,0.682137966156006,car,car,c100,0029_cop_s03_c100_car_10_n03100240_13707.png
subject-03,1,30,1.36986994743347,keyboard,bottle,c10,0030_cop_s03_c10_bottle_10_n03937543_2494.png
subject-03,1,31,0.983613014221191,chair,chair,c03,0031_cop_s03_c03_chair_10_n04099969_3536.png
subject-03,1,32,0.663741827011108,bird,bird,c100,0032_cop_s03_c100_bird_10_n01616318_5417.png
subject-03,1,33,1.05525803565979,bottle,bottle,c10,0033_cop_s03_c10_bottle_10_n04557648_818.png
subject-03,1,34,0.491095066070557,clock,clock,c50,0034_cop_s03_c50_clock_10_n02708093_2043.png
subject-03,1,35,0.563096046447754,boat,boat,c30,0035_cop_s03_c30_boat_10_n03662601_3741.png
subject-03,1,36,0.923058032989502,elephant,elephant,c100,0036_cop_s03_c100_elephant_10_n02504458_12217.png
subject-03,1,37,0.908397912979126,keyboard,boat,c03,0037_cop_s03_c03_boat_10_n04612504_15061.png
subject-03,1,38,0.546318054199219,elephant,elephant,c100,0038_cop_s03_c100_elephant_10_n02504458_1138.png
subject-03,1,39,0.840103149414062,bear,bear,c50,0039_cop_s03_c50_bear_10_n02133161_5904.png
subject-03,1,40,0.77213191986084,airplane,airplane,c15,0040_cop_s03_c15_airplane_10_n02690373_9712.png
subject-03,1,41,0.953821897506714,elephant,elephant,c10,0041_cop_s03_c10_elephant_10_n02504458_4997.png
subject-03,1,42,1.13145804405212,truck,truck,c50,0042_cop_s03_c50_truck_10_n03417042_3952.png
subject-03,1,43,1.39736294746399,bicycle,airplane,c03,0043_cop_s03_c03_airplane_10_n02690373_9317.png
subject-03,1,44,1.09948801994324,cat,cat,c03,0044_cop_s03_c03_cat_10_n02123597_11138.png
subject-03,1,45,0.813277006149292,bear,bicycle,c05,0045_cop_s03_c05_bicycle_10_n03792782_18294.png
subject-03,1,46,0.730607032775879,bicycle,bicycle,c10,0046_cop_s03_c10_bicycle_10_n02835271_19143.png
subject-03,1,47,0.818594932556152,car,car,c10,0047_cop_s03_c10_car_10_n04285008_10073.png
subject-03,1,48,0.848376989364624,boat,boat,c15,0048_cop_s03_c15_boat_10_n04273569_28333.png
subject-03,1,49,1.08815503120422,car,boat,c05,0049_cop_s03_c05_boat_10_n02951358_15858.png
subject-03,1,50,0.654031991958618,bear,bear,c50,0050_cop_s03_c50_bear_10_n02134084_7250.png
subject-03,1,51,0.89008903503418,bear,bear,c30,0051_cop_s03_c30_bear_10_n02133161_12157.png
subject-03,1,52,1.47172403335571,oven,knife,c15,0052_cop_s03_c15_knife_10_n03041632_27709.png
subject-03,1,53,0.589598178863525,keyboard,keyboard,c15,0053_cop_s03_c15_keyboard_10_n04505470_4761.png
subject-03,1,54,0.869616985321045,boat,bottle,c03,0054_cop_s03_c03_bottle_10_n04560804_13157.png
subject-03,1,55,0.689130067825317,dog,bottle,c01,0055_cop_s03_c01_bottle_10_n04591713_1126.png
subject-03,1,56,0.926810026168823,car,clock,c05,0056_cop_s03_c05_clock_10_n03196217_3605.png
subject-03,1,57,0.612541913986206,bottle,bottle,c100,0057_cop_s03_c100_bottle_10_n03983396_17803.png
subject-03,1,58,1.01863789558411,knife,clock,c01,0058_cop_s03_c01_clock_10_n02708093_2318.png
subject-03,1,59,0.732406854629517,bicycle,bicycle,c15,0059_cop_s03_c15_bicycle_10_n02835271_5193.png
subject-03,1,60,0.648297071456909,keyboard,keyboard,c30,0060_cop_s03_c30_keyboard_10_n03085013_24103.png
subject-03,1,61,0.866058826446533,car,oven,c10,0061_cop_s03_c10_oven_10_n04111531_1580.png
subject-03,1,62,0.633798122406006,bird,bird,c05,0062_cop_s03_c05_bird_10_n02056570_13462.png
subject-03,1,63,1.50000500679016,bicycle,bird,c15,0063_cop_s03_c15_bird_10_n01819313_1282.png
subject-03,1,64,0.541427135467529,chair,chair,c30,0064_cop_s03_c30_chair_10_n03376595_1024.png
subject-03,1,65,0.667168140411377,truck,truck,c50,0065_cop_s03_c50_truck_10_n03796401_1681.png
subject-03,1,66,1.50016307830811,boat,truck,c03,0066_cop_s03_c03_truck_10_n04467665_30581.png
subject-03,1,67,1.03484106063843,car,keyboard,c10,0067_cop_s03_c10_keyboard_10_n04505470_4061.png
subject-03,1,68,0.660693883895874,elephant,elephant,c30,0068_cop_s03_c30_elephant_10_n02504013_5237.png
subject-03,1,69,0.768558979034424,chair,car,c01,0069_cop_s03_c01_car_10_n04285008_4868.png
subject-03,1,70,0.982322931289673,elephant,elephant,c50,0070_cop_s03_c50_elephant_10_n02504013_17337.png
subject-03,1,71,0.760496139526367,car,car,c100,0071_cop_s03_c100_car_10_n03100240_1794.png
subject-03,1,72,0.711837768554688,boat,boat,c50,0072_cop_s03_c50_boat_10_n04273569_4380.png
subject-03,1,73,NaN,na,bird,c01,0073_cop_s03_c01_bird_10_n01829413_6393.png
subject-03,1,74,0.635511875152588,boat,elephant,c01,0074_cop_s03_c01_elephant_10_n02504458_1022.png
subject-03,1,75,0.881379127502441,clock,dog,c01,0075_cop_s03_c01_dog_10_n02111500_8079.png
subject-03,1,76,0.703020095825195,car,truck,c30,0076_cop_s03_c30_truck_10_n04467665_2199.png
subject-03,1,77,1.14087104797363,truck,boat,c01,0077_cop_s03_c01_boat_10_n04273569_1288.png
subject-03,1,78,0.754793882369995,bear,truck,c01,0078_cop_s03_c01_truck_10_n03796401_21335.png
subject-03,1,79,0.774826049804688,boat,bird,c03,0079_cop_s03_c03_bird_10_n01592084_5936.png
subject-03,1,80,1.39283800125122,car,bottle,c15,0080_cop_s03_c15_bottle_10_n04591713_6842.png
subject-03,1,81,0.674871921539307,bottle,bottle,c30,0081_cop_s03_c30_bottle_10_n03983396_5545.png
subject-03,1,82,0.942454814910889,clock,knife,c03,0082_cop_s03_c03_knife_10_n03041632_89912.png
subject-03,1,83,1.0125470161438,bear,oven,c30,0083_cop_s03_c30_oven_10_n04111531_9692.png
subject-03,1,84,1.19443011283875,oven,bicycle,c01,0084_cop_s03_c01_bicycle_10_n02835271_1436.png
subject-03,1,85,1.1003098487854,car,dog,c01,0085_cop_s03_c01_dog_10_n02110185_14953.png
subject-03,1,86,1.48383092880249,bear,clock,c100,0086_cop_s03_c100_clock_10_n04548280_2383.png
subject-03,1,87,0.641528129577637,airplane,airplane,c10,0087_cop_s03_c10_airplane_10_n02690373_9642.png
subject-03,1,88,0.591647148132324,boat,boat,c30,0088_cop_s03_c30_boat_10_n04273569_1709.png
subject-03,1,89,0.593190908432007,bottle,bottle,c50,0089_cop_s03_c50_bottle_10_n04591713_3284.png
subject-03,1,90,1.2028660774231,truck,elephant,c05,0090_cop_s03_c05_elephant_10_n02504458_1816.png
subject-03,1,91,0.706783771514893,truck,truck,c15,0091_cop_s03_c15_truck_10_n03417042_8654.png
subject-03,1,92,0.566738128662109,bottle,bottle,c100,0092_cop_s03_c100_bottle_10_n04557648_988.png
subject-03,1,93,1.18432903289795,oven,knife,c30,0093_cop_s03_c30_knife_10_n03041632_30565.png
subject-03,1,94,0.936115980148315,bear,elephant,c15,0094_cop_s03_c15_elephant_10_n02504458_1891.png
subject-03,1,95,0.796300888061523,bird,bird,c05,0095_cop_s03_c05_bird_10_n01616318_2700.png
subject-03,1,96,1.10004305839539,elephant,clock,c10,0096_cop_s03_c10_clock_10_n04548280_8390.png
subject-03,1,97,0.731739044189453,clock,clock,c100,0097_cop_s03_c100_clock_10_n03196217_9197.png
subject-03,1,98,0.719605922698975,oven,oven,c50,0098_cop_s03_c50_oven_10_n04111531_15852.png
subject-03,1,99,1.21124720573425,bear,bird,c15,0099_cop_s03_c15_bird_10_n01860187_38598.png
subject-03,1,100,0.843080043792725,boat,bottle,c15,0100_cop_s03_c15_bottle_10_n02823428_780.png
subject-03,1,101,0.70293402671814,car,knife,c30,0101_cop_s03_c30_knife_10_n03041632_35764.png
subject-03,1,102,0.462774038314819,cat,cat,c15,0102_cop_s03_c15_cat_10_n02123045_12200.png
subject-03,1,103,0.832533121109009,bicycle,bicycle,c50,0103_cop_s03_c50_bicycle_10_n03792782_11023.png
subject-03,1,104,NaN,na,cat,c01,0104_cop_s03_c01_cat_10_n02123394_4714.png
subject-03,1,105,NaN,na,bicycle,c05,0105_cop_s03_c05_bicycle_10_n03792782_38641.png
subject-03,1,106,0.647974967956543,keyboard,keyboard,c05,0106_cop_s03_c05_keyboard_10_n04505470_3207.png
subject-03,1,107,NaN,na,bottle,c03,0107_cop_s03_c03_bottle_10_n03937543_5257.png
subject-03,1,108,0.84384298324585,oven,cat,c03,0108_cop_s03_c03_cat_10_n02124075_12430.png
subject-03,1,109,0.735192060470581,bear,bear,c30,0109_cop_s03_c30_bear_10_n02134084_10839.png
subject-03,1,110,1.22917199134827,car,elephant,c05,0110_cop_s03_c05_elephant_10_n02504458_6018.png
subject-03,1,111,0.961021900177002,airplane,boat,c01,0111_cop_s03_c01_boat_10_n03344393_8761.png
subject-03,1,112,1.29721188545227,cat,bird,c30,0112_cop_s03_c30_bird_10_n01796340_10024.png
subject-03,1,113,1.47870516777039,bear,truck,c05,0113_cop_s03_c05_truck_10_n03417042_2230.png
subject-03,1,114,0.972434997558594,knife,knife,c50,0114_cop_s03_c50_knife_10_n03041632_27575.png
subject-03,1,115,0.646233081817627,car,car,c50,0115_cop_s03_c50_car_10_n03100240_21982.png
subject-03,1,116,1.05443596839905,boat,oven,c03,0116_cop_s03_c03_oven_10_n04111531_5659.png
subject-03,1,117,0.938217163085938,bicycle,bicycle,c15,0117_cop_s03_c15_bicycle_10_n03792782_20193.png
subject-03,1,118,0.635674953460693,bicycle,bicycle,c15,0118_cop_s03_c15_bicycle_10_n03792782_14642.png
subject-03,1,119,1.35953092575073,elephant,elephant,c15,0119_cop_s03_c15_elephant_10_n02504458_2607.png
subject-03,1,120,1.44730687141418,car,bottle,c05,0120_cop_s03_c05_bottle_10_n03937543_2873.png
subject-03,1,121,0.953089952468872,oven,bear,c03,0121_cop_s03_c03_bear_10_n02133161_1059.png
subject-03,1,122,0.845310926437378,cat,oven,c01,0122_cop_s03_c01_oven_10_n04111531_12702.png
subject-03,1,123,1.42494297027588,bear,elephant,c05,0123_cop_s03_c05_elephant_10_n02504013_648.png
subject-03,1,124,0.574548959732056,cat,cat,c100,0124_cop_s03_c100_cat_10_n02123597_9444.png
subject-03,1,125,0.812317132949829,car,bottle,c05,0125_cop_s03_c05_bottle_10_n04579145_2910.png
subject-03,1,126,0.516204833984375,boat,boat,c100,0126_cop_s03_c100_boat_10_n04273569_24747.png
subject-03,1,127,1.0820472240448,cat,knife,c03,0127_cop_s03_c03_knife_10_n03041632_4260.png
subject-03,1,128,1.21580719947815,bicycle,elephant,c50,0128_cop_s03_c50_elephant_10_n02504013_4278.png
subject-03,1,129,0.79572606086731,cat,bottle,c03,0129_cop_s03_c03_bottle_10_n03937543_1840.png
subject-03,1,130,0.691383838653564,bottle,keyboard,c100,0130_cop_s03_c100_keyboard_10_n04505470_5068.png
subject-03,1,131,0.503322124481201,boat,boat,c100,0131_cop_s03_c100_boat_10_n04273569_12214.png
subject-03,1,132,1.02534413337708,oven,chair,c01,0132_cop_s03_c01_chair_10_n03376595_1364.png
subject-03,1,133,0.682944059371948,keyboard,keyboard,c10,0133_cop_s03_c10_keyboard_10_n04505470_6638.png
subject-03,1,134,0.628809928894043,airplane,airplane,c100,0134_cop_s03_c100_airplane_10_n02690373_139.png
subject-03,1,135,0.584963083267212,boat,boat,c100,0135_cop_s03_c100_boat_10_n03344393_646.png
subject-03,1,136,1.16442894935608,cat,bear,c50,0136_cop_s03_c50_bear_10_n02133161_1247.png
subject-03,1,137,1.07216501235962,car,dog,c01,0137_cop_s03_c01_dog_10_n02106550_660.png
subject-03,1,138,0.784490823745728,car,car,c05,0138_cop_s03_c05_car_10_n04285008_12539.png
subject-03,1,139,0.613919019699097,truck,truck,c100,0139_cop_s03_c100_truck_10_n03417042_4420.png
subject-03,1,140,1.19795703887939,boat,truck,c03,0140_cop_s03_c03_truck_10_n03417042_751.png
subject-03,1,141,0.595474004745483,bird,bird,c50,0141_cop_s03_c50_bird_10_n01614925_1908.png
subject-03,1,142,0.909265041351318,bicycle,clock,c01,0142_cop_s03_c01_clock_10_n02708093_6957.png
subject-03,1,143,0.505141019821167,oven,oven,c100,0143_cop_s03_c100_oven_10_n04111531_9411.png
subject-03,1,144,0.966913938522339,keyboard,truck,c03,0144_cop_s03_c03_truck_10_n03796401_28635.png
subject-03,1,145,0.562714099884033,bird,bird,c100,0145_cop_s03_c100_bird_10_n02027492_10246.png
subject-03,1,146,0.662339925765991,cat,oven,c01,0146_cop_s03_c01_oven_10_n04111531_4901.png
subject-03,1,147,0.772332906723022,car,elephant,c03,0147_cop_s03_c03_elephant_10_n02504013_7467.png
subject-03,1,148,1.41210103034973,oven,bird,c05,0148_cop_s03_c05_bird_10_n01616318_57023.png
subject-03,1,149,0.687994956970215,oven,knife,c01,0149_cop_s03_c01_knife_10_n03041632_18126.png
subject-03,1,150,0.587733030319214,bird,bird,c50,0150_cop_s03_c50_bird_10_n02002724_7019.png
subject-03,1,151,0.65957498550415,bottle,bottle,c05,0151_cop_s03_c05_bottle_10_n03983396_11137.png
subject-03,1,152,0.809705018997192,truck,chair,c05,0152_cop_s03_c05_chair_10_n04429376_55163.png
subject-03,1,153,0.727551937103271,clock,bottle,c10,0153_cop_s03_c10_bottle_10_n02823428_721.png
subject-03,1,154,0.484936952590942,cat,cat,c50,0154_cop_s03_c50_cat_10_n02124075_10241.png
subject-03,1,155,0.776710033416748,bird,bird,c03,0155_cop_s03_c03_bird_10_n02002724_13195.png
subject-03,1,156,0.620704174041748,oven,bottle,c30,0156_cop_s03_c30_bottle_10_n04579145_466.png
subject-03,1,157,0.630409002304077,truck,truck,c100,0157_cop_s03_c100_truck_10_n03417042_3338.png
subject-03,1,158,1.12815499305725,chair,chair,c10,0158_cop_s03_c10_chair_10_n04099969_10458.png
subject-03,1,159,0.587889909744263,car,boat,c15,0159_cop_s03_c15_boat_10_n03662601_3011.png
subject-03,1,160,0.527930021286011,knife,knife,c30,0160_cop_s03_c30_knife_10_n03041632_44269.png
subject-03,1,161,0.925689935684204,oven,knife,c50,0161_cop_s03_c50_knife_10_n03041632_4714.png
subject-03,1,162,0.653327941894531,chair,chair,c15,0162_cop_s03_c15_chair_10_n04099969_13811.png
subject-03,1,163,0.563323020935059,boat,elephant,c03,0163_cop_s03_c03_elephant_10_n02504013_1879.png
subject-03,1,164,1.06296014785767,oven,keyboard,c15,0164_cop_s03_c15_keyboard_10_n03085013_23008.png
subject-03,1,165,0.526841878890991,clock,clock,c100,0165_cop_s03_c100_clock_10_n03196217_1275.png
subject-03,1,166,0.908610820770264,car,car,c03,0166_cop_s03_c03_car_10_n04285008_11922.png
subject-03,1,167,0.540274143218994,bird,bird,c10,0167_cop_s03_c10_bird_10_n01622779_684.png
subject-03,1,168,0.866142988204956,oven,oven,c15,0168_cop_s03_c15_oven_10_n04111531_1752.png
subject-03,1,169,0.850100994110107,bear,bear,c05,0169_cop_s03_c05_bear_10_n02134084_6223.png
subject-03,1,170,0.733906984329224,dog,dog,c10,0170_cop_s03_c10_dog_10_n02108422_2739.png
subject-03,1,171,0.583553075790405,keyboard,keyboard,c15,0171_cop_s03_c15_keyboard_10_n04505470_725.png
subject-03,1,172,0.667419910430908,truck,truck,c15,0172_cop_s03_c15_truck_10_n04467665_1015.png
subject-03,1,173,1.22915601730347,elephant,knife,c01,0173_cop_s03_c01_knife_10_n03041632_36235.png
subject-03,1,174,0.589146137237549,clock,clock,c100,0174_cop_s03_c100_clock_10_n02708093_579.png
subject-03,1,175,0.606746912002563,bird,bird,c10,0175_cop_s03_c10_bird_10_n01843065_4020.png
subject-03,1,176,0.821000814437866,oven,bear,c01,0176_cop_s03_c01_bear_10_n02132136_17669.png
subject-03,1,177,0.622450113296509,cat,cat,c100,0177_cop_s03_c100_cat_10_n02125311_1127.png
subject-03,1,178,1.33628916740417,keyboard,bottle,c10,0178_cop_s03_c10_bottle_10_n04557648_2426.png
subject-03,1,179,0.610236883163452,car,car,c15,0179_cop_s03_c15_car_10_n02814533_3117.png
subject-03,1,180,0.648086071014404,clock,clock,c30,0180_cop_s03_c30_clock_10_n02708093_442.png
subject-03,1,181,0.743786096572876,truck,boat,c03,0181_cop_s03_c03_boat_10_n02951358_15072.png
subject-03,1,182,0.811611175537109,bear,knife,c03,0182_cop_s03_c03_knife_10_n03041632_11932.png
subject-03,1,183,0.90762996673584,keyboard,bottle,c01,0183_cop_s03_c01_bottle_10_n04560804_24166.png
subject-03,1,184,1.15895915031433,oven,airplane,c03,0184_cop_s03_c03_airplane_10_n02690373_891.png
subject-03,1,185,0.52509617805481,boat,boat,c05,0185_cop_s03_c05_boat_10_n03344393_5636.png
subject-03,1,186,1.0347888469696,elephant,oven,c05,0186_cop_s03_c05_oven_10_n04111531_6863.png
subject-03,1,187,0.588630199432373,bottle,bottle,c30,0187_cop_s03_c30_bottle_10_n04591713_457.png
subject-03,1,188,0.614506959915161,airplane,airplane,c05,0188_cop_s03_c05_airplane_10_n02690373_9759.png
subject-03,1,189,1.37026715278625,keyboard,chair,c10,0189_cop_s03_c10_chair_10_n04099969_8993.png
subject-03,1,190,1.19201421737671,oven,keyboard,c01,0190_cop_s03_c01_keyboard_10_n03085013_23005.png
subject-03,1,191,0.707775115966797,dog,dog,c30,0191_cop_s03_c30_dog_10_n02101388_8775.png
subject-03,1,192,0.543768882751465,boat,boat,c50,0192_cop_s03_c50_boat_10_n03344393_4243.png
subject-03,1,193,1.23778676986694,oven,oven,c01,0193_cop_s03_c01_oven_10_n04111531_797.png
subject-03,1,194,0.591310977935791,car,car,c15,0194_cop_s03_c15_car_10_n04285008_8323.png
subject-03,1,195,0.561141967773438,keyboard,keyboard,c30,0195_cop_s03_c30_keyboard_10_n04505470_4893.png
subject-03,1,196,0.522831916809082,car,car,c30,0196_cop_s03_c30_car_10_n03100240_10440.png
subject-03,1,197,0.636611938476562,truck,truck,c100,0197_cop_s03_c100_truck_10_n03417042_7365.png
subject-03,1,198,1.12495088577271,cat,bird,c03,0198_cop_s03_c03_bird_10_n02017213_689.png
subject-03,1,199,1.19477701187134,oven,keyboard,c50,0199_cop_s03_c50_keyboard_10_n04505470_9331.png
subject-03,1,200,1.01622319221497,chair,car,c05,0200_cop_s03_c05_car_10_n03100240_3208.png
subject-03,1,201,0.552087068557739,knife,oven,c01,0201_cop_s03_c01_oven_10_n04111531_20953.png
subject-03,1,202,1.35975813865662,boat,boat,c05,0202_cop_s03_c05_boat_10_n04273569_7312.png
subject-03,1,203,0.579658985137939,airplane,airplane,c15,0203_cop_s03_c15_airplane_10_n02690373_1933.png
subject-03,1,204,0.643515825271606,car,car,c05,0204_cop_s03_c05_car_10_n03100240_8591.png
subject-03,1,205,0.543209075927734,clock,clock,c10,0205_cop_s03_c10_clock_10_n02708093_8340.png
subject-03,1,206,0.621035099029541,truck,truck,c05,0206_cop_s03_c05_truck_10_n03796401_20641.png
subject-03,1,207,0.816991090774536,car,chair,c05,0207_cop_s03_c05_chair_10_n02791124_5939.png
subject-03,1,208,0.810860872268677,bird,elephant,c01,0208_cop_s03_c01_elephant_10_n02504013_3864.png
subject-03,1,209,0.710395097732544,car,car,c15,0209_cop_s03_c15_car_10_n03100240_10096.png
subject-03,1,210,0.710342884063721,keyboard,keyboard,c10,0210_cop_s03_c10_keyboard_10_n03085013_8325.png
subject-03,1,211,0.536086082458496,bicycle,bicycle,c30,0211_cop_s03_c30_bicycle_10_n03792782_67167.png
subject-03,1,212,1.34399199485779,chair,truck,c30,0212_cop_s03_c30_truck_10_n03796401_7699.png
subject-03,1,213,1.07367587089539,chair,bear,c03,0213_cop_s03_c03_bear_10_n02133161_968.png
subject-03,1,214,0.701653003692627,dog,knife,c01,0214_cop_s03_c01_knife_10_n03041632_31483.png
subject-03,1,215,0.595279932022095,bicycle,bicycle,c10,0215_cop_s03_c10_bicycle_10_n02835271_12764.png
subject-03,1,216,0.621092081069946,boat,boat,c05,0216_cop_s03_c05_boat_10_n03344393_7735.png
subject-03,1,217,0.766913890838623,oven,oven,c15,0217_cop_s03_c15_oven_10_n04111531_7034.png
subject-03,1,218,1.10278797149658,car,oven,c30,0218_cop_s03_c30_oven_10_n04111531_14269.png
subject-03,1,219,0.784621000289917,chair,chair,c15,0219_cop_s03_c15_chair_10_n03376595_1961.png
subject-03,1,220,0.598893880844116,chair,chair,c50,0220_cop_s03_c50_chair_10_n04099969_48172.png
subject-03,1,221,0.65459680557251,bear,airplane,c50,0221_cop_s03_c50_airplane_10_n02690373_8539.png
subject-03,1,222,0.731971025466919,bear,cat,c01,0222_cop_s03_c01_cat_10_n02123394_7700.png
subject-03,1,223,0.704025983810425,clock,clock,c30,0223_cop_s03_c30_clock_10_n03196217_3780.png
subject-03,1,224,0.880160093307495,airplane,airplane,c10,0224_cop_s03_c10_airplane_10_n02690373_4375.png
subject-03,1,225,0.873353004455566,elephant,elephant,c10,0225_cop_s03_c10_elephant_10_n02504013_1833.png
subject-03,1,226,0.601324796676636,cat,cat,c10,0226_cop_s03_c10_cat_10_n02125311_32129.png
subject-03,1,227,0.787049055099487,bear,chair,c05,0227_cop_s03_c05_chair_10_n02791124_1737.png
subject-03,1,228,0.609185934066772,keyboard,keyboard,c05,0228_cop_s03_c05_keyboard_10_n04505470_8822.png
subject-03,1,229,0.501129865646362,boat,boat,c100,0229_cop_s03_c100_boat_10_n03344393_1131.png
subject-03,1,230,1.00236010551453,oven,clock,c05,0230_cop_s03_c05_clock_10_n02708093_1559.png
subject-03,1,231,0.774724006652832,knife,knife,c30,0231_cop_s03_c30_knife_10_n03041632_11495.png
subject-03,1,232,0.572307109832764,boat,boat,c10,0232_cop_s03_c10_boat_10_n04273569_10292.png
subject-03,1,233,1.05010604858398,truck,truck,c03,0233_cop_s03_c03_truck_10_n04467665_276.png
subject-03,1,234,0.645947933197021,car,car,c03,0234_cop_s03_c03_car_10_n04285008_1453.png
subject-03,1,235,0.621649026870728,airplane,airplane,c100,0235_cop_s03_c100_airplane_10_n02690373_871.png
subject-03,1,236,0.795902013778687,truck,truck,c50,0236_cop_s03_c50_truck_10_n03417042_10993.png
subject-03,1,237,0.669331073760986,truck,truck,c05,0237_cop_s03_c05_truck_10_n04467665_11609.png
subject-03,1,238,1.17722296714783,bird,bird,c15,0238_cop_s03_c15_bird_10_n02009229_4224.png
subject-03,1,239,0.607234001159668,cat,cat,c30,0239_cop_s03_c30_cat_10_n02124075_10155.png
subject-03,1,240,0.608741044998169,dog,bottle,c03,0240_cop_s03_c03_bottle_10_n03983396_7378.png
subject-03,1,241,0.794083118438721,oven,oven,c100,0241_cop_s03_c100_oven_10_n04111531_2350.png
subject-03,1,242,0.687768936157227,oven,oven,c30,0242_cop_s03_c30_oven_10_n04111531_8963.png
subject-03,1,243,0.830124139785767,cat,dog,c100,0243_cop_s03_c100_dog_10_n02090622_5881.png
subject-03,1,244,0.769349098205566,bird,bear,c01,0244_cop_s03_c01_bear_10_n02133161_16808.png
subject-03,1,245,0.723269939422607,car,dog,c05,0245_cop_s03_c05_dog_10_n02099849_6384.png
subject-03,1,246,0.76728892326355,dog,dog,c15,0246_cop_s03_c15_dog_10_n02097658_5000.png
subject-03,1,247,0.719257831573486,dog,dog,c03,0247_cop_s03_c03_dog_10_n02099429_1992.png
subject-03,1,248,0.700637102127075,keyboard,keyboard,c30,0248_cop_s03_c30_keyboard_10_n03085013_21050.png
subject-03,1,249,1.14475989341736,elephant,cat,c30,0249_cop_s03_c30_cat_10_n02125311_5717.png
subject-03,1,250,0.770328998565674,car,clock,c03,0250_cop_s03_c03_clock_10_n03196217_813.png
subject-03,1,251,1.21220898628235,knife,knife,c15,0251_cop_s03_c15_knife_10_n03041632_45090.png
subject-03,1,252,0.708156108856201,clock,clock,c05,0252_cop_s03_c05_clock_10_n02708093_3750.png
subject-03,1,253,0.745642900466919,oven,bicycle,c01,0253_cop_s03_c01_bicycle_10_n03792782_19053.png
subject-03,1,254,0.45983099937439,car,car,c100,0254_cop_s03_c100_car_10_n02814533_35760.png
subject-03,1,255,0.599458932876587,truck,oven,c01,0255_cop_s03_c01_oven_10_n04111531_21248.png
subject-03,1,256,0.439343929290771,bear,dog,c03,0256_cop_s03_c03_dog_10_n02113712_4486.png
subject-03,1,257,0.519097089767456,cat,cat,c15,0257_cop_s03_c15_cat_10_n02124075_2392.png
subject-03,1,258,0.828781127929688,bicycle,cat,c01,0258_cop_s03_c01_cat_10_n02123045_7334.png
subject-03,1,259,0.562757015228271,clock,clock,c10,0259_cop_s03_c10_clock_10_n02708093_149.png
subject-03,1,260,0.782396078109741,oven,oven,c30,0260_cop_s03_c30_oven_10_n04111531_10710.png
subject-03,1,261,1.00834107398987,knife,knife,c10,0261_cop_s03_c10_knife_10_n03041632_16020.png
subject-03,1,262,0.916286945343018,oven,bear,c100,0262_cop_s03_c100_bear_10_n02134418_1218.png
subject-03,1,263,1.09397888183594,elephant,boat,c03,0263_cop_s03_c03_boat_10_n03662601_6462.png
subject-03,1,264,0.607614040374756,boat,boat,c30,0264_cop_s03_c30_boat_10_n03344393_4583.png
subject-03,1,265,0.911439895629883,boat,airplane,c05,0265_cop_s03_c05_airplane_10_n02690373_8746.png
subject-03,1,266,0.66338586807251,bottle,bottle,c100,0266_cop_s03_c100_bottle_10_n04557648_14715.png
subject-03,1,267,0.893292188644409,bicycle,bicycle,c50,0267_cop_s03_c50_bicycle_10_n02835271_3383.png
subject-03,1,268,0.597373962402344,chair,chair,c100,0268_cop_s03_c100_chair_10_n04429376_6308.png
subject-03,1,269,0.988874912261963,oven,boat,c03,0269_cop_s03_c03_boat_10_n02951358_10488.png
subject-03,1,270,0.638790845870972,airplane,chair,c01,0270_cop_s03_c01_chair_10_n04099969_6913.png
subject-03,1,271,1.20656991004944,bear,bear,c15,0271_cop_s03_c15_bear_10_n02134084_4859.png
subject-03,1,272,0.736286878585815,keyboard,keyboard,c30,0272_cop_s03_c30_keyboard_10_n03085013_20462.png
subject-03,1,273,1.37791395187378,truck,bird,c10,0273_cop_s03_c10_bird_10_n01820546_2924.png
subject-03,1,274,0.731948137283325,boat,boat,c100,0274_cop_s03_c100_boat_10_n02951358_14528.png
subject-03,1,275,1.20155000686646,car,oven,c15,0275_cop_s03_c15_oven_10_n04111531_8255.png
subject-03,1,276,0.61354398727417,bottle,bottle,c100,0276_cop_s03_c100_bottle_10_n04560804_14130.png
subject-03,1,277,0.963346004486084,bottle,chair,c05,0277_cop_s03_c05_chair_10_n02791124_4296.png
subject-03,1,278,1.07344102859497,truck,oven,c03,0278_cop_s03_c03_oven_10_n04111531_1778.png
subject-03,1,279,0.646991014480591,boat,airplane,c03,0279_cop_s03_c03_airplane_10_n02690373_8743.png
subject-03,1,280,0.584636926651001,keyboard,keyboard,c10,0280_cop_s03_c10_keyboard_10_n03085013_18649.png
subject-03,1,281,0.712567806243896,oven,bear,c03,0281_cop_s03_c03_bear_10_n02134084_169.png
subject-03,1,282,0.706291198730469,bear,bear,c50,0282_cop_s03_c50_bear_10_n02132136_27823.png
subject-03,1,283,0.668273210525513,oven,car,c03,0283_cop_s03_c03_car_10_n02814533_33602.png
subject-03,1,284,0.756086111068726,oven,cat,c01,0284_cop_s03_c01_cat_10_n02123597_23389.png
subject-03,1,285,0.453759908676147,oven,clock,c01,0285_cop_s03_c01_clock_10_n02708093_7929.png
subject-03,1,286,0.541701078414917,bottle,bottle,c100,0286_cop_s03_c100_bottle_10_n03983396_2182.png
subject-03,1,287,1.14538288116455,keyboard,keyboard,c15,0287_cop_s03_c15_keyboard_10_n04505470_1236.png
subject-03,1,288,0.685274839401245,dog,dog,c10,0288_cop_s03_c10_dog_10_n02096294_1043.png
subject-03,1,289,0.781061172485352,boat,bird,c10,0289_cop_s03_c10_bird_10_n02007558_45529.png
subject-03,1,290,0.767024040222168,dog,dog,c50,0290_cop_s03_c50_dog_10_n02111500_5154.png
subject-03,1,291,0.994737863540649,oven,oven,c15,0291_cop_s03_c15_oven_10_n04111531_4549.png
subject-03,1,292,0.628503084182739,bird,bird,c50,0292_cop_s03_c50_bird_10_n01829413_14594.png
subject-03,1,293,0.700654029846191,keyboard,keyboard,c50,0293_cop_s03_c50_keyboard_10_n03085013_20682.png
subject-03,1,294,0.718189001083374,chair,dog,c30,0294_cop_s03_c30_dog_10_n02107312_860.png
subject-03,1,295,0.992112159729004,bear,bottle,c03,0295_cop_s03_c03_bottle_10_n04579145_2298.png
subject-03,1,296,0.757775068283081,boat,boat,c50,0296_cop_s03_c50_boat_10_n03344393_629.png
subject-03,1,297,0.891967058181763,bicycle,bicycle,c30,0297_cop_s03_c30_bicycle_10_n03792782_10526.png
subject-03,1,298,0.691420078277588,oven,oven,c30,0298_cop_s03_c30_oven_10_n04111531_1442.png
subject-03,1,299,0.755220890045166,boat,boat,c30,0299_cop_s03_c30_boat_10_n03662601_3823.png
subject-03,1,300,0.782925128936768,elephant,bear,c10,0300_cop_s03_c10_bear_10_n02133161_14945.png
subject-03,1,301,0.900647878646851,truck,car,c10,0301_cop_s03_c10_car_10_n02814533_1480.png
subject-03,1,302,0.71672797203064,bicycle,bicycle,c100,0302_cop_s03_c100_bicycle_10_n03792782_11297.png
subject-03,1,303,1.32865500450134,knife,knife,c50,0303_cop_s03_c50_knife_10_n03041632_1006.png
subject-03,1,304,1.40824604034424,chair,keyboard,c01,0304_cop_s03_c01_keyboard_10_n03085013_24442.png
subject-03,1,305,0.65995717048645,dog,dog,c10,0305_cop_s03_c10_dog_10_n02092339_2268.png
subject-03,1,306,0.741872072219849,clock,clock,c10,0306_cop_s03_c10_clock_10_n03196217_4527.png
subject-03,1,307,1.01755785942078,chair,bottle,c15,0307_cop_s03_c15_bottle_10_n04557648_1634.png
subject-03,1,308,0.699348926544189,bear,bear,c05,0308_cop_s03_c05_bear_10_n02133161_313.png
subject-03,1,309,0.759467840194702,cat,bear,c100,0309_cop_s03_c100_bear_10_n02133161_741.png
subject-03,1,310,0.573362112045288,bicycle,bicycle,c100,0310_cop_s03_c100_bicycle_10_n02835271_2885.png
subject-03,1,311,0.690797090530396,car,car,c50,0311_cop_s03_c50_car_10_n04285008_507.png
subject-03,1,312,0.802680015563965,truck,keyboard,c03,0312_cop_s03_c03_keyboard_10_n03085013_21447.png
subject-03,1,313,0.702527046203613,boat,boat,c15,0313_cop_s03_c15_boat_10_n03344393_6467.png
subject-03,1,314,0.900236129760742,oven,bicycle,c03,0314_cop_s03_c03_bicycle_10_n03792782_8357.png
subject-03,1,315,0.830107927322388,keyboard,truck,c01,0315_cop_s03_c01_truck_10_n03417042_908.png
subject-03,1,316,0.638100147247314,chair,chair,c05,0316_cop_s03_c05_chair_10_n03376595_8953.png
subject-03,1,317,0.873867988586426,oven,bird,c15,0317_cop_s03_c15_bird_10_n01532829_2263.png
subject-03,1,318,0.641845941543579,bottle,bottle,c50,0318_cop_s03_c50_bottle_10_n03983396_105.png
subject-03,1,319,1.2592670917511,truck,car,c03,0319_cop_s03_c03_car_10_n02814533_2236.png
subject-03,1,320,0.659262895584106,clock,clock,c30,0320_cop_s03_c30_clock_10_n02708093_6595.png
subject-03,1,321,0.803148031234741,truck,truck,c10,0321_cop_s03_c10_truck_10_n04467665_57085.png
subject-03,1,322,0.554929971694946,airplane,airplane,c50,0322_cop_s03_c50_airplane_10_n02690373_911.png
subject-03,1,323,0.70439600944519,truck,truck,c100,0323_cop_s03_c100_truck_10_n04467665_27096.png
subject-03,1,324,0.846283912658691,elephant,elephant,c50,0324_cop_s03_c50_elephant_10_n02504458_3684.png
subject-03,1,325,1.13807606697083,elephant,keyboard,c03,0325_cop_s03_c03_keyboard_10_n03085013_4673.png
subject-03,1,326,0.75629997253418,chair,cat,c10,0326_cop_s03_c10_cat_10_n02125311_14569.png
subject-03,1,327,0.601565837860107,chair,chair,c10,0327_cop_s03_c10_chair_10_n04099969_4009.png
subject-03,1,328,1.07944011688232,cat,clock,c05,0328_cop_s03_c05_clock_10_n03196217_127.png
subject-03,1,329,1.50007700920105,bottle,knife,c100,0329_cop_s03_c100_knife_10_n03041632_4044.png
subject-03,1,330,0.691294193267822,car,car,c50,0330_cop_s03_c50_car_10_n03100240_2985.png
subject-03,1,331,0.730998992919922,bear,keyboard,c05,0331_cop_s03_c05_keyboard_10_n03085013_2227.png
subject-03,1,332,0.62278413772583,cat,cat,c50,0332_cop_s03_c50_cat_10_n02123159_7647.png
subject-03,1,333,0.962578058242798,chair,chair,c03,0333_cop_s03_c03_chair_10_n04099969_9713.png
subject-03,1,334,0.476391077041626,boat,boat,c50,0334_cop_s03_c50_boat_10_n04612504_11939.png
subject-03,1,335,0.982065916061401,airplane,elephant,c10,0335_cop_s03_c10_elephant_10_n02504013_2128.png
subject-03,1,336,1.38201999664307,chair,chair,c30,0336_cop_s03_c30_chair_10_n04429376_9000.png
subject-03,1,337,1.33978295326233,keyboard,keyboard,c03,0337_cop_s03_c03_keyboard_10_n04505470_4887.png
subject-03,1,338,0.841786861419678,airplane,airplane,c15,0338_cop_s03_c15_airplane_10_n02690373_4921.png
subject-03,1,339,0.499821901321411,cat,cat,c30,0339_cop_s03_c30_cat_10_n02123045_3575.png
subject-03,1,340,0.783405065536499,clock,truck,c01,0340_cop_s03_c01_truck_10_n03796401_2226.png
subject-03,1,341,0.523118019104004,cat,cat,c30,0341_cop_s03_c30_cat_10_n02124075_11970.png
subject-03,1,342,0.720890045166016,clock,clock,c15,0342_cop_s03_c15_clock_10_n04548280_5519.png
subject-03,1,343,0.784993886947632,dog,dog,c50,0343_cop_s03_c50_dog_10_n02093991_6192.png
subject-03,1,344,0.818454027175903,chair,chair,c30,0344_cop_s03_c30_chair_10_n02791124_5401.png
subject-03,1,345,1.06622290611267,airplane,airplane,c30,0345_cop_s03_c30_airplane_10_n02690373_5247.png
subject-03,1,346,1.00630617141724,bear,bottle,c01,0346_cop_s03_c01_bottle_10_n04557648_11142.png
subject-03,1,347,0.94035816192627,bicycle,bicycle,c50,0347_cop_s03_c50_bicycle_10_n02835271_7958.png
subject-03,1,348,0.935915231704712,chair,chair,c30,0348_cop_s03_c30_chair_10_n04099969_34525.png
subject-03,1,349,0.725805997848511,keyboard,keyboard,c10,0349_cop_s03_c10_keyboard_10_n04505470_4374.png
subject-03,1,350,0.647372961044312,cat,cat,c10,0350_cop_s03_c10_cat_10_n02123597_4357.png
subject-03,1,351,0.993196964263916,oven,oven,c15,0351_cop_s03_c15_oven_10_n04111531_6094.png
subject-03,1,352,1.04940295219421,truck,cat,c05,0352_cop_s03_c05_cat_10_n02123045_15474.png
subject-03,1,353,0.905037879943848,bird,bird,c05,0353_cop_s03_c05_bird_10_n01582220_4784.png
subject-03,1,354,0.832633018493652,bird,chair,c01,0354_cop_s03_c01_chair_10_n04099969_10266.png
subject-03,1,355,0.980437994003296,bear,bear,c100,0355_cop_s03_c100_bear_10_n02132136_14778.png
subject-03,1,356,0.916285037994385,cat,cat,c30,0356_cop_s03_c30_cat_10_n02123159_5257.png
subject-03,1,357,1.378014087677,boat,bicycle,c100,0357_cop_s03_c100_bicycle_10_n03792782_15557.png
subject-03,1,358,1.44997596740723,bottle,bird,c03,0358_cop_s03_c03_bird_10_n02011460_2886.png
subject-03,1,359,1.27978014945984,car,car,c03,0359_cop_s03_c03_car_10_n04285008_2460.png
subject-03,1,360,0.877536058425903,oven,oven,c15,0360_cop_s03_c15_oven_10_n04111531_1977.png
subject-03,1,361,1.40324902534485,cat,oven,c50,0361_cop_s03_c50_oven_10_n04111531_452.png
subject-03,1,362,1.2634551525116,bicycle,oven,c30,0362_cop_s03_c30_oven_10_n04111531_467.png
subject-03,1,363,1.05693817138672,airplane,knife,c01,0363_cop_s03_c01_knife_10_n03041632_21590.png
subject-03,1,364,1.03269505500793,airplane,airplane,c30,0364_cop_s03_c30_airplane_10_n02690373_8789.png
subject-03,1,365,1.07049894332886,car,oven,c01,0365_cop_s03_c01_oven_10_n04111531_22120.png
subject-03,1,366,0.956757068634033,truck,dog,c01,0366_cop_s03_c01_dog_10_n02090622_1126.png
subject-03,1,367,1.24217700958252,clock,clock,c30,0367_cop_s03_c30_clock_10_n03196217_4537.png
subject-03,1,368,0.797928094863892,car,car,c15,0368_cop_s03_c15_car_10_n04285008_8443.png
subject-03,1,369,0.999763011932373,elephant,oven,c03,0369_cop_s03_c03_oven_10_n04111531_14611.png
subject-03,1,370,0.923486948013306,cat,knife,c05,0370_cop_s03_c05_knife_10_n03041632_46112.png
subject-03,1,371,1.00349497795105,bear,knife,c03,0371_cop_s03_c03_knife_10_n03041632_36390.png
subject-03,1,372,0.899119853973389,bird,bird,c05,0372_cop_s03_c05_bird_10_n02025239_3669.png
subject-03,1,373,1.47508311271667,bear,dog,c03,0373_cop_s03_c03_dog_10_n02091467_9499.png
subject-03,1,374,0.873330116271973,bicycle,bicycle,c50,0374_cop_s03_c50_bicycle_10_n02835271_5751.png
subject-03,1,375,0.760794878005981,oven,oven,c10,0375_cop_s03_c10_oven_10_n04111531_1898.png
subject-03,1,376,0.982426881790161,elephant,airplane,c03,0376_cop_s03_c03_airplane_10_n02690373_10006.png
subject-03,1,377,0.856396913528442,chair,truck,c01,0377_cop_s03_c01_truck_10_n04467665_32090.png
subject-03,1,378,1.19408893585205,car,bottle,c03,0378_cop_s03_c03_bottle_10_n04560804_722.png
subject-03,1,379,0.91404914855957,chair,oven,c15,0379_cop_s03_c15_oven_10_n04111531_22403.png
subject-03,1,380,1.39972805976868,cat,chair,c05,0380_cop_s03_c05_chair_10_n02791124_3531.png
subject-03,1,381,1.19756507873535,bottle,dog,c03,0381_cop_s03_c03_dog_10_n02093991_247.png
subject-03,1,382,0.637465000152588,bicycle,bicycle,c30,0382_cop_s03_c30_bicycle_10_n03792782_2628.png
subject-03,1,383,1.08515000343323,truck,bear,c15,0383_cop_s03_c15_bear_10_n02134084_24140.png
subject-03,1,384,0.892847061157227,airplane,dog,c03,0384_cop_s03_c03_dog_10_n02097474_9129.png
subject-03,1,385,0.77665901184082,oven,boat,c03,0385_cop_s03_c03_boat_10_n04273569_6180.png
subject-03,1,386,0.996592044830322,bear,bicycle,c05,0386_cop_s03_c05_bicycle_10_n03792782_5284.png
subject-03,1,387,0.510463953018188,airplane,airplane,c50,0387_cop_s03_c50_airplane_10_n02690373_4964.png
subject-03,1,388,1.19210004806519,bear,dog,c03,0388_cop_s03_c03_dog_10_n02102480_7875.png
subject-03,1,389,0.816181898117065,car,car,c30,0389_cop_s03_c30_car_10_n03100240_17245.png
subject-03,1,390,0.777868986129761,elephant,elephant,c30,0390_cop_s03_c30_elephant_10_n02504458_3225.png
subject-03,1,391,0.999516010284424,chair,dog,c01,0391_cop_s03_c01_dog_10_n02107908_12294.png
subject-03,1,392,1.0634241104126,truck,clock,c01,0392_cop_s03_c01_clock_10_n04548280_2374.png
subject-03,1,393,0.745285987854004,bird,bird,c50,0393_cop_s03_c50_bird_10_n01560419_6583.png
subject-03,1,394,0.620980024337769,airplane,airplane,c100,0394_cop_s03_c100_airplane_10_n02690373_736.png
subject-03,1,395,1.19080090522766,bottle,airplane,c01,0395_cop_s03_c01_airplane_10_n02690373_13613.png
subject-03,1,396,0.674789905548096,airplane,airplane,c30,0396_cop_s03_c30_airplane_10_n02690373_7676.png
subject-03,1,397,0.886653900146484,car,truck,c05,0397_cop_s03_c05_truck_10_n03417042_708.png
subject-03,1,398,0.678354024887085,airplane,airplane,c100,0398_cop_s03_c100_airplane_10_n02690373_13078.png
subject-03,1,399,1.23807001113892,car,car,c50,0399_cop_s03_c50_car_10_n03100240_2528.png
subject-03,1,400,1.01393413543701,keyboard,keyboard,c100,0400_cop_s03_c100_keyboard_10_n04505470_9395.png
subject-03,1,401,0.881623029708862,boat,car,c03,0401_cop_s03_c03_car_10_n04285008_3193.png
subject-03,1,402,0.773469924926758,bird,bird,c50,0402_cop_s03_c50_bird_10_n02027492_6499.png
subject-03,1,403,1.05319499969482,car,cat,c03,0403_cop_s03_c03_cat_10_n02123045_840.png
subject-03,1,404,0.920827865600586,oven,airplane,c03,0404_cop_s03_c03_airplane_10_n02690373_12929.png
subject-03,1,405,0.888730049133301,cat,clock,c15,0405_cop_s03_c15_clock_10_n03196217_5165.png
subject-03,1,406,0.786922931671143,chair,airplane,c01,0406_cop_s03_c01_airplane_10_n02690373_5106.png
subject-03,1,407,1.4243369102478,bird,bird,c50,0407_cop_s03_c50_bird_10_n02033041_6046.png
subject-03,1,408,0.956608057022095,bear,bicycle,c10,0408_cop_s03_c10_bicycle_10_n03792782_77949.png
subject-03,1,409,0.756123065948486,car,car,c30,0409_cop_s03_c30_car_10_n03100240_11693.png
subject-03,1,410,0.936074018478394,elephant,chair,c03,0410_cop_s03_c03_chair_10_n04429376_31331.png
subject-03,1,411,0.897568941116333,elephant,elephant,c01,0411_cop_s03_c01_elephant_10_n02504013_7351.png
subject-03,1,412,0.815440893173218,truck,bicycle,c01,0412_cop_s03_c01_bicycle_10_n02835271_5437.png
subject-03,1,413,0.98145318031311,clock,bottle,c50,0413_cop_s03_c50_bottle_10_n03937543_4425.png
subject-03,1,414,0.907042980194092,clock,keyboard,c01,0414_cop_s03_c01_keyboard_10_n04505470_763.png
subject-03,1,415,0.998847961425781,chair,elephant,c50,0415_cop_s03_c50_elephant_10_n02504458_3182.png
subject-03,1,416,1.34472298622131,bear,cat,c05,0416_cop_s03_c05_cat_10_n02123159_5487.png
subject-03,1,417,0.922642946243286,bicycle,chair,c15,0417_cop_s03_c15_chair_10_n02791124_5706.png
subject-03,1,418,0.658521890640259,keyboard,keyboard,c100,0418_cop_s03_c100_keyboard_10_n04505470_3825.png
subject-03,1,419,1.10609698295593,bird,bird,c15,0419_cop_s03_c15_bird_10_n01819313_4045.png
subject-03,1,420,0.896075963973999,chair,chair,c10,0420_cop_s03_c10_chair_10_n02791124_880.png
subject-03,1,421,0.645825862884521,car,car,c05,0421_cop_s03_c05_car_10_n03100240_159.png
subject-03,1,422,0.851628065109253,bird,bird,c50,0422_cop_s03_c50_bird_10_n01592084_9643.png
subject-03,1,423,1.29731798171997,chair,bicycle,c05,0423_cop_s03_c05_bicycle_10_n03792782_8057.png
subject-03,1,424,1.0012149810791,truck,truck,c03,0424_cop_s03_c03_truck_10_n04467665_28988.png
subject-03,1,425,0.916917085647583,chair,chair,c15,0425_cop_s03_c15_chair_10_n04429376_43275.png
subject-03,1,426,0.934844017028809,elephant,elephant,c100,0426_cop_s03_c100_elephant_10_n02504458_5652.png
subject-03,1,427,0.908694982528687,cat,chair,c03,0427_cop_s03_c03_chair_10_n04099969_2610.png
subject-03,1,428,0.612381935119629,airplane,airplane,c15,0428_cop_s03_c15_airplane_10_n02690373_379.png
subject-03,1,429,1.20418500900269,bottle,oven,c10,0429_cop_s03_c10_oven_10_n04111531_13862.png
subject-03,1,430,0.916017055511475,knife,knife,c50,0430_cop_s03_c50_knife_10_n03041632_39836.png
subject-03,1,431,0.933854103088379,elephant,elephant,c10,0431_cop_s03_c10_elephant_10_n02504013_14948.png
subject-03,1,432,1.50002789497375,knife,elephant,c03,0432_cop_s03_c03_elephant_10_n02504013_6426.png
subject-03,1,433,1.10353302955627,knife,bird,c05,0433_cop_s03_c05_bird_10_n01534433_14198.png
subject-03,1,434,0.761216878890991,oven,oven,c05,0434_cop_s03_c05_oven_10_n04111531_2923.png
subject-03,1,435,0.945367813110352,cat,elephant,c03,0435_cop_s03_c03_elephant_10_n02504013_3634.png
subject-03,1,436,1.01497197151184,bear,airplane,c01,0436_cop_s03_c01_airplane_10_n02690373_9869.png
subject-03,1,437,0.770863056182861,oven,knife,c01,0437_cop_s03_c01_knife_10_n03041632_206.png
subject-03,1,438,0.67061185836792,truck,truck,c100,0438_cop_s03_c100_truck_10_n03417042_23815.png
subject-03,1,439,0.936475038528442,oven,keyboard,c05,0439_cop_s03_c05_keyboard_10_n03085013_12399.png
subject-03,1,440,0.762182950973511,bottle,bottle,c50,0440_cop_s03_c50_bottle_10_n04591713_5607.png
subject-03,1,441,0.668381929397583,chair,chair,c50,0441_cop_s03_c50_chair_10_n02791124_7630.png
subject-03,1,442,0.943795919418335,bird,car,c01,0442_cop_s03_c01_car_10_n03100240_5825.png
subject-03,1,443,0.669682025909424,car,bottle,c01,0443_cop_s03_c01_bottle_10_n02823428_4245.png
subject-03,1,444,0.879406929016113,bottle,chair,c03,0444_cop_s03_c03_chair_10_n02791124_1333.png
subject-03,1,445,0.779479026794434,bird,bird,c50,0445_cop_s03_c50_bird_10_n01855032_1815.png
subject-03,1,446,0.737124919891357,boat,boat,c100,0446_cop_s03_c100_boat_10_n03662601_11901.png
subject-03,1,447,0.90283203125,elephant,bear,c30,0447_cop_s03_c30_bear_10_n02133161_5365.png
subject-03,1,448,0.77876091003418,clock,clock,c100,0448_cop_s03_c100_clock_10_n04548280_1053.png
subject-03,1,449,0.748674869537354,cat,bicycle,c05,0449_cop_s03_c05_bicycle_10_n02835271_10104.png
subject-03,1,450,0.632285833358765,cat,cat,c50,0450_cop_s03_c50_cat_10_n02123159_8273.png
subject-03,1,451,1.21811604499817,oven,knife,c30,0451_cop_s03_c30_knife_10_n03041632_7380.png
subject-03,1,452,0.922192096710205,cat,cat,c30,0452_cop_s03_c30_cat_10_n02123045_11032.png
subject-03,1,453,0.891851186752319,oven,knife,c100,0453_cop_s03_c100_knife_10_n03041632_35116.png
subject-03,1,454,1.08158898353577,chair,chair,c10,0454_cop_s03_c10_chair_10_n04429376_5337.png
subject-03,1,455,1.12328100204468,oven,oven,c15,0455_cop_s03_c15_oven_10_n04111531_8305.png
subject-03,1,456,0.977308034896851,bear,bicycle,c01,0456_cop_s03_c01_bicycle_10_n02835271_8212.png
subject-03,1,457,1.04910707473755,truck,bottle,c05,0457_cop_s03_c05_bottle_10_n04560804_21795.png
subject-03,1,458,1.11088395118713,car,car,c05,0458_cop_s03_c05_car_10_n04285008_3891.png
subject-03,1,459,1.49509000778198,clock,bicycle,c15,0459_cop_s03_c15_bicycle_10_n03792782_13002.png
subject-03,1,460,0.784543037414551,oven,clock,c01,0460_cop_s03_c01_clock_10_n02708093_3484.png
subject-03,1,461,0.622762203216553,truck,truck,c30,0461_cop_s03_c30_truck_10_n03417042_5346.png
subject-03,1,462,0.866201877593994,dog,dog,c30,0462_cop_s03_c30_dog_10_n02113799_18413.png
subject-03,1,463,0.891739130020142,truck,truck,c05,0463_cop_s03_c05_truck_10_n03417042_13806.png
subject-03,1,464,0.655565977096558,car,car,c10,0464_cop_s03_c10_car_10_n03100240_13929.png
subject-03,1,465,0.937386035919189,boat,elephant,c15,0465_cop_s03_c15_elephant_10_n02504458_8923.png
subject-03,1,466,0.743490934371948,car,car,c100,0466_cop_s03_c100_car_10_n04285008_12446.png
subject-03,1,467,0.793138027191162,truck,truck,c100,0467_cop_s03_c100_truck_10_n04467665_4239.png
subject-03,1,468,0.973097085952759,keyboard,clock,c01,0468_cop_s03_c01_clock_10_n02708093_7998.png
subject-03,1,469,0.9046950340271,bear,bear,c05,0469_cop_s03_c05_bear_10_n02132136_22602.png
subject-03,1,470,0.780663013458252,truck,truck,c100,0470_cop_s03_c100_truck_10_n03796401_8100.png
subject-03,1,471,1.25239205360413,bottle,knife,c10,0471_cop_s03_c10_knife_10_n03041632_10140.png
subject-03,1,472,0.838435173034668,bear,dog,c03,0472_cop_s03_c03_dog_10_n02096437_6849.png
subject-03,1,473,0.886132001876831,elephant,elephant,c100,0473_cop_s03_c100_elephant_10_n02504458_99.png
subject-03,1,474,1.36631083488464,dog,cat,c50,0474_cop_s03_c50_cat_10_n02123045_1274.png
subject-03,1,475,0.7258460521698,bottle,bottle,c15,0475_cop_s03_c15_bottle_10_n04557648_5967.png
subject-03,1,476,0.599512100219727,boat,boat,c15,0476_cop_s03_c15_boat_10_n02951358_4972.png
subject-03,1,477,0.687267065048218,car,car,c10,0477_cop_s03_c10_car_10_n03100240_3373.png
subject-03,1,478,0.813293933868408,knife,bird,c01,0478_cop_s03_c01_bird_10_n01820546_1616.png
subject-03,1,479,1.19089198112488,truck,chair,c15,0479_cop_s03_c15_chair_10_n02791124_5268.png
subject-03,1,480,1.17511296272278,oven,car,c01,0480_cop_s03_c01_car_10_n02814533_83665.png
subject-03,1,481,0.685633182525635,bicycle,bicycle,c30,0481_cop_s03_c30_bicycle_10_n03792782_5426.png
subject-03,1,482,0.671535968780518,car,car,c15,0482_cop_s03_c15_car_10_n04285008_5208.png
subject-03,1,483,0.539293050765991,oven,boat,c03,0483_cop_s03_c03_boat_10_n02951358_29817.png
subject-03,1,484,0.55503511428833,bottle,bottle,c50,0484_cop_s03_c50_bottle_10_n04557648_10265.png
subject-03,1,485,0.608699083328247,chair,keyboard,c01,0485_cop_s03_c01_keyboard_10_n04505470_4950.png
subject-03,1,486,1.03874707221985,airplane,knife,c15,0486_cop_s03_c15_knife_10_n03041632_16206.png
subject-03,1,487,0.782556056976318,bear,bear,c50,0487_cop_s03_c50_bear_10_n02133161_4954.png
subject-03,1,488,0.962363958358765,keyboard,bear,c01,0488_cop_s03_c01_bear_10_n02134084_5031.png
subject-03,1,489,0.706094026565552,oven,bottle,c03,0489_cop_s03_c03_bottle_10_n04557648_10944.png
subject-03,1,490,0.77778697013855,keyboard,elephant,c01,0490_cop_s03_c01_elephant_10_n02504458_4244.png
subject-03,1,491,0.715720891952515,boat,boat,c100,0491_cop_s03_c100_boat_10_n02951358_1541.png
subject-03,1,492,0.655564069747925,elephant,elephant,c30,0492_cop_s03_c30_elephant_10_n02504458_3409.png
subject-03,1,493,0.703188896179199,chair,bottle,c10,0493_cop_s03_c10_bottle_10_n04579145_784.png
subject-03,1,494,0.801094055175781,keyboard,keyboard,c50,0494_cop_s03_c50_keyboard_10_n03085013_661.png
subject-03,1,495,1.3649959564209,oven,oven,c50,0495_cop_s03_c50_oven_10_n04111531_23046.png
subject-03,1,496,0.593060970306396,dog,dog,c15,0496_cop_s03_c15_dog_10_n02090379_4952.png
subject-03,1,497,0.828614950180054,bear,keyboard,c01,0497_cop_s03_c01_keyboard_10_n04505470_26.png
subject-03,1,498,0.548470020294189,keyboard,keyboard,c15,0498_cop_s03_c15_keyboard_10_n04505470_5057.png
subject-03,1,499,1.5,chair,bottle,c100,0499_cop_s03_c100_bottle_10_n03937543_2123.png
subject-03,1,500,0.744131088256836,clock,elephant,c01,0500_cop_s03_c01_elephant_10_n02504458_7207.png
subject-03,1,501,1.2496440410614,elephant,elephant,c15,0501_cop_s03_c15_elephant_10_n02504013_3459.png
subject-03,1,502,0.705609083175659,bicycle,bicycle,c30,0502_cop_s03_c30_bicycle_10_n02835271_4677.png
subject-03,1,503,1.05739212036133,truck,boat,c05,0503_cop_s03_c05_boat_10_n04273569_6586.png
subject-03,1,504,0.767240047454834,cat,dog,c10,0504_cop_s03_c10_dog_10_n02111129_932.png
subject-03,1,505,0.816915988922119,cat,cat,c03,0505_cop_s03_c03_cat_10_n02123597_14713.png
subject-03,1,506,0.841218948364258,truck,truck,c10,0506_cop_s03_c10_truck_10_n03417042_5604.png
subject-03,1,507,0.624592065811157,oven,oven,c100,0507_cop_s03_c100_oven_10_n04111531_6567.png
subject-03,1,508,0.602674007415771,cat,cat,c100,0508_cop_s03_c100_cat_10_n02123045_9583.png
subject-03,1,509,0.962219953536987,chair,boat,c03,0509_cop_s03_c03_boat_10_n03344393_4213.png
subject-03,1,510,0.612243890762329,boat,boat,c50,0510_cop_s03_c50_boat_10_n02951358_22332.png
subject-03,1,511,1.16389298439026,boat,airplane,c05,0511_cop_s03_c05_airplane_10_n02690373_2607.png
subject-03,1,512,0.665735960006714,keyboard,keyboard,c30,0512_cop_s03_c30_keyboard_10_n03085013_21399.png
subject-03,1,513,0.587979078292847,bird,bird,c10,0513_cop_s03_c10_bird_10_n01622779_1961.png
subject-03,1,514,0.859384059906006,cat,cat,c30,0514_cop_s03_c30_cat_10_n02123394_2285.png
subject-03,1,515,0.681301116943359,bird,clock,c50,0515_cop_s03_c50_clock_10_n02708093_6835.png
subject-03,1,516,0.644867897033691,bottle,bottle,c10,0516_cop_s03_c10_bottle_10_n03983396_4227.png
subject-03,1,517,0.98894190788269,bird,dog,c50,0517_cop_s03_c50_dog_10_n02087046_4421.png
subject-03,1,518,0.53675103187561,clock,clock,c50,0518_cop_s03_c50_clock_10_n03196217_3475.png
subject-03,1,519,0.868370056152344,chair,airplane,c15,0519_cop_s03_c15_airplane_10_n02690373_1952.png
subject-03,1,520,1.39418077468872,bottle,bottle,c50,0520_cop_s03_c50_bottle_10_n04560804_5756.png
subject-03,1,521,1.19212579727173,clock,clock,c50,0521_cop_s03_c50_clock_10_n02708093_3759.png
subject-03,1,522,0.660372018814087,airplane,airplane,c30,0522_cop_s03_c30_airplane_10_n02690373_8876.png
subject-03,1,523,0.885562896728516,bicycle,bicycle,c15,0523_cop_s03_c15_bicycle_10_n03792782_7165.png
subject-03,1,524,0.671818017959595,bear,bear,c100,0524_cop_s03_c100_bear_10_n02133161_223.png
subject-03,1,525,0.987311840057373,car,bear,c05,0525_cop_s03_c05_bear_10_n02133161_9949.png
subject-03,1,526,0.839269876480103,elephant,bird,c30,0526_cop_s03_c30_bird_10_n02007558_2518.png
subject-03,1,527,1.50000190734863,oven,bottle,c05,0527_cop_s03_c05_bottle_10_n04591713_4019.png
subject-03,1,528,0.794679880142212,truck,truck,c50,0528_cop_s03_c50_truck_10_n03796401_10519.png
subject-03,1,529,0.649004936218262,bird,bird,c30,0529_cop_s03_c30_bird_10_n01824575_9736.png
subject-03,1,530,0.812506198883057,knife,bird,c01,0530_cop_s03_c01_bird_10_n01601694_10802.png
subject-03,1,531,0.830564975738525,bicycle,bicycle,c15,0531_cop_s03_c15_bicycle_10_n03792782_7331.png
subject-03,1,532,1.15988898277283,knife,knife,c30,0532_cop_s03_c30_knife_10_n03041632_1671.png
subject-03,1,533,1.48979187011719,dog,dog,c15,0533_cop_s03_c15_dog_10_n02085782_6792.png
subject-03,1,534,0.702080965042114,bear,knife,c01,0534_cop_s03_c01_knife_10_n03041632_81630.png
subject-03,1,535,0.851438045501709,oven,keyboard,c05,0535_cop_s03_c05_keyboard_10_n04505470_5155.png
subject-03,1,536,0.665163993835449,car,car,c30,0536_cop_s03_c30_car_10_n02814533_18148.png
subject-03,1,537,0.516982078552246,oven,knife,c50,0537_cop_s03_c50_knife_10_n03041632_37274.png
subject-03,1,538,0.823008060455322,bottle,bottle,c05,0538_cop_s03_c05_bottle_10_n04591713_105.png
subject-03,1,539,0.806740045547485,keyboard,keyboard,c50,0539_cop_s03_c50_keyboard_10_n04505470_3117.png
subject-03,1,540,0.796556949615479,truck,cat,c01,0540_cop_s03_c01_cat_10_n02124075_13792.png
subject-03,1,541,1.13255286216736,bear,bear,c10,0541_cop_s03_c10_bear_10_n02133161_546.png
subject-03,1,542,1.06412696838379,keyboard,knife,c30,0542_cop_s03_c30_knife_10_n03041632_77022.png
subject-03,1,543,1.35610103607178,bottle,bear,c03,0543_cop_s03_c03_bear_10_n02134084_6840.png
subject-03,1,544,1.02777504920959,car,clock,c01,0544_cop_s03_c01_clock_10_n02708093_2574.png
subject-03,1,545,0.809507846832275,boat,bear,c05,0545_cop_s03_c05_bear_10_n02134418_6252.png
subject-03,1,546,0.785693883895874,bear,dog,c30,0546_cop_s03_c30_dog_10_n02102480_3679.png
subject-03,1,547,0.655151128768921,bottle,bottle,c10,0547_cop_s03_c10_bottle_10_n02823428_2504.png
subject-03,1,548,0.702940225601196,elephant,elephant,c50,0548_cop_s03_c50_elephant_10_n02504458_4909.png
subject-03,1,549,0.802698135375977,truck,dog,c03,0549_cop_s03_c03_dog_10_n02113799_653.png
subject-03,1,550,0.778745889663696,car,knife,c05,0550_cop_s03_c05_knife_10_n03041632_29886.png
subject-03,1,551,0.718339920043945,keyboard,chair,c100,0551_cop_s03_c100_chair_10_n03376595_7824.png
subject-03,1,552,0.496440172195435,bear,bear,c50,0552_cop_s03_c50_bear_10_n02132136_19512.png
subject-03,1,553,0.536043882369995,dog,dog,c30,0553_cop_s03_c30_dog_10_n02094258_1334.png
subject-03,1,554,1.50006294250488,truck,bear,c05,0554_cop_s03_c05_bear_10_n02134418_3579.png
subject-03,1,555,0.609701871871948,oven,oven,c100,0555_cop_s03_c100_oven_10_n04111531_5991.png
subject-03,1,556,0.641398906707764,car,oven,c03,0556_cop_s03_c03_oven_10_n04111531_5967.png
subject-03,1,557,0.893228054046631,cat,bicycle,c05,0557_cop_s03_c05_bicycle_10_n02835271_6481.png
subject-03,1,558,0.911526918411255,cat,cat,c100,0558_cop_s03_c100_cat_10_n02123394_2984.png
subject-03,1,559,0.521228075027466,bottle,bottle,c50,0559_cop_s03_c50_bottle_10_n02823428_5288.png
subject-03,1,560,1.04276895523071,oven,chair,c01,0560_cop_s03_c01_chair_10_n02791124_5173.png
subject-03,1,561,1.14022898674011,car,bicycle,c01,0561_cop_s03_c01_bicycle_10_n03792782_5437.png
subject-03,1,562,0.836105108261108,truck,truck,c50,0562_cop_s03_c50_truck_10_n04467665_7110.png
subject-03,1,563,0.713837146759033,oven,bottle,c01,0563_cop_s03_c01_bottle_10_n04591713_1879.png
subject-03,1,564,1.24572396278381,cat,oven,c30,0564_cop_s03_c30_oven_10_n04111531_4331.png
subject-03,1,565,0.491657018661499,clock,clock,c30,0565_cop_s03_c30_clock_10_n03196217_3877.png
subject-03,1,566,0.675382137298584,oven,oven,c10,0566_cop_s03_c10_oven_10_n04111531_20429.png
subject-03,1,567,0.55347204208374,boat,boat,c30,0567_cop_s03_c30_boat_10_n03662601_5575.png
subject-03,1,568,0.963150024414062,car,bottle,c01,0568_cop_s03_c01_bottle_10_n03983396_751.png
subject-03,1,569,0.863260984420776,bear,clock,c03,0569_cop_s03_c03_clock_10_n02708093_7257.png
subject-03,1,570,1.50011801719666,chair,keyboard,c10,0570_cop_s03_c10_keyboard_10_n03085013_30073.png
subject-03,1,571,1.21862602233887,chair,bottle,c05,0571_cop_s03_c05_bottle_10_n04557648_4168.png
subject-03,1,572,0.868330001831055,elephant,elephant,c100,0572_cop_s03_c100_elephant_10_n02504458_8615.png
subject-03,1,573,0.686225891113281,dog,dog,c15,0573_cop_s03_c15_dog_10_n02090379_5574.png
subject-03,1,574,0.574074029922485,cat,cat,c100,0574_cop_s03_c100_cat_10_n02123045_9845.png
subject-03,1,575,0.833631992340088,truck,truck,c30,0575_cop_s03_c30_truck_10_n04467665_71074.png
subject-03,1,576,0.951461791992188,bird,bird,c15,0576_cop_s03_c15_bird_10_n02013706_8336.png
subject-03,1,577,1.01564383506775,bear,knife,c01,0577_cop_s03_c01_knife_10_n03041632_8666.png
subject-03,1,578,1.43903398513794,bear,clock,c10,0578_cop_s03_c10_clock_10_n04548280_183.png
subject-03,1,579,1.03894186019897,boat,boat,c50,0579_cop_s03_c50_boat_10_n03662601_12226.png
subject-03,1,580,1.12464594841003,airplane,boat,c15,0580_cop_s03_c15_boat_10_n04273569_16295.png
subject-03,1,581,0.922909021377563,airplane,knife,c05,0581_cop_s03_c05_knife_10_n03041632_13509.png
subject-03,1,582,0.710381984710693,car,oven,c10,0582_cop_s03_c10_oven_10_n04111531_9026.png
subject-03,1,583,1.00029110908508,cat,cat,c03,0583_cop_s03_c03_cat_10_n02124075_2751.png
subject-03,1,584,1.12591695785522,elephant,dog,c05,0584_cop_s03_c05_dog_10_n02094433_5139.png
subject-03,1,585,0.713955163955688,clock,clock,c50,0585_cop_s03_c50_clock_10_n03196217_3006.png
subject-03,1,586,0.903527975082397,car,truck,c30,0586_cop_s03_c30_truck_10_n03417042_3659.png
subject-03,1,587,1.04539918899536,bottle,bicycle,c10,0587_cop_s03_c10_bicycle_10_n03792782_14557.png
subject-03,1,588,0.883559942245483,truck,bear,c03,0588_cop_s03_c03_bear_10_n02133161_10024.png
subject-03,1,589,0.751233100891113,airplane,airplane,c100,0589_cop_s03_c100_airplane_10_n02690373_220.png
subject-03,1,590,0.855040788650513,knife,knife,c05,0590_cop_s03_c05_knife_10_n03041632_30602.png
subject-03,1,591,1.49999499320984,knife,car,c01,0591_cop_s03_c01_car_10_n03100240_3205.png
subject-03,1,592,0.952568054199219,truck,truck,c10,0592_cop_s03_c10_truck_10_n04467665_56815.png
subject-03,1,593,0.774390935897827,car,keyboard,c10,0593_cop_s03_c10_keyboard_10_n03085013_19630.png
subject-03,1,594,0.71419095993042,truck,oven,c05,0594_cop_s03_c05_oven_10_n04111531_8688.png
subject-03,1,595,0.786026000976562,bear,bear,c05,0595_cop_s03_c05_bear_10_n02132136_22835.png
subject-03,1,596,0.583672046661377,chair,chair,c100,0596_cop_s03_c100_chair_10_n04429376_5965.png
subject-03,1,597,1.09151315689087,airplane,bicycle,c100,0597_cop_s03_c100_bicycle_10_n03792782_1363.png
subject-03,1,598,1.05360412597656,boat,car,c01,0598_cop_s03_c01_car_10_n02814533_89472.png
subject-03,1,599,0.687177896499634,airplane,boat,c05,0599_cop_s03_c05_boat_10_n04273569_20587.png
subject-03,1,600,1.06333589553833,bicycle,bicycle,c50,0600_cop_s03_c50_bicycle_10_n03792782_66048.png
subject-03,1,601,0.782901048660278,car,car,c10,0601_cop_s03_c10_car_10_n03100240_8443.png
subject-03,1,602,0.546771049499512,chair,keyboard,c01,0602_cop_s03_c01_keyboard_10_n04505470_4400.png
subject-03,1,603,0.828313112258911,dog,dog,c15,0603_cop_s03_c15_dog_10_n02094114_8231.png
subject-03,1,604,0.69629693031311,cat,cat,c15,0604_cop_s03_c15_cat_10_n02123159_1549.png
subject-03,1,605,0.84598708152771,bird,bird,c30,0605_cop_s03_c30_bird_10_n01843383_296.png
subject-03,1,606,1.45785403251648,truck,truck,c10,0606_cop_s03_c10_truck_10_n03417042_14261.png
subject-03,1,607,0.551784038543701,oven,oven,c100,0607_cop_s03_c100_oven_10_n04111531_9113.png
subject-03,1,608,1.44343185424805,elephant,oven,c10,0608_cop_s03_c10_oven_10_n04111531_14279.png
subject-03,1,609,1.07542991638184,elephant,truck,c01,0609_cop_s03_c01_truck_10_n04467665_3720.png
subject-03,1,610,0.699132919311523,keyboard,keyboard,c100,0610_cop_s03_c100_keyboard_10_n03085013_11332.png
subject-03,1,611,1.09886503219604,keyboard,keyboard,c15,0611_cop_s03_c15_keyboard_10_n03085013_3665.png
subject-03,1,612,0.858880996704102,cat,cat,c10,0612_cop_s03_c10_cat_10_n02123159_6932.png
subject-03,1,613,0.548641204833984,clock,clock,c30,0613_cop_s03_c30_clock_10_n03196217_6814.png
subject-03,1,614,0.650410890579224,car,knife,c03,0614_cop_s03_c03_knife_10_n03041632_48151.png
subject-03,1,615,1.00425505638123,bear,dog,c50,0615_cop_s03_c50_dog_10_n02105056_951.png
subject-03,1,616,0.834033966064453,car,car,c50,0616_cop_s03_c50_car_10_n04285008_12662.png
subject-03,1,617,0.975638151168823,clock,clock,c100,0617_cop_s03_c100_clock_10_n03196217_4947.png
subject-03,1,618,0.495666027069092,cat,cat,c15,0618_cop_s03_c15_cat_10_n02123045_11224.png
subject-03,1,619,0.559416055679321,cat,cat,c15,0619_cop_s03_c15_cat_10_n02123045_20719.png
subject-03,1,620,0.803261041641235,chair,knife,c10,0620_cop_s03_c10_knife_10_n03041632_14817.png
subject-03,1,621,0.820999145507812,car,bear,c50,0621_cop_s03_c50_bear_10_n02133161_13461.png
subject-03,1,622,1.11082410812378,truck,truck,c15,0622_cop_s03_c15_truck_10_n04467665_66065.png
subject-03,1,623,1.04875087738037,dog,airplane,c03,0623_cop_s03_c03_airplane_10_n02690373_10203.png
subject-03,1,624,1.12256503105164,oven,oven,c50,0624_cop_s03_c50_oven_10_n04111531_7421.png
subject-03,1,625,0.578230142593384,car,truck,c50,0625_cop_s03_c50_truck_10_n03796401_296.png
subject-03,1,626,0.758481025695801,bird,oven,c15,0626_cop_s03_c15_oven_10_n04111531_23215.png
subject-03,1,627,0.997910976409912,boat,boat,c10,0627_cop_s03_c10_boat_10_n03344393_5511.png
subject-03,1,628,0.884099960327148,truck,chair,c03,0628_cop_s03_c03_chair_10_n02791124_3245.png
subject-03,1,629,1.02959799766541,car,clock,c01,0629_cop_s03_c01_clock_10_n04548280_1325.png
subject-03,1,630,0.71148419380188,cat,bear,c05,0630_cop_s03_c05_bear_10_n02134084_13014.png
subject-03,1,631,0.99710488319397,keyboard,knife,c01,0631_cop_s03_c01_knife_10_n03041632_48675.png
subject-03,1,632,0.966986894607544,cat,elephant,c30,0632_cop_s03_c30_elephant_10_n02504013_476.png
subject-03,1,633,1.03874087333679,truck,knife,c10,0633_cop_s03_c10_knife_10_n03041632_12242.png
subject-03,1,634,0.800591945648193,car,bear,c30,0634_cop_s03_c30_bear_10_n02132136_1338.png
subject-03,1,635,1.15239000320435,truck,truck,c10,0635_cop_s03_c10_truck_10_n04467665_2505.png
subject-03,1,636,1.16425800323486,elephant,cat,c05,0636_cop_s03_c05_cat_10_n02123597_13769.png
subject-03,1,637,1.4522020816803,chair,clock,c01,0637_cop_s03_c01_clock_10_n02708093_2710.png
subject-03,1,638,0.556108951568604,clock,clock,c100,0638_cop_s03_c100_clock_10_n04548280_7539.png
subject-03,1,639,0.635724067687988,car,car,c30,0639_cop_s03_c30_car_10_n02814533_5155.png
subject-03,1,640,0.675455093383789,cat,airplane,c03,0640_cop_s03_c03_airplane_10_n02690373_13604.png
subject-03,1,641,1.12966203689575,oven,bicycle,c03,0641_cop_s03_c03_bicycle_10_n03792782_27510.png
subject-03,1,642,0.859397172927856,airplane,airplane,c100,0642_cop_s03_c100_airplane_10_n02690373_5007.png
subject-03,1,643,0.659584999084473,bear,bear,c10,0643_cop_s03_c10_bear_10_n02132136_8975.png
subject-03,1,644,1.17482089996338,elephant,knife,c05,0644_cop_s03_c05_knife_10_n03041632_9302.png
subject-03,1,645,1.04478693008423,keyboard,keyboard,c05,0645_cop_s03_c05_keyboard_10_n04505470_6080.png
subject-03,1,646,0.646662950515747,bear,bear,c10,0646_cop_s03_c10_bear_10_n02134084_1346.png
subject-03,1,647,0.724372863769531,cat,elephant,c03,0647_cop_s03_c03_elephant_10_n02504013_3028.png
subject-03,1,648,1.02817392349243,cat,cat,c05,0648_cop_s03_c05_cat_10_n02123159_5205.png
subject-03,1,649,0.779894113540649,bear,elephant,c05,0649_cop_s03_c05_elephant_10_n02504013_8347.png
subject-03,1,650,0.643802881240845,boat,bird,c50,0650_cop_s03_c50_bird_10_n01860187_810.png
subject-03,1,651,0.693701028823853,bottle,bottle,c30,0651_cop_s03_c30_bottle_10_n04560804_11350.png
subject-03,1,652,1.26545286178589,oven,dog,c05,0652_cop_s03_c05_dog_10_n02105162_8899.png
subject-03,1,653,0.555300951004028,boat,truck,c10,0653_cop_s03_c10_truck_10_n04467665_53339.png
subject-03,1,654,0.643245935440063,chair,chair,c50,0654_cop_s03_c50_chair_10_n04429376_15534.png
subject-03,1,655,1.14272904396057,dog,dog,c10,0655_cop_s03_c10_dog_10_n02109961_14816.png
subject-03,1,656,1.01702904701233,truck,boat,c03,0656_cop_s03_c03_boat_10_n03662601_18803.png
subject-03,1,657,1.21253180503845,oven,bear,c01,0657_cop_s03_c01_bear_10_n02134418_4114.png
subject-03,1,658,0.878393888473511,oven,bicycle,c05,0658_cop_s03_c05_bicycle_10_n03792782_19774.png
subject-03,1,659,0.780344009399414,boat,chair,c50,0659_cop_s03_c50_chair_10_n03376595_9247.png
subject-03,1,660,1.18384695053101,bicycle,bicycle,c30,0660_cop_s03_c30_bicycle_10_n03792782_3481.png
subject-03,1,661,0.981732845306396,knife,knife,c15,0661_cop_s03_c15_knife_10_n03041632_51225.png
subject-03,1,662,0.753405094146729,oven,boat,c01,0662_cop_s03_c01_boat_10_n03344393_2838.png
subject-03,1,663,0.843753099441528,chair,knife,c03,0663_cop_s03_c03_knife_10_n03041632_25479.png
subject-03,1,664,0.799671173095703,bird,bird,c30,0664_cop_s03_c30_bird_10_n01534433_3428.png
subject-03,1,665,0.838963985443115,clock,clock,c50,0665_cop_s03_c50_clock_10_n02708093_596.png
subject-03,1,666,1.08325386047363,chair,knife,c05,0666_cop_s03_c05_knife_10_n03041632_96345.png
subject-03,1,667,0.834733009338379,keyboard,keyboard,c50,0667_cop_s03_c50_keyboard_10_n04505470_1047.png
subject-03,1,668,0.790764808654785,airplane,airplane,c05,0668_cop_s03_c05_airplane_10_n02690373_4108.png
subject-03,1,669,0.708137035369873,boat,knife,c05,0669_cop_s03_c05_knife_10_n03041632_37618.png
subject-03,1,670,0.744093894958496,bear,bear,c15,0670_cop_s03_c15_bear_10_n02132136_6352.png
subject-03,1,671,1.05787205696106,car,bicycle,c50,0671_cop_s03_c50_bicycle_10_n02835271_1701.png
subject-03,1,672,0.915856838226318,elephant,bear,c01,0672_cop_s03_c01_bear_10_n02134084_6113.png
subject-03,1,673,1.13552904129028,bird,bottle,c10,0673_cop_s03_c10_bottle_10_n04557648_4165.png
subject-03,1,674,0.875168085098267,boat,airplane,c15,0674_cop_s03_c15_airplane_10_n02690373_1837.png
subject-03,1,675,0.657553911209106,cat,cat,c10,0675_cop_s03_c10_cat_10_n02124075_1576.png
subject-03,1,676,0.664921998977661,bottle,bottle,c05,0676_cop_s03_c05_bottle_10_n04591713_6975.png
subject-03,1,677,0.704843044281006,truck,elephant,c05,0677_cop_s03_c05_elephant_10_n02504458_10243.png
subject-03,1,678,1.18240284919739,boat,boat,c10,0678_cop_s03_c10_boat_10_n03344393_8869.png
subject-03,1,679,0.74022388458252,bicycle,bicycle,c10,0679_cop_s03_c10_bicycle_10_n02835271_2553.png
subject-03,1,680,0.742361068725586,chair,bottle,c30,0680_cop_s03_c30_bottle_10_n04591713_7476.png
subject-03,1,681,0.993966102600098,cat,oven,c30,0681_cop_s03_c30_oven_10_n04111531_695.png
subject-03,1,682,0.55781102180481,airplane,airplane,c50,0682_cop_s03_c50_airplane_10_n02690373_4649.png
subject-03,1,683,0.684081077575684,bicycle,bicycle,c10,0683_cop_s03_c10_bicycle_10_n02835271_3529.png
subject-03,1,684,0.655325889587402,airplane,airplane,c05,0684_cop_s03_c05_airplane_10_n02690373_8650.png
subject-03,1,685,0.733381032943726,oven,oven,c03,0685_cop_s03_c03_oven_10_n04111531_1798.png
subject-03,1,686,0.594973087310791,keyboard,keyboard,c03,0686_cop_s03_c03_keyboard_10_n04505470_9663.png
subject-03,1,687,0.510977983474731,cat,knife,c50,0687_cop_s03_c50_knife_10_n03041632_24326.png
subject-03,1,688,0.552675008773804,cat,cat,c50,0688_cop_s03_c50_cat_10_n02123159_6132.png
subject-03,1,689,0.660513162612915,dog,elephant,c01,0689_cop_s03_c01_elephant_10_n02504458_5483.png
subject-03,1,690,1.04232406616211,chair,chair,c30,0690_cop_s03_c30_chair_10_n04099969_9891.png
subject-03,1,691,0.622279167175293,bear,bear,c30,0691_cop_s03_c30_bear_10_n02133161_4091.png
subject-03,1,692,1.10001111030579,truck,truck,c30,0692_cop_s03_c30_truck_10_n03796401_3012.png
subject-03,1,693,0.979747772216797,bottle,knife,c30,0693_cop_s03_c30_knife_10_n03041632_92637.png
subject-03,1,694,0.825655937194824,airplane,airplane,c30,0694_cop_s03_c30_airplane_10_n02690373_7004.png
subject-03,1,695,1.15351414680481,elephant,elephant,c30,0695_cop_s03_c30_elephant_10_n02504458_5337.png
subject-03,1,696,1.20134615898132,dog,dog,c50,0696_cop_s03_c50_dog_10_n02102177_5341.png
subject-03,1,697,0.882946014404297,bicycle,bear,c01,0697_cop_s03_c01_bear_10_n02133161_9134.png
subject-03,1,698,0.72098708152771,cat,cat,c30,0698_cop_s03_c30_cat_10_n02123597_29513.png
subject-03,1,699,1.10864591598511,cat,cat,c100,0699_cop_s03_c100_cat_10_n02123394_2755.png
subject-03,1,700,0.742377042770386,bicycle,bicycle,c50,0700_cop_s03_c50_bicycle_10_n03792782_4826.png
subject-03,1,701,0.844223976135254,knife,airplane,c01,0701_cop_s03_c01_airplane_10_n02690373_4793.png
subject-03,1,702,1.1401379108429,truck,clock,c05,0702_cop_s03_c05_clock_10_n02708093_4391.png
subject-03,1,703,0.871833801269531,car,car,c50,0703_cop_s03_c50_car_10_n02814533_71838.png
subject-03,1,704,0.72360897064209,oven,truck,c03,0704_cop_s03_c03_truck_10_n04467665_22358.png
subject-03,1,705,0.665482044219971,keyboard,keyboard,c50,0705_cop_s03_c50_keyboard_10_n03085013_19161.png
subject-03,1,706,1.09358596801758,bird,bear,c30,0706_cop_s03_c30_bear_10_n02134418_4717.png
subject-03,1,707,1.17326307296753,boat,car,c03,0707_cop_s03_c03_car_10_n02814533_87871.png
subject-03,1,708,0.846889019012451,chair,bear,c01,0708_cop_s03_c01_bear_10_n02134084_4477.png
subject-03,1,709,1.04868507385254,elephant,cat,c03,0709_cop_s03_c03_cat_10_n02123394_4164.png
subject-03,1,710,0.846642971038818,car,car,c30,0710_cop_s03_c30_car_10_n02814533_5147.png
subject-03,1,711,1.3684229850769,boat,boat,c10,0711_cop_s03_c10_boat_10_n03344393_4485.png
subject-03,1,712,1.01010894775391,keyboard,keyboard,c30,0712_cop_s03_c30_keyboard_10_n03085013_2272.png
subject-03,1,713,1.42168307304382,oven,elephant,c01,0713_cop_s03_c01_elephant_10_n02504013_3599.png
subject-03,1,714,0.768203973770142,clock,clock,c15,0714_cop_s03_c15_clock_10_n02708093_5429.png
subject-03,1,715,0.729565143585205,truck,chair,c05,0715_cop_s03_c05_chair_10_n02791124_1371.png
subject-03,1,716,0.657458782196045,bird,bird,c15,0716_cop_s03_c15_bird_10_n02027492_4900.png
subject-03,1,717,1.46958088874817,bear,cat,c50,0717_cop_s03_c50_cat_10_n02123394_8592.png
subject-03,1,718,0.781209945678711,bear,bear,c10,0718_cop_s03_c10_bear_10_n02132136_4101.png
subject-03,1,719,0.728945016860962,oven,cat,c05,0719_cop_s03_c05_cat_10_n02123394_8524.png
subject-03,1,720,0.674759864807129,car,car,c10,0720_cop_s03_c10_car_10_n04285008_1619.png
subject-03,1,721,0.812211036682129,oven,clock,c03,0721_cop_s03_c03_clock_10_n04548280_4286.png
subject-03,1,722,0.642206907272339,car,elephant,c10,0722_cop_s03_c10_elephant_10_n02504013_1970.png
subject-03,1,723,0.660117149353027,elephant,elephant,c100,0723_cop_s03_c100_elephant_10_n02504458_5561.png
subject-03,1,724,0.755717992782593,keyboard,dog,c05,0724_cop_s03_c05_dog_10_n02108551_3425.png
subject-03,1,725,0.491154909133911,cat,cat,c50,0725_cop_s03_c50_cat_10_n02123045_455.png
subject-03,1,726,0.633579015731812,bear,dog,c100,0726_cop_s03_c100_dog_10_n02090622_4585.png
subject-03,1,727,0.78722095489502,bottle,bottle,c30,0727_cop_s03_c30_bottle_10_n04560804_1010.png
subject-03,1,728,1.43878507614136,clock,bottle,c15,0728_cop_s03_c15_bottle_10_n04557648_2709.png
subject-03,1,729,0.842568159103394,airplane,chair,c03,0729_cop_s03_c03_chair_10_n02791124_5868.png
subject-03,1,730,0.562508106231689,bird,bird,c30,0730_cop_s03_c30_bird_10_n02013706_19220.png
subject-03,1,731,1.08635401725769,truck,bear,c01,0731_cop_s03_c01_bear_10_n02132136_10428.png
subject-03,1,732,0.676365852355957,bear,bird,c03,0732_cop_s03_c03_bird_10_n01798484_8189.png
subject-03,1,733,0.725939989089966,knife,knife,c03,0733_cop_s03_c03_knife_10_n03041632_55083.png
subject-03,1,734,0.859689950942993,truck,bottle,c30,0734_cop_s03_c30_bottle_10_n04591713_1652.png
subject-03,1,735,0.893447160720825,chair,keyboard,c01,0735_cop_s03_c01_keyboard_10_n04505470_1904.png
subject-03,1,736,1.11732912063599,elephant,elephant,c05,0736_cop_s03_c05_elephant_10_n02504013_8162.png
subject-03,1,737,1.39125084877014,elephant,elephant,c50,0737_cop_s03_c50_elephant_10_n02504458_209.png
subject-03,1,738,1.01743292808533,bird,oven,c03,0738_cop_s03_c03_oven_10_n04111531_10446.png
subject-03,1,739,0.604837894439697,cat,cat,c50,0739_cop_s03_c50_cat_10_n02124075_20891.png
subject-03,1,740,0.604724168777466,bicycle,bicycle,c30,0740_cop_s03_c30_bicycle_10_n02835271_2764.png
subject-03,1,741,1.18844485282898,knife,keyboard,c30,0741_cop_s03_c30_keyboard_10_n04505470_4803.png
subject-03,1,742,0.520251989364624,bottle,bottle,c100,0742_cop_s03_c100_bottle_10_n04560804_23390.png
subject-03,1,743,0.5921471118927,bottle,bottle,c15,0743_cop_s03_c15_bottle_10_n03983396_5559.png
subject-03,1,744,0.711910963058472,bear,bear,c10,0744_cop_s03_c10_bear_10_n02133161_15177.png
subject-03,1,745,1.01779198646545,car,car,c05,0745_cop_s03_c05_car_10_n02814533_872.png
subject-03,1,746,0.893383026123047,car,car,c10,0746_cop_s03_c10_car_10_n03100240_52.png
subject-03,1,747,1.49999499320984,knife,knife,c10,0747_cop_s03_c10_knife_10_n03041632_14916.png
subject-03,1,748,0.69916296005249,truck,truck,c15,0748_cop_s03_c15_truck_10_n03796401_7381.png
subject-03,1,749,0.960836887359619,elephant,chair,c15,0749_cop_s03_c15_chair_10_n02791124_15853.png
subject-03,1,750,0.624669075012207,bear,boat,c01,0750_cop_s03_c01_boat_10_n04273569_3112.png
subject-03,1,751,0.626494169235229,truck,bear,c03,0751_cop_s03_c03_bear_10_n02134084_3345.png
subject-03,1,752,0.632411003112793,truck,truck,c15,0752_cop_s03_c15_truck_10_n03796401_20373.png
subject-03,1,753,1.0344557762146,bear,dog,c10,0753_cop_s03_c10_dog_10_n02105251_7686.png
subject-03,1,754,0.715999841690063,car,dog,c10,0754_cop_s03_c10_dog_10_n02110806_642.png
subject-03,1,755,0.665807962417603,airplane,airplane,c50,0755_cop_s03_c50_airplane_10_n02690373_2675.png
subject-03,1,756,0.863699913024902,car,car,c50,0756_cop_s03_c50_car_10_n04285008_3010.png
subject-03,1,757,1.01736903190613,truck,oven,c10,0757_cop_s03_c10_oven_10_n04111531_13006.png
subject-03,1,758,0.701292037963867,keyboard,bicycle,c01,0758_cop_s03_c01_bicycle_10_n02835271_10741.png
subject-03,1,759,1.02095007896423,clock,clock,c05,0759_cop_s03_c05_clock_10_n03196217_10641.png
subject-03,1,760,0.974914789199829,chair,bottle,c15,0760_cop_s03_c15_bottle_10_n03937543_3726.png
subject-03,1,761,0.797157049179077,oven,knife,c15,0761_cop_s03_c15_knife_10_n03041632_4787.png
subject-03,1,762,0.712454080581665,bicycle,bicycle,c15,0762_cop_s03_c15_bicycle_10_n03792782_5557.png
subject-03,1,763,0.676262855529785,clock,clock,c30,0763_cop_s03_c30_clock_10_n04548280_1960.png
subject-03,1,764,0.896147966384888,dog,dog,c30,0764_cop_s03_c30_dog_10_n02110958_15843.png
subject-03,1,765,0.711870908737183,clock,clock,c50,0765_cop_s03_c50_clock_10_n02708093_616.png
subject-03,1,766,1.00780892372131,bird,bird,c30,0766_cop_s03_c30_bird_10_n01592084_1228.png
subject-03,1,767,0.753712177276611,truck,truck,c03,0767_cop_s03_c03_truck_10_n03796401_4119.png
subject-03,1,768,0.981301069259644,oven,airplane,c01,0768_cop_s03_c01_airplane_10_n02690373_4243.png
subject-03,1,769,1.06901502609253,bird,chair,c10,0769_cop_s03_c10_chair_10_n04429376_311.png
subject-03,1,770,0.805022001266479,bear,cat,c01,0770_cop_s03_c01_cat_10_n02123045_6066.png
subject-03,1,771,0.9148268699646,bicycle,dog,c01,0771_cop_s03_c01_dog_10_n02104365_1123.png
subject-03,1,772,0.680529832839966,airplane,boat,c01,0772_cop_s03_c01_boat_10_n03344393_8143.png
subject-03,1,773,1.5001060962677,boat,knife,c10,0773_cop_s03_c10_knife_10_n03041632_13108.png
subject-03,1,774,0.956379890441895,cat,keyboard,c01,0774_cop_s03_c01_keyboard_10_n04505470_2787.png
subject-03,1,775,1.12807416915894,chair,dog,c15,0775_cop_s03_c15_dog_10_n02111129_6267.png
subject-03,1,776,1.27772498130798,knife,clock,c05,0776_cop_s03_c05_clock_10_n02708093_8038.png
subject-03,1,777,1.14377093315125,elephant,bear,c05,0777_cop_s03_c05_bear_10_n02134084_67.png
subject-03,1,778,1.48347616195679,dog,oven,c15,0778_cop_s03_c15_oven_10_n04111531_9289.png
subject-03,1,779,0.753201007843018,cat,cat,c15,0779_cop_s03_c15_cat_10_n02123159_6624.png
subject-03,1,780,0.811074018478394,bear,bird,c03,0780_cop_s03_c03_bird_10_n02025239_660.png
subject-03,1,781,0.547425031661987,cat,cat,c100,0781_cop_s03_c100_cat_10_n02125311_21377.png
subject-03,1,782,0.678591966629028,boat,boat,c30,0782_cop_s03_c30_boat_10_n04612504_14669.png
subject-03,1,783,0.886552095413208,truck,oven,c05,0783_cop_s03_c05_oven_10_n04111531_13822.png
subject-03,1,784,0.842328071594238,car,dog,c05,0784_cop_s03_c05_dog_10_n02111129_2245.png
subject-03,1,785,0.792051792144775,airplane,airplane,c10,0785_cop_s03_c10_airplane_10_n02690373_2724.png
subject-03,1,786,0.667840957641602,keyboard,keyboard,c10,0786_cop_s03_c10_keyboard_10_n04505470_1692.png
subject-03,1,787,0.695749998092651,oven,boat,c01,0787_cop_s03_c01_boat_10_n04273569_15906.png
subject-03,1,788,0.557626008987427,bicycle,bicycle,c10,0788_cop_s03_c10_bicycle_10_n03792782_7182.png
subject-03,1,789,0.65942120552063,elephant,elephant,c50,0789_cop_s03_c50_elephant_10_n02504458_4580.png
subject-03,1,790,0.73120903968811,oven,oven,c03,0790_cop_s03_c03_oven_10_n04111531_14951.png
subject-03,1,791,0.889424085617065,elephant,elephant,c15,0791_cop_s03_c15_elephant_10_n02504013_1028.png
subject-03,1,792,0.833079099655151,boat,boat,c50,0792_cop_s03_c50_boat_10_n02951358_8285.png
subject-03,1,793,0.568490028381348,chair,bottle,c03,0793_cop_s03_c03_bottle_10_n04557648_2355.png
subject-03,1,794,0.718361139297485,airplane,airplane,c30,0794_cop_s03_c30_airplane_10_n02690373_8350.png
subject-03,1,795,1.0463809967041,cat,boat,c05,0795_cop_s03_c05_boat_10_n02951358_33807.png
subject-03,1,796,0.858196973800659,keyboard,keyboard,c10,0796_cop_s03_c10_keyboard_10_n03085013_16359.png
subject-03,1,797,1.36773896217346,bear,elephant,c30,0797_cop_s03_c30_elephant_10_n02504013_7539.png
subject-03,1,798,0.627808809280396,keyboard,keyboard,c10,0798_cop_s03_c10_keyboard_10_n04505470_2421.png
subject-03,1,799,0.881639003753662,clock,clock,c15,0799_cop_s03_c15_clock_10_n04548280_17907.png
subject-03,1,800,0.555359125137329,boat,boat,c10,0800_cop_s03_c10_boat_10_n04612504_17514.png
subject-03,1,801,0.954723119735718,truck,truck,c05,0801_cop_s03_c05_truck_10_n04467665_70237.png
subject-03,1,802,0.72282886505127,bear,bear,c100,0802_cop_s03_c100_bear_10_n02134084_21207.png
subject-03,1,803,0.834568977355957,airplane,airplane,c05,0803_cop_s03_c05_airplane_10_n02690373_6114.png
subject-03,1,804,0.676594018936157,bottle,bottle,c30,0804_cop_s03_c30_bottle_10_n02823428_4468.png
subject-03,1,805,0.692085027694702,bear,bear,c15,0805_cop_s03_c15_bear_10_n02134084_1689.png
subject-03,1,806,0.788081169128418,bicycle,bottle,c03,0806_cop_s03_c03_bottle_10_n03937543_4916.png
subject-03,1,807,0.553716897964478,oven,chair,c01,0807_cop_s03_c01_chair_10_n02791124_2773.png
subject-03,1,808,0.64149808883667,bicycle,bicycle,c15,0808_cop_s03_c15_bicycle_10_n02835271_8059.png
subject-03,1,809,0.975286960601807,truck,truck,c03,0809_cop_s03_c03_truck_10_n04467665_9266.png
subject-03,1,810,0.967112064361572,truck,truck,c30,0810_cop_s03_c30_truck_10_n03417042_265.png
subject-03,1,811,1.03104400634766,car,bird,c10,0811_cop_s03_c10_bird_10_n01532829_560.png
subject-03,1,812,0.880958795547485,elephant,bear,c10,0812_cop_s03_c10_bear_10_n02134418_128.png
subject-03,1,813,0.706858158111572,truck,truck,c100,0813_cop_s03_c100_truck_10_n04467665_52762.png
subject-03,1,814,0.714296102523804,elephant,elephant,c50,0814_cop_s03_c50_elephant_10_n02504458_5600.png
subject-03,1,815,0.880238056182861,elephant,bear,c100,0815_cop_s03_c100_bear_10_n02132136_10833.png
subject-03,1,816,0.811951875686646,car,car,c15,0816_cop_s03_c15_car_10_n04285008_12909.png
subject-03,1,817,1.08768010139465,bear,cat,c01,0817_cop_s03_c01_cat_10_n02123159_386.png
subject-03,1,818,0.855488061904907,bicycle,bicycle,c50,0818_cop_s03_c50_bicycle_10_n03792782_15138.png
subject-03,1,819,0.825579166412354,dog,dog,c05,0819_cop_s03_c05_dog_10_n02105641_416.png
subject-03,1,820,0.77916407585144,cat,elephant,c05,0820_cop_s03_c05_elephant_10_n02504013_7633.png
subject-03,1,821,0.465004920959473,clock,clock,c30,0821_cop_s03_c30_clock_10_n03196217_2307.png
subject-03,1,822,0.832937955856323,truck,truck,c15,0822_cop_s03_c15_truck_10_n04467665_67969.png
subject-03,1,823,0.78096604347229,airplane,bicycle,c01,0823_cop_s03_c01_bicycle_10_n02835271_10283.png
subject-03,1,824,0.658659934997559,chair,chair,c100,0824_cop_s03_c100_chair_10_n04429376_10597.png
subject-03,1,825,0.986828088760376,bear,bird,c15,0825_cop_s03_c15_bird_10_n02011460_2417.png
subject-03,1,826,0.636037111282349,chair,chair,c100,0826_cop_s03_c100_chair_10_n04099969_28072.png
subject-03,1,827,0.63192892074585,keyboard,keyboard,c30,0827_cop_s03_c30_keyboard_10_n04505470_709.png
subject-03,1,828,0.819747924804688,car,car,c100,0828_cop_s03_c100_car_10_n03100240_15647.png
subject-03,1,829,0.743682146072388,bear,bear,c15,0829_cop_s03_c15_bear_10_n02132136_2451.png
subject-03,1,830,0.753772974014282,cat,cat,c05,0830_cop_s03_c05_cat_10_n02125311_22459.png
subject-03,1,831,1.3094789981842,elephant,truck,c05,0831_cop_s03_c05_truck_10_n03796401_3509.png
subject-03,1,832,0.910996913909912,cat,dog,c05,0832_cop_s03_c05_dog_10_n02091831_510.png
subject-03,1,833,0.71495509147644,elephant,elephant,c30,0833_cop_s03_c30_elephant_10_n02504458_2994.png
subject-03,1,834,0.62457799911499,car,clock,c10,0834_cop_s03_c10_clock_10_n03196217_1814.png
subject-03,1,835,0.868285179138184,truck,bicycle,c03,0835_cop_s03_c03_bicycle_10_n02835271_7355.png
subject-03,1,836,0.894479990005493,bear,bicycle,c03,0836_cop_s03_c03_bicycle_10_n03792782_818.png
subject-03,1,837,0.872092962265015,cat,cat,c15,0837_cop_s03_c15_cat_10_n02123045_5200.png
subject-03,1,838,0.995991945266724,car,chair,c100,0838_cop_s03_c100_chair_10_n02791124_12707.png
subject-03,1,839,0.788146018981934,truck,truck,c01,0839_cop_s03_c01_truck_10_n03796401_15046.png
subject-03,1,840,0.773473024368286,airplane,clock,c03,0840_cop_s03_c03_clock_10_n04548280_4582.png
subject-03,1,841,0.65761399269104,boat,boat,c100,0841_cop_s03_c100_boat_10_n02951358_14624.png
subject-03,1,842,0.997012138366699,chair,dog,c03,0842_cop_s03_c03_dog_10_n02088632_747.png
subject-03,1,843,0.906830072402954,dog,car,c01,0843_cop_s03_c01_car_10_n03100240_3289.png
subject-03,1,844,0.710746049880981,bird,bird,c100,0844_cop_s03_c100_bird_10_n01855672_9451.png
subject-03,1,845,0.550472021102905,bicycle,elephant,c01,0845_cop_s03_c01_elephant_10_n02504458_5331.png
subject-03,1,846,1.10625982284546,bear,bear,c100,0846_cop_s03_c100_bear_10_n02134084_1207.png
subject-03,1,847,0.694555044174194,truck,truck,c15,0847_cop_s03_c15_truck_10_n04467665_39477.png
subject-03,1,848,0.61397385597229,keyboard,knife,c01,0848_cop_s03_c01_knife_10_n03041632_50332.png
subject-03,1,849,1.132159948349,truck,elephant,c03,0849_cop_s03_c03_elephant_10_n02504458_6972.png
subject-03,1,850,0.4478600025177,oven,chair,c15,0850_cop_s03_c15_chair_10_n02791124_11404.png
subject-03,1,851,0.68361496925354,keyboard,keyboard,c50,0851_cop_s03_c50_keyboard_10_n03085013_6644.png
subject-03,1,852,0.583313226699829,boat,boat,c05,0852_cop_s03_c05_boat_10_n04612504_8407.png
subject-03,1,853,0.646970987319946,car,car,c100,0853_cop_s03_c100_car_10_n03100240_5569.png
subject-03,1,854,1.19498705863953,bear,elephant,c10,0854_cop_s03_c10_elephant_10_n02504458_7817.png
subject-03,1,855,0.501014947891235,boat,boat,c30,0855_cop_s03_c30_boat_10_n02951358_29825.png
subject-03,1,856,1.1984977722168,chair,truck,c03,0856_cop_s03_c03_truck_10_n04467665_52595.png
subject-03,1,857,0.742562055587769,cat,cat,c15,0857_cop_s03_c15_cat_10_n02125311_24985.png
subject-03,1,858,0.722406148910522,airplane,airplane,c30,0858_cop_s03_c30_airplane_10_n02690373_6138.png
subject-03,1,859,0.832386016845703,keyboard,keyboard,c05,0859_cop_s03_c05_keyboard_10_n04505470_1929.png
subject-03,1,860,1.21006512641907,bear,bear,c30,0860_cop_s03_c30_bear_10_n02134418_76.png
subject-03,1,861,0.767621040344238,truck,truck,c10,0861_cop_s03_c10_truck_10_n03796401_2060.png
subject-03,1,862,1.02137494087219,bottle,knife,c50,0862_cop_s03_c50_knife_10_n03041632_15174.png
subject-03,1,863,0.71122407913208,bottle,bottle,c15,0863_cop_s03_c15_bottle_10_n03983396_1629.png
subject-03,1,864,0.78734302520752,oven,oven,c30,0864_cop_s03_c30_oven_10_n04111531_1970.png
subject-03,1,865,0.694861888885498,bicycle,bird,c01,0865_cop_s03_c01_bird_10_n01537544_22049.png
subject-03,1,866,0.932674884796143,clock,car,c03,0866_cop_s03_c03_car_10_n04285008_296.png
subject-03,1,867,0.546473979949951,boat,bear,c15,0867_cop_s03_c15_bear_10_n02132136_1574.png
subject-03,1,868,0.924488067626953,bear,oven,c05,0868_cop_s03_c05_oven_10_n04111531_13277.png
subject-03,1,869,0.690035104751587,chair,elephant,c01,0869_cop_s03_c01_elephant_10_n02504458_4137.png
subject-03,1,870,1.29372501373291,bird,boat,c10,0870_cop_s03_c10_boat_10_n04273569_14373.png
subject-03,1,871,0.84204888343811,car,chair,c01,0871_cop_s03_c01_chair_10_n04099969_4577.png
subject-03,1,872,0.585601091384888,keyboard,cat,c03,0872_cop_s03_c03_cat_10_n02124075_11759.png
subject-03,1,873,0.703329086303711,elephant,bicycle,c01,0873_cop_s03_c01_bicycle_10_n02835271_10839.png
subject-03,1,874,0.595107078552246,knife,dog,c01,0874_cop_s03_c01_dog_10_n02110627_20194.png
subject-03,1,875,1.07701802253723,car,oven,c05,0875_cop_s03_c05_oven_10_n04111531_22886.png
subject-03,1,876,0.664700984954834,bottle,bottle,c15,0876_cop_s03_c15_bottle_10_n04579145_6880.png
subject-03,1,877,0.784910917282104,truck,cat,c03,0877_cop_s03_c03_cat_10_n02123394_2632.png
subject-03,1,878,0.996304988861084,keyboard,keyboard,c30,0878_cop_s03_c30_keyboard_10_n04505470_8754.png
subject-03,1,879,0.664163112640381,oven,airplane,c01,0879_cop_s03_c01_airplane_10_n02690373_1797.png
subject-03,1,880,0.77592921257019,clock,clock,c30,0880_cop_s03_c30_clock_10_n04548280_8646.png
subject-03,1,881,0.772452831268311,airplane,airplane,c100,0881_cop_s03_c100_airplane_10_n02690373_2268.png
subject-03,1,882,0.798532962799072,bear,elephant,c30,0882_cop_s03_c30_elephant_10_n02504458_5055.png
subject-03,1,883,0.542104959487915,keyboard,keyboard,c50,0883_cop_s03_c50_keyboard_10_n03085013_14279.png
subject-03,1,884,1.02190208435059,knife,knife,c30,0884_cop_s03_c30_knife_10_n03041632_4590.png
subject-03,1,885,1.14016699790955,cat,car,c03,0885_cop_s03_c03_car_10_n04285008_7950.png
subject-03,1,886,1.48345017433167,boat,boat,c05,0886_cop_s03_c05_boat_10_n03662601_4246.png
subject-03,1,887,0.633321046829224,chair,chair,c50,0887_cop_s03_c50_chair_10_n04099969_25664.png
subject-03,1,888,0.633253812789917,bottle,oven,c01,0888_cop_s03_c01_oven_10_n04111531_14690.png
subject-03,1,889,0.86948299407959,car,car,c30,0889_cop_s03_c30_car_10_n02814533_5183.png
subject-03,1,890,0.979012966156006,dog,dog,c50,0890_cop_s03_c50_dog_10_n02104029_2132.png
subject-03,1,891,1.26449704170227,truck,bird,c03,0891_cop_s03_c03_bird_10_n02002724_5876.png
subject-03,1,892,0.7463538646698,bear,bear,c50,0892_cop_s03_c50_bear_10_n02134084_21462.png
subject-03,1,893,0.998080015182495,car,clock,c50,0893_cop_s03_c50_clock_10_n03196217_4526.png
subject-03,1,894,0.59409499168396,elephant,airplane,c01,0894_cop_s03_c01_airplane_10_n02690373_5917.png
subject-03,1,895,1.10374212265015,airplane,airplane,c30,0895_cop_s03_c30_airplane_10_n02690373_7401.png
subject-03,1,896,0.909795999526978,bottle,knife,c15,0896_cop_s03_c15_knife_10_n03041632_84012.png
subject-03,1,897,0.613627195358276,airplane,airplane,c10,0897_cop_s03_c10_airplane_10_n02690373_6716.png
subject-03,1,898,1.0733470916748,oven,oven,c10,0898_cop_s03_c10_oven_10_n04111531_8309.png
subject-03,1,899,0.681031942367554,oven,oven,c50,0899_cop_s03_c50_oven_10_n04111531_22388.png
subject-03,1,900,0.644968032836914,dog,dog,c10,0900_cop_s03_c10_dog_10_n02108422_9533.png
subject-03,1,901,1.25079298019409,bird,dog,c10,0901_cop_s03_c10_dog_10_n02093428_592.png
subject-03,1,902,0.786380052566528,keyboard,keyboard,c100,0902_cop_s03_c100_keyboard_10_n03085013_12175.png
subject-03,1,903,1.18629193305969,car,car,c100,0903_cop_s03_c100_car_10_n03100240_1443.png
subject-03,1,904,0.844214916229248,bird,bird,c05,0904_cop_s03_c05_bird_10_n02027492_3072.png
subject-03,1,905,1.33809304237366,airplane,airplane,c05,0905_cop_s03_c05_airplane_10_n02690373_5729.png
subject-03,1,906,0.745900869369507,bear,bear,c100,0906_cop_s03_c100_bear_10_n02134084_16084.png
subject-03,1,907,0.841980934143066,bicycle,chair,c100,0907_cop_s03_c100_chair_10_n03376595_11049.png
subject-03,1,908,1.11532616615295,airplane,chair,c50,0908_cop_s03_c50_chair_10_n03376595_13018.png
subject-03,1,909,0.829201936721802,truck,bottle,c05,0909_cop_s03_c05_bottle_10_n03937543_6014.png
subject-03,1,910,0.680913925170898,cat,cat,c50,0910_cop_s03_c50_cat_10_n02124075_10976.png
subject-03,1,911,0.692946910858154,chair,chair,c50,0911_cop_s03_c50_chair_10_n03376595_12602.png
subject-03,1,912,1.06271409988403,dog,elephant,c15,0912_cop_s03_c15_elephant_10_n02504013_1792.png
subject-03,1,913,0.686482906341553,bear,bear,c100,0913_cop_s03_c100_bear_10_n02134084_19791.png
subject-03,1,914,0.768232107162476,elephant,truck,c05,0914_cop_s03_c05_truck_10_n03796401_21407.png
subject-03,1,915,1.11444783210754,cat,cat,c10,0915_cop_s03_c10_cat_10_n02124075_9716.png
subject-03,1,916,1.06173801422119,chair,dog,c15,0916_cop_s03_c15_dog_10_n02102177_835.png
subject-03,1,917,0.687826156616211,bicycle,boat,c01,0917_cop_s03_c01_boat_10_n02951358_20960.png
subject-03,1,918,0.717556953430176,bicycle,bicycle,c15,0918_cop_s03_c15_bicycle_10_n03792782_43279.png
subject-03,1,919,0.64934515953064,chair,chair,c30,0919_cop_s03_c30_chair_10_n02791124_3370.png
subject-03,1,920,0.667142868041992,keyboard,keyboard,c03,0920_cop_s03_c03_keyboard_10_n04505470_432.png
subject-03,1,921,1.23095011711121,bottle,dog,c15,0921_cop_s03_c15_dog_10_n02108000_4202.png
subject-03,1,922,0.536764144897461,bicycle,bicycle,c01,0922_cop_s03_c01_bicycle_10_n02835271_1505.png
subject-03,1,923,0.756481885910034,bottle,bottle,c15,0923_cop_s03_c15_bottle_10_n04557648_6060.png
subject-03,1,924,0.622227191925049,airplane,airplane,c10,0924_cop_s03_c10_airplane_10_n02690373_4115.png
subject-03,1,925,0.514648914337158,bear,bear,c100,0925_cop_s03_c100_bear_10_n02134418_4372.png
subject-03,1,926,0.978014945983887,knife,boat,c01,0926_cop_s03_c01_boat_10_n04612504_19983.png
subject-03,1,927,1.18979692459106,bear,bear,c15,0927_cop_s03_c15_bear_10_n02134418_1259.png
subject-03,1,928,1.05984711647034,knife,boat,c100,0928_cop_s03_c100_boat_10_n02951358_12663.png
subject-03,1,929,1.28744721412659,elephant,bicycle,c10,0929_cop_s03_c10_bicycle_10_n02835271_9314.png
subject-03,1,930,1.1031801700592,oven,cat,c01,0930_cop_s03_c01_cat_10_n02125311_28331.png
subject-03,1,931,0.637112855911255,bear,bear,c15,0931_cop_s03_c15_bear_10_n02132136_11339.png
subject-03,1,932,1.11696100234985,oven,oven,c100,0932_cop_s03_c100_oven_10_n04111531_14095.png
subject-03,1,933,0.758592128753662,boat,airplane,c01,0933_cop_s03_c01_airplane_10_n02690373_5266.png
subject-03,1,934,0.960600137710571,dog,dog,c15,0934_cop_s03_c15_dog_10_n02102318_11746.png
subject-03,1,935,0.830234050750732,car,bicycle,c03,0935_cop_s03_c03_bicycle_10_n03792782_4844.png
subject-03,1,936,1.10010194778442,oven,keyboard,c03,0936_cop_s03_c03_keyboard_10_n03085013_29941.png
subject-03,1,937,1.04180216789246,cat,cat,c15,0937_cop_s03_c15_cat_10_n02125311_17613.png
subject-03,1,938,0.955873012542725,chair,clock,c05,0938_cop_s03_c05_clock_10_n04548280_4758.png
subject-03,1,939,0.699595928192139,bottle,bottle,c30,0939_cop_s03_c30_bottle_10_n03983396_6287.png
subject-03,1,940,0.951194047927856,car,car,c30,0940_cop_s03_c30_car_10_n04285008_11323.png
subject-03,1,941,0.941048145294189,bird,bird,c15,0941_cop_s03_c15_bird_10_n01592084_4764.png
subject-03,1,942,1.04926013946533,bear,bear,c10,0942_cop_s03_c10_bear_10_n02132136_26027.png
subject-03,1,943,0.784645080566406,car,car,c15,0943_cop_s03_c15_car_10_n02814533_19287.png
subject-03,1,944,0.80853796005249,airplane,clock,c03,0944_cop_s03_c03_clock_10_n04548280_3161.png
subject-03,1,945,0.790559053421021,truck,bicycle,c03,0945_cop_s03_c03_bicycle_10_n02835271_3841.png
subject-03,1,946,0.788105964660645,bicycle,bicycle,c15,0946_cop_s03_c15_bicycle_10_n02835271_26158.png
subject-03,1,947,0.932062864303589,dog,dog,c100,0947_cop_s03_c100_dog_10_n02104029_4704.png
subject-03,1,948,1.10211300849915,airplane,airplane,c50,0948_cop_s03_c50_airplane_10_n02690373_1350.png
subject-03,1,949,0.931880950927734,truck,chair,c05,0949_cop_s03_c05_chair_10_n02791124_5995.png
subject-03,1,950,1.05536699295044,bear,bicycle,c05,0950_cop_s03_c05_bicycle_10_n03792782_10129.png
subject-03,1,951,0.80164098739624,elephant,truck,c01,0951_cop_s03_c01_truck_10_n03417042_23038.png
subject-03,1,952,1.29332208633423,chair,chair,c100,0952_cop_s03_c100_chair_10_n04099969_3929.png
subject-03,1,953,1.49490785598755,knife,knife,c10,0953_cop_s03_c10_knife_10_n03041632_24646.png
subject-03,1,954,1.04269599914551,knife,elephant,c03,0954_cop_s03_c03_elephant_10_n02504458_1328.png
subject-03,1,955,1.00441479682922,truck,chair,c03,0955_cop_s03_c03_chair_10_n04099969_27865.png
subject-03,1,956,0.778346061706543,elephant,elephant,c100,0956_cop_s03_c100_elephant_10_n02504458_2031.png
subject-03,1,957,1.48999309539795,boat,boat,c50,0957_cop_s03_c50_boat_10_n04273569_26139.png
subject-03,1,958,0.668061017990112,keyboard,bottle,c01,0958_cop_s03_c01_bottle_10_n03937543_986.png
subject-03,1,959,1.02998995780945,bottle,knife,c10,0959_cop_s03_c10_knife_10_n03041632_46185.png
subject-03,1,960,0.913565874099731,bear,bear,c03,0960_cop_s03_c03_bear_10_n02134418_1102.png
subject-03,1,961,1.50000905990601,boat,bear,c05,0961_cop_s03_c05_bear_10_n02132136_1726.png
subject-03,1,962,0.585582971572876,bird,bird,c100,0962_cop_s03_c100_bird_10_n02025239_10194.png
subject-03,1,963,0.717442035675049,bird,bird,c100,0963_cop_s03_c100_bird_10_n01530575_34173.png
subject-03,1,964,0.571120977401733,boat,boat,c10,0964_cop_s03_c10_boat_10_n04612504_2472.png
subject-03,1,965,0.589093923568726,chair,chair,c15,0965_cop_s03_c15_chair_10_n02791124_9757.png
subject-03,1,966,0.738845825195312,cat,cat,c50,0966_cop_s03_c50_cat_10_n02123597_13272.png
subject-03,1,967,0.810724020004272,keyboard,oven,c05,0967_cop_s03_c05_oven_10_n04111531_2156.png
subject-03,1,968,0.710354089736938,truck,truck,c05,0968_cop_s03_c05_truck_10_n03417042_19958.png
subject-03,1,969,0.740292072296143,bicycle,dog,c01,0969_cop_s03_c01_dog_10_n02097658_6391.png
subject-03,1,970,1.07226800918579,bird,truck,c03,0970_cop_s03_c03_truck_10_n03796401_23550.png
subject-03,1,971,1.1919469833374,clock,cat,c05,0971_cop_s03_c05_cat_10_n02125311_37322.png
subject-03,1,972,1.19957113265991,bottle,bottle,c50,0972_cop_s03_c50_bottle_10_n04560804_2942.png
subject-03,1,973,0.779374837875366,bear,bear,c50,0973_cop_s03_c50_bear_10_n02132136_1132.png
subject-03,1,974,0.659243106842041,bottle,bottle,c30,0974_cop_s03_c30_bottle_10_n03983396_9090.png
subject-03,1,975,1.35717105865479,oven,knife,c100,0975_cop_s03_c100_knife_10_n03041632_7279.png
subject-03,1,976,0.632858991622925,clock,clock,c100,0976_cop_s03_c100_clock_10_n03196217_7199.png
subject-03,1,977,0.688723087310791,dog,dog,c100,0977_cop_s03_c100_dog_10_n02102177_988.png
subject-03,1,978,0.838596105575562,elephant,clock,c03,0978_cop_s03_c03_clock_10_n02708093_1546.png
subject-03,1,979,1.38845109939575,oven,oven,c50,0979_cop_s03_c50_oven_10_n04111531_8658.png
subject-03,1,980,0.776198148727417,car,car,c05,0980_cop_s03_c05_car_10_n02814533_45594.png
subject-03,1,981,0.630362033843994,bird,bird,c50,0981_cop_s03_c50_bird_10_n01616318_603.png
subject-03,1,982,NaN,na,bear,c30,0982_cop_s03_c30_bear_10_n02134084_14775.png
subject-03,1,983,0.573501825332642,keyboard,elephant,c03,0983_cop_s03_c03_elephant_10_n02504013_11033.png
subject-03,1,984,0.657518148422241,airplane,airplane,c10,0984_cop_s03_c10_airplane_10_n02690373_8804.png
subject-03,1,985,1.48522996902466,knife,knife,c30,0985_cop_s03_c30_knife_10_n03041632_4808.png
subject-03,1,986,1.27507519721985,dog,dog,c50,0986_cop_s03_c50_dog_10_n02092002_1139.png
subject-03,1,987,0.64106297492981,bear,dog,c01,0987_cop_s03_c01_dog_10_n02098105_2086.png
subject-03,1,988,0.610491991043091,cat,elephant,c10,0988_cop_s03_c10_elephant_10_n02504458_6470.png
subject-03,1,989,1.4884181022644,bottle,knife,c15,0989_cop_s03_c15_knife_10_n03041632_11773.png
subject-03,1,990,0.938277006149292,airplane,boat,c30,0990_cop_s03_c30_boat_10_n04273569_10099.png
subject-03,1,991,0.692179918289185,bird,bird,c30,0991_cop_s03_c30_bird_10_n01855032_7567.png
subject-03,1,992,1.42010498046875,knife,knife,c05,0992_cop_s03_c05_knife_10_n03041632_34676.png
subject-03,1,993,1.50010204315186,bottle,keyboard,c03,0993_cop_s03_c03_keyboard_10_n03085013_22438.png
subject-03,1,994,1.00772190093994,bird,bird,c10,0994_cop_s03_c10_bird_10_n02018207_9697.png
subject-03,1,995,0.713271856307983,oven,bird,c03,0995_cop_s03_c03_bird_10_n01855672_14214.png
subject-03,1,996,0.553098917007446,bear,bear,c50,0996_cop_s03_c50_bear_10_n02132136_29760.png
subject-03,1,997,0.772876977920532,chair,chair,c30,0997_cop_s03_c30_chair_10_n02791124_7207.png
subject-03,1,998,0.824678897857666,keyboard,bottle,c01,0998_cop_s03_c01_bottle_10_n04591713_5364.png
subject-03,1,999,1.48252511024475,chair,elephant,c05,0999_cop_s03_c05_elephant_10_n02504013_7005.png
subject-03,1,1000,0.568360090255737,chair,chair,c50,1000_cop_s03_c50_chair_10_n03376595_4669.png
subject-03,1,1001,0.660333871841431,bottle,oven,c01,1001_cop_s03_c01_oven_10_n04111531_9963.png
subject-03,1,1002,0.880125999450684,bear,boat,c100,1002_cop_s03_c100_boat_10_n02951358_3087.png
subject-03,1,1003,1.01397204399109,car,keyboard,c03,1003_cop_s03_c03_keyboard_10_n04505470_4797.png
subject-03,1,1004,0.647853851318359,car,car,c30,1004_cop_s03_c30_car_10_n03100240_3499.png
subject-03,1,1005,1.10347509384155,keyboard,clock,c10,1005_cop_s03_c10_clock_10_n03196217_8020.png
subject-03,1,1006,0.915331125259399,dog,dog,c100,1006_cop_s03_c100_dog_10_n02107908_3490.png
subject-03,1,1007,0.795590877532959,dog,dog,c30,1007_cop_s03_c30_dog_10_n02108422_293.png
subject-03,1,1008,0.888994932174683,bicycle,bicycle,c50,1008_cop_s03_c50_bicycle_10_n03792782_17571.png
subject-03,1,1009,1.28071594238281,oven,knife,c15,1009_cop_s03_c15_knife_10_n03041632_51766.png
subject-03,1,1010,0.902892827987671,keyboard,bird,c03,1010_cop_s03_c03_bird_10_n02006656_2496.png
subject-03,1,1011,1.12242388725281,keyboard,oven,c01,1011_cop_s03_c01_oven_10_n04111531_5102.png
subject-03,1,1012,1.34208297729492,bicycle,boat,c50,1012_cop_s03_c50_boat_10_n03662601_20110.png
subject-03,1,1013,1.03200387954712,boat,oven,c05,1013_cop_s03_c05_oven_10_n04111531_6628.png
subject-03,1,1014,0.805746078491211,elephant,elephant,c100,1014_cop_s03_c100_elephant_10_n02504458_7955.png
subject-03,1,1015,1.50000095367432,elephant,elephant,c15,1015_cop_s03_c15_elephant_10_n02504013_2479.png
subject-03,1,1016,0.877633810043335,car,bear,c01,1016_cop_s03_c01_bear_10_n02132136_27682.png
subject-03,1,1017,0.699071884155273,elephant,elephant,c50,1017_cop_s03_c50_elephant_10_n02504458_2875.png
subject-03,1,1018,1.34703493118286,knife,knife,c100,1018_cop_s03_c100_knife_10_n03041632_50034.png
subject-03,1,1019,0.742966890335083,knife,knife,c50,1019_cop_s03_c50_knife_10_n03041632_41310.png
subject-03,1,1020,0.612640857696533,boat,boat,c15,1020_cop_s03_c15_boat_10_n04612504_18954.png
subject-03,1,1021,0.956530094146729,airplane,cat,c01,1021_cop_s03_c01_cat_10_n02123597_8052.png
subject-03,1,1022,0.578267812728882,bottle,bottle,c100,1022_cop_s03_c100_bottle_10_n02823428_10933.png
subject-03,1,1023,0.83008599281311,boat,oven,c03,1023_cop_s03_c03_oven_10_n04111531_7619.png
subject-03,1,1024,0.956212997436523,bicycle,knife,c05,1024_cop_s03_c05_knife_10_n03041632_18859.png
subject-03,1,1025,1.09577298164368,boat,airplane,c03,1025_cop_s03_c03_airplane_10_n02690373_13318.png
subject-03,1,1026,1.00142097473145,airplane,airplane,c50,1026_cop_s03_c50_airplane_10_n02690373_3589.png
subject-03,1,1027,0.825369119644165,oven,bicycle,c03,1027_cop_s03_c03_bicycle_10_n02835271_12405.png
subject-03,1,1028,1.30327105522156,boat,boat,c15,1028_cop_s03_c15_boat_10_n03662601_16412.png
subject-03,1,1029,0.624881029129028,airplane,airplane,c100,1029_cop_s03_c100_airplane_10_n02690373_9322.png
subject-03,1,1030,0.720756053924561,dog,knife,c05,1030_cop_s03_c05_knife_10_n03041632_27022.png
subject-03,1,1031,0.758595943450928,bear,dog,c05,1031_cop_s03_c05_dog_10_n02099601_22550.png
subject-03,1,1032,0.696274042129517,bicycle,bicycle,c30,1032_cop_s03_c30_bicycle_10_n03792782_20190.png
subject-03,1,1033,0.800078153610229,boat,dog,c15,1033_cop_s03_c15_dog_10_n02091032_3390.png
subject-03,1,1034,0.667999029159546,airplane,airplane,c50,1034_cop_s03_c50_airplane_10_n02690373_1436.png
subject-03,1,1035,0.713753938674927,bear,bear,c10,1035_cop_s03_c10_bear_10_n02133161_12045.png
subject-03,1,1036,0.791708946228027,bear,elephant,c10,1036_cop_s03_c10_elephant_10_n02504013_4654.png
subject-03,1,1037,0.667675971984863,cat,oven,c01,1037_cop_s03_c01_oven_10_n04111531_14435.png
subject-03,1,1038,0.55525016784668,cat,cat,c30,1038_cop_s03_c30_cat_10_n02123394_5466.png
subject-03,1,1039,1.02521896362305,oven,chair,c50,1039_cop_s03_c50_chair_10_n02791124_5824.png
subject-03,1,1040,0.610777854919434,car,car,c100,1040_cop_s03_c100_car_10_n03100240_6773.png
