subj,Session,trial,rt,object_response,category,condition,imagename
subject-02,1,1,0.670699119567871,boat,airplane,c30,0001_cop_s02_c30_airplane_10_n02690373_12984.png
subject-02,1,2,0.660538196563721,elephant,elephant,c100,0002_cop_s02_c100_elephant_10_n02504458_8615.png
subject-02,1,3,0.766577005386353,elephant,elephant,c30,0003_cop_s02_c30_elephant_10_n02504458_5055.png
subject-02,1,4,0.670161962509155,oven,bird,c05,0004_cop_s02_c05_bird_10_n01616318_57023.png
subject-02,1,5,0.542098045349121,bird,bird,c30,0005_cop_s02_c30_bird_10_n02013706_19220.png
subject-02,1,6,0.591618061065674,boat,oven,c05,0006_cop_s02_c05_oven_10_n04111531_2156.png
subject-02,1,7,0.777374982833862,oven,oven,c01,0007_cop_s02_c01_oven_10_n04111531_21248.png
subject-02,1,8,0.743560075759888,oven,knife,c15,0008_cop_s02_c15_knife_10_n03041632_27709.png
subject-02,1,9,0.574900150299072,boat,cat,c05,0009_cop_s02_c05_cat_10_n02125311_22459.png
subject-02,1,10,0.87119722366333,cat,truck,c05,0010_cop_s02_c05_truck_10_n04467665_70237.png
subject-02,1,11,1.0870988368988,keyboard,chair,c100,0011_cop_s02_c100_chair_10_n02791124_12707.png
subject-02,1,12,0.661099910736084,bird,oven,c15,0012_cop_s02_c15_oven_10_n04111531_23215.png
subject-02,1,13,0.798592090606689,chair,boat,c05,0013_cop_s02_c05_boat_10_n04273569_7312.png
subject-02,1,14,0.623444080352783,bottle,oven,c05,0014_cop_s02_c05_oven_10_n04111531_9297.png
subject-02,1,15,0.752518177032471,clock,dog,c01,0015_cop_s02_c01_dog_10_n02107908_12294.png
subject-02,1,16,0.766006946563721,truck,truck,c50,0016_cop_s02_c50_truck_10_n03417042_10993.png
subject-02,1,17,0.769711971282959,car,bear,c01,0017_cop_s02_c01_bear_10_n02134418_4114.png
subject-02,1,18,0.657530069351196,bird,chair,c03,0018_cop_s02_c03_chair_10_n04099969_9713.png
subject-02,1,19,0.809308052062988,keyboard,knife,c30,0019_cop_s02_c30_knife_10_n03041632_77022.png
subject-02,1,20,0.801213026046753,dog,dog,c30,0020_cop_s02_c30_dog_10_n02097474_5234.png
subject-02,1,21,0.859051942825317,bear,bear,c30,0021_cop_s02_c30_bear_10_n02134084_10839.png
subject-02,1,22,0.800601005554199,bird,bird,c50,0022_cop_s02_c50_bird_10_n01855032_1815.png
subject-02,1,23,1.00060892105103,bird,bottle,c05,0023_cop_s02_c05_bottle_10_n04591713_105.png
subject-02,1,24,0.888494968414307,bear,bear,c10,0024_cop_s02_c10_bear_10_n02133161_14945.png
subject-02,1,25,0.800114870071411,oven,bottle,c30,0025_cop_s02_c30_bottle_10_n03983396_5545.png
subject-02,1,26,0.679955959320068,bird,cat,c03,0026_cop_s02_c03_cat_10_n02123597_11138.png
subject-02,1,27,1.06787300109863,bicycle,bicycle,c30,0027_cop_s02_c30_bicycle_10_n03792782_10526.png
subject-02,1,28,1.17351603507996,car,airplane,c15,0028_cop_s02_c15_airplane_10_n02690373_1952.png
subject-02,1,29,0.90577507019043,clock,clock,c15,0029_cop_s02_c15_clock_10_n04548280_5087.png
subject-02,1,30,0.801174879074097,truck,truck,c100,0030_cop_s02_c100_truck_10_n04467665_4239.png
subject-02,1,31,1.0309739112854,keyboard,bird,c15,0031_cop_s02_c15_bird_10_n01532829_2263.png
subject-02,1,32,0.811096906661987,boat,boat,c05,0032_cop_s02_c05_boat_10_n04612504_8407.png
subject-02,1,33,0.822707176208496,car,keyboard,c03,0033_cop_s02_c03_keyboard_10_n03085013_24306.png
subject-02,1,34,0.616435050964355,bear,bear,c100,0034_cop_s02_c100_bear_10_n02134084_19791.png
subject-02,1,35,0.934535026550293,airplane,airplane,c01,0035_cop_s02_c01_airplane_10_n02690373_4793.png
subject-02,1,36,0.712236881256104,oven,oven,c100,0036_cop_s02_c100_oven_10_n04111531_4685.png
subject-02,1,37,0.756187915802002,clock,bird,c10,0037_cop_s02_c10_bird_10_n02002556_9804.png
subject-02,1,38,1.23976016044617,chair,dog,c10,0038_cop_s02_c10_dog_10_n02105251_7686.png
subject-02,1,39,1.21991109848022,keyboard,oven,c10,0039_cop_s02_c10_oven_10_n04111531_1898.png
subject-02,1,40,1.05340099334717,bottle,knife,c30,0040_cop_s02_c30_knife_10_n03041632_30565.png
subject-02,1,41,0.90120792388916,keyboard,keyboard,c10,0041_cop_s02_c10_keyboard_10_n04505470_2421.png
subject-02,1,42,0.797022104263306,car,bicycle,c01,0042_cop_s02_c01_bicycle_10_n02835271_5437.png
subject-02,1,43,1.34918594360352,bird,dog,c10,0043_cop_s02_c10_dog_10_n02111129_932.png
subject-02,1,44,0.744658946990967,chair,chair,c30,0044_cop_s02_c30_chair_10_n02791124_4109.png
subject-02,1,45,0.692595958709717,bottle,keyboard,c03,0045_cop_s02_c03_keyboard_10_n03085013_22438.png
subject-02,1,46,0.800076961517334,cat,elephant,c03,0046_cop_s02_c03_elephant_10_n02504458_5320.png
subject-02,1,47,0.758130073547363,car,truck,c30,0047_cop_s02_c30_truck_10_n04467665_2199.png
subject-02,1,48,1.02191305160522,truck,cat,c03,0048_cop_s02_c03_cat_10_n02124075_11759.png
subject-02,1,49,0.731770038604736,cat,cat,c100,0049_cop_s02_c100_cat_10_n02123045_9845.png
subject-02,1,50,0.769522905349731,bird,bird,c100,0050_cop_s02_c100_bird_10_n01797886_465.png
subject-02,1,51,0.797275066375732,dog,bear,c05,0051_cop_s02_c05_bear_10_n02134084_6223.png
subject-02,1,52,0.805031061172485,dog,dog,c50,0052_cop_s02_c50_dog_10_n02092002_1139.png
subject-02,1,53,1.23289585113525,boat,bear,c30,0053_cop_s02_c30_bear_10_n02134084_14775.png
subject-02,1,54,1.02925300598145,car,car,c05,0054_cop_s02_c05_car_10_n03100240_5718.png
subject-02,1,55,0.900666952133179,keyboard,keyboard,c10,0055_cop_s02_c10_keyboard_10_n04505470_1692.png
subject-02,1,56,1.17652821540833,clock,knife,c01,0056_cop_s02_c01_knife_10_n03041632_21590.png
subject-02,1,57,0.766181945800781,bird,bird,c50,0057_cop_s02_c50_bird_10_n02033041_6046.png
subject-02,1,58,0.976258039474487,bird,bird,c100,0058_cop_s02_c100_bird_10_n02025239_10194.png
subject-02,1,59,0.783972024917603,cat,bird,c01,0059_cop_s02_c01_bird_10_n02017213_2183.png
subject-02,1,60,0.767745018005371,bird,bird,c30,0060_cop_s02_c30_bird_10_n01534433_3428.png
subject-02,1,61,0.749342203140259,boat,chair,c01,0061_cop_s02_c01_chair_10_n04099969_4577.png
subject-02,1,62,1.10777807235718,elephant,knife,c50,0062_cop_s02_c50_knife_10_n03041632_1006.png
subject-02,1,63,0.971399784088135,bear,bear,c100,0063_cop_s02_c100_bear_10_n02134418_1218.png
subject-02,1,64,0.990797996520996,bird,truck,c05,0064_cop_s02_c05_truck_10_n03796401_3509.png
subject-02,1,65,0.989068031311035,chair,chair,c05,0065_cop_s02_c05_chair_10_n02791124_4296.png
subject-02,1,66,0.744548082351685,elephant,elephant,c30,0066_cop_s02_c30_elephant_10_n02504013_5537.png
subject-02,1,67,0.734325885772705,keyboard,clock,c01,0067_cop_s02_c01_clock_10_n04548280_1325.png
subject-02,1,68,0.700064182281494,airplane,bicycle,c10,0068_cop_s02_c10_bicycle_10_n03792782_14557.png
subject-02,1,69,0.808002948760986,clock,bird,c03,0069_cop_s02_c03_bird_10_n01855672_14214.png
subject-02,1,70,0.860121965408325,elephant,bear,c10,0070_cop_s02_c10_bear_10_n02134084_1346.png
subject-02,1,71,0.807475090026855,keyboard,oven,c50,0071_cop_s02_c50_oven_10_n04111531_7106.png
subject-02,1,72,0.759525060653687,bear,dog,c05,0072_cop_s02_c05_dog_10_n02099601_22550.png
subject-02,1,73,0.943479061126709,bicycle,oven,c01,0073_cop_s02_c01_oven_10_n04111531_14435.png
subject-02,1,74,0.697196960449219,bear,bear,c50,0074_cop_s02_c50_bear_10_n02132136_27823.png
subject-02,1,75,0.85515284538269,bottle,bottle,c15,0075_cop_s02_c15_bottle_10_n04557648_6060.png
subject-02,1,76,0.784708023071289,airplane,airplane,c100,0076_cop_s02_c100_airplane_10_n02690373_220.png
subject-02,1,77,0.664386987686157,cat,cat,c15,0077_cop_s02_c15_cat_10_n02123045_20719.png
subject-02,1,78,0.786179065704346,car,oven,c05,0078_cop_s02_c05_oven_10_n04111531_13277.png
subject-02,1,79,0.926130056381226,airplane,airplane,c50,0079_cop_s02_c50_airplane_10_n02690373_2675.png
subject-02,1,80,0.899739980697632,boat,boat,c05,0080_cop_s02_c05_boat_10_n03344393_5636.png
subject-02,1,81,0.671297073364258,boat,oven,c50,0081_cop_s02_c50_oven_10_n04111531_5126.png
subject-02,1,82,1.12888312339783,elephant,cat,c10,0082_cop_s02_c10_cat_10_n02125311_14569.png
subject-02,1,83,1.40877294540405,truck,truck,c100,0083_cop_s02_c100_truck_10_n03417042_4420.png
subject-02,1,84,NaN,na,elephant,c30,0084_cop_s02_c30_elephant_10_n02504458_5337.png
subject-02,1,85,0.750715970993042,car,car,c30,0085_cop_s02_c30_car_10_n04285008_12453.png
subject-02,1,86,0.764227867126465,car,airplane,c10,0086_cop_s02_c10_airplane_10_n02690373_5344.png
subject-02,1,87,0.762413024902344,bottle,bottle,c50,0087_cop_s02_c50_bottle_10_n02823428_5288.png
subject-02,1,88,0.805934906005859,elephant,elephant,c100,0088_cop_s02_c100_elephant_10_n02504458_12217.png
subject-02,1,89,0.621634006500244,elephant,elephant,c30,0089_cop_s02_c30_elephant_10_n02504458_3409.png
subject-02,1,90,0.693485975265503,airplane,knife,c15,0090_cop_s02_c15_knife_10_n03041632_51766.png
subject-02,1,91,0.533317804336548,clock,chair,c01,0091_cop_s02_c01_chair_10_n03376595_1364.png
subject-02,1,92,0.867079019546509,keyboard,boat,c05,0092_cop_s02_c05_boat_10_n02951358_33807.png
subject-02,1,93,0.70281195640564,oven,bicycle,c03,0093_cop_s02_c03_bicycle_10_n03792782_12908.png
subject-02,1,94,1.06654500961304,keyboard,keyboard,c15,0094_cop_s02_c15_keyboard_10_n03085013_23008.png
subject-02,1,95,0.68844199180603,elephant,bird,c50,0095_cop_s02_c50_bird_10_n01860187_810.png
subject-02,1,96,1.01630997657776,bottle,bottle,c100,0096_cop_s02_c100_bottle_10_n02823428_6050.png
subject-02,1,97,1.14608907699585,clock,clock,c15,0097_cop_s02_c15_clock_10_n04548280_5519.png
subject-02,1,98,0.755814075469971,elephant,elephant,c10,0098_cop_s02_c10_elephant_10_n02504013_1833.png
subject-02,1,99,1.00167798995972,elephant,oven,c30,0099_cop_s02_c30_oven_10_n04111531_9692.png
subject-02,1,100,0.81168794631958,keyboard,airplane,c03,0100_cop_s02_c03_airplane_10_n02690373_891.png
subject-02,1,101,0.863393068313599,bear,bear,c50,0101_cop_s02_c50_bear_10_n02133161_4954.png
subject-02,1,102,1.01713109016418,chair,keyboard,c10,0102_cop_s02_c10_keyboard_10_n03085013_30073.png
subject-02,1,103,0.923254013061523,bird,bird,c15,0103_cop_s02_c15_bird_10_n02009229_6149.png
subject-02,1,104,0.794739961624146,bear,bear,c15,0104_cop_s02_c15_bear_10_n02134084_4859.png
subject-02,1,105,1.39465999603271,bear,bear,c50,0105_cop_s02_c50_bear_10_n02132136_19512.png
subject-02,1,106,1.43034791946411,car,knife,c30,0106_cop_s02_c30_knife_10_n03041632_4590.png
subject-02,1,107,1.09814214706421,keyboard,keyboard,c50,0107_cop_s02_c50_keyboard_10_n03085013_14279.png
subject-02,1,108,0.80597186088562,bicycle,bicycle,c30,0108_cop_s02_c30_bicycle_10_n03792782_20190.png
subject-02,1,109,0.669825077056885,bottle,bottle,c50,0109_cop_s02_c50_bottle_10_n03937543_8197.png
subject-02,1,110,0.705803871154785,oven,boat,c10,0110_cop_s02_c10_boat_10_n04273569_14373.png
subject-02,1,111,0.76770806312561,chair,chair,c50,0111_cop_s02_c50_chair_10_n04429376_15534.png
subject-02,1,112,0.679176092147827,cat,cat,c30,0112_cop_s02_c30_cat_10_n02123045_1484.png
subject-02,1,113,0.801177024841309,car,car,c15,0113_cop_s02_c15_car_10_n04285008_5208.png
subject-02,1,114,0.984796047210693,boat,keyboard,c05,0114_cop_s02_c05_keyboard_10_n03085013_12399.png
subject-02,1,115,0.974725961685181,boat,bear,c03,0115_cop_s02_c03_bear_10_n02133161_968.png
subject-02,1,116,0.79862904548645,bicycle,bicycle,c30,0116_cop_s02_c30_bicycle_10_n03792782_3481.png
subject-02,1,117,0.688264131546021,clock,knife,c01,0117_cop_s02_c01_knife_10_n03041632_2338.png
subject-02,1,118,1.16207790374756,bear,bear,c10,0118_cop_s02_c10_bear_10_n02132136_4101.png
subject-02,1,119,0.786186933517456,elephant,clock,c05,0119_cop_s02_c05_clock_10_n02708093_4391.png
subject-02,1,120,0.79758620262146,bottle,bottle,c30,0120_cop_s02_c30_bottle_10_n03983396_9090.png
subject-02,1,121,0.739696025848389,keyboard,oven,c100,0121_cop_s02_c100_oven_10_n04111531_23264.png
subject-02,1,122,0.635554075241089,oven,truck,c01,0122_cop_s02_c01_truck_10_n04467665_13193.png
subject-02,1,123,0.675333023071289,clock,clock,c01,0123_cop_s02_c01_clock_10_n04548280_2374.png
subject-02,1,124,0.779361963272095,car,car,c05,0124_cop_s02_c05_car_10_n04285008_3891.png
subject-02,1,125,0.778825044631958,truck,oven,c01,0125_cop_s02_c01_oven_10_n04111531_797.png
subject-02,1,126,0.676583051681519,car,bottle,c01,0126_cop_s02_c01_bottle_10_n04591713_5364.png
subject-02,1,127,0.906445026397705,oven,cat,c05,0127_cop_s02_c05_cat_10_n02125311_37322.png
subject-02,1,128,1.14045906066895,boat,cat,c03,0128_cop_s02_c03_cat_10_n02124075_12430.png
subject-02,1,129,0.894310235977173,bottle,bottle,c30,0129_cop_s02_c30_bottle_10_n04579145_466.png
subject-02,1,130,0.851761102676392,keyboard,bottle,c05,0130_cop_s02_c05_bottle_10_n04560804_21795.png
subject-02,1,131,0.562083005905151,cat,knife,c03,0131_cop_s02_c03_knife_10_n03041632_4260.png
subject-02,1,132,1.21568393707275,car,oven,c10,0132_cop_s02_c10_oven_10_n04111531_1580.png
subject-02,1,133,0.79926586151123,chair,chair,c100,0133_cop_s02_c100_chair_10_n04099969_2502.png
subject-02,1,134,0.649519920349121,oven,car,c01,0134_cop_s02_c01_car_10_n03100240_3289.png
subject-02,1,135,1.49109101295471,airplane,boat,c15,0135_cop_s02_c15_boat_10_n04273569_16295.png
subject-02,1,136,0.911284923553467,clock,clock,c100,0136_cop_s02_c100_clock_10_n03196217_4947.png
subject-02,1,137,0.798685073852539,bicycle,bicycle,c50,0137_cop_s02_c50_bicycle_10_n02835271_3383.png
subject-02,1,138,0.786700010299683,bicycle,bicycle,c10,0138_cop_s02_c10_bicycle_10_n02835271_2553.png
subject-02,1,139,0.840262889862061,bear,knife,c01,0139_cop_s02_c01_knife_10_n03041632_206.png
subject-02,1,140,0.650223970413208,boat,chair,c10,0140_cop_s02_c10_chair_10_n02791124_1018.png
subject-02,1,141,0.936030149459839,bear,bear,c30,0141_cop_s02_c30_bear_10_n02132136_4157.png
subject-02,1,142,0.783623933792114,oven,bottle,c05,0142_cop_s02_c05_bottle_10_n03937543_2873.png
subject-02,1,143,0.835391998291016,chair,bear,c15,0143_cop_s02_c15_bear_10_n02134084_24140.png
subject-02,1,144,0.655197143554688,bird,bird,c50,0144_cop_s02_c50_bird_10_n01829413_14594.png
subject-02,1,145,0.761474847793579,keyboard,keyboard,c15,0145_cop_s02_c15_keyboard_10_n04505470_6115.png
subject-02,1,146,0.789269924163818,oven,oven,c100,0146_cop_s02_c100_oven_10_n04111531_14095.png
subject-02,1,147,0.622637987136841,cat,bird,c01,0147_cop_s02_c01_bird_10_n01829413_6393.png
subject-02,1,148,0.75242805480957,car,truck,c03,0148_cop_s02_c03_truck_10_n04467665_276.png
subject-02,1,149,0.726545810699463,airplane,oven,c30,0149_cop_s02_c30_oven_10_n04111531_467.png
subject-02,1,150,0.832256078720093,clock,clock,c30,0150_cop_s02_c30_clock_10_n02708093_6595.png
subject-02,1,151,0.813980102539062,boat,bottle,c03,0151_cop_s02_c03_bottle_10_n03937543_4916.png
subject-02,1,152,0.905946016311646,cat,cat,c10,0152_cop_s02_c10_cat_10_n02123597_488.png
subject-02,1,153,0.777938842773438,cat,clock,c05,0153_cop_s02_c05_clock_10_n02708093_8038.png
subject-02,1,154,0.565444946289062,cat,cat,c50,0154_cop_s02_c50_cat_10_n02124075_10241.png
subject-02,1,155,0.741325855255127,oven,chair,c05,0155_cop_s02_c05_chair_10_n04429376_55163.png
subject-02,1,156,0.785025119781494,car,car,c100,0156_cop_s02_c100_car_10_n03100240_15647.png
subject-02,1,157,0.707221031188965,keyboard,boat,c05,0157_cop_s02_c05_boat_10_n03662601_4246.png
subject-02,1,158,1.00067710876465,boat,oven,c05,0158_cop_s02_c05_oven_10_n04111531_2201.png
subject-02,1,159,0.810468912124634,car,truck,c01,0159_cop_s02_c01_truck_10_n03417042_23038.png
subject-02,1,160,0.690295934677124,cat,truck,c03,0160_cop_s02_c03_truck_10_n03796401_28635.png
subject-02,1,161,0.758372783660889,cat,bear,c01,0161_cop_s02_c01_bear_10_n02133161_789.png
subject-02,1,162,0.50404691696167,boat,keyboard,c01,0162_cop_s02_c01_keyboard_10_n03085013_24442.png
subject-02,1,163,0.557830095291138,oven,clock,c03,0163_cop_s02_c03_clock_10_n02708093_1546.png
subject-02,1,164,0.663718938827515,keyboard,oven,c30,0164_cop_s02_c30_oven_10_n04111531_695.png
subject-02,1,165,0.731379985809326,chair,chair,c10,0165_cop_s02_c10_chair_10_n04099969_4009.png
subject-02,1,166,0.697394847869873,boat,truck,c15,0166_cop_s02_c15_truck_10_n04467665_66065.png
subject-02,1,167,0.771049976348877,clock,clock,c30,0167_cop_s02_c30_clock_10_n03196217_3780.png
subject-02,1,168,0.629260063171387,cat,airplane,c01,0168_cop_s02_c01_airplane_10_n02690373_8883.png
subject-02,1,169,0.782963991165161,car,cat,c05,0169_cop_s02_c05_cat_10_n02123159_5205.png
subject-02,1,170,1.00667810440063,elephant,elephant,c30,0170_cop_s02_c30_elephant_10_n02504013_476.png
subject-02,1,171,1.16057419776917,bottle,bicycle,c50,0171_cop_s02_c50_bicycle_10_n02835271_25718.png
subject-02,1,172,0.994354963302612,truck,truck,c50,0172_cop_s02_c50_truck_10_n03796401_13298.png
subject-02,1,173,0.944123029708862,bird,bird,c30,0173_cop_s02_c30_bird_10_n02011460_11838.png
subject-02,1,174,0.925918102264404,dog,dog,c50,0174_cop_s02_c50_dog_10_n02104029_2132.png
subject-02,1,175,0.768099069595337,clock,clock,c15,0175_cop_s02_c15_clock_10_n02708093_6696.png
subject-02,1,176,0.991780042648315,chair,car,c50,0176_cop_s02_c50_car_10_n03100240_2528.png
subject-02,1,177,1.27918100357056,clock,keyboard,c15,0177_cop_s02_c15_keyboard_10_n03085013_20891.png
subject-02,1,178,0.758985996246338,boat,bicycle,c05,0178_cop_s02_c05_bicycle_10_n03792782_8057.png
subject-02,1,179,1.24087905883789,cat,cat,c30,0179_cop_s02_c30_cat_10_n02124075_10155.png
subject-02,1,180,1.12065386772156,chair,bear,c15,0180_cop_s02_c15_bear_10_n02134418_1259.png
subject-02,1,181,1.00283193588257,bottle,bottle,c30,0181_cop_s02_c30_bottle_10_n04591713_1652.png
subject-02,1,182,0.74248218536377,bird,elephant,c01,0182_cop_s02_c01_elephant_10_n02504458_4244.png
subject-02,1,183,1.29624485969543,bear,elephant,c30,0183_cop_s02_c30_elephant_10_n02504013_7539.png
subject-02,1,184,0.948025941848755,elephant,bottle,c03,0184_cop_s02_c03_bottle_10_n04560804_722.png
subject-02,1,185,0.827879190444946,cat,cat,c50,0185_cop_s02_c50_cat_10_n02123159_6132.png
subject-02,1,186,0.989879131317139,bottle,knife,c50,0186_cop_s02_c50_knife_10_n03041632_13612.png
subject-02,1,187,1.11179113388062,elephant,elephant,c50,0187_cop_s02_c50_elephant_10_n02504458_5600.png
subject-02,1,188,1.25710606575012,car,car,c30,0188_cop_s02_c30_car_10_n04285008_11323.png
subject-02,1,189,1.09730100631714,bird,chair,c03,0189_cop_s02_c03_chair_10_n04099969_2610.png
subject-02,1,190,0.868654012680054,keyboard,boat,c30,0190_cop_s02_c30_boat_10_n03344393_4583.png
subject-02,1,191,0.858626127243042,oven,knife,c100,0191_cop_s02_c100_knife_10_n03041632_29037.png
subject-02,1,192,0.744253873825073,cat,bird,c01,0192_cop_s02_c01_bird_10_n01537544_22049.png
subject-02,1,193,0.922291994094849,airplane,bottle,c10,0193_cop_s02_c10_bottle_10_n02823428_721.png
subject-02,1,194,1.05242586135864,bear,knife,c100,0194_cop_s02_c100_knife_10_n03041632_23968.png
subject-02,1,195,0.791743993759155,chair,chair,c100,0195_cop_s02_c100_chair_10_n04099969_1490.png
subject-02,1,196,0.85005521774292,bottle,knife,c01,0196_cop_s02_c01_knife_10_n03041632_8666.png
subject-02,1,197,0.917530059814453,keyboard,keyboard,c03,0197_cop_s02_c03_keyboard_10_n03085013_29941.png
subject-02,1,198,0.789431095123291,oven,oven,c30,0198_cop_s02_c30_oven_10_n04111531_1970.png
subject-02,1,199,0.787117004394531,cat,bicycle,c03,0199_cop_s02_c03_bicycle_10_n03792782_27510.png
subject-02,1,200,0.877068996429443,keyboard,boat,c100,0200_cop_s02_c100_boat_10_n02951358_12663.png
subject-02,1,201,0.858969926834106,car,airplane,c03,0201_cop_s02_c03_airplane_10_n02690373_5524.png
subject-02,1,202,0.926634073257446,bear,bear,c15,0202_cop_s02_c15_bear_10_n02134418_2175.png
subject-02,1,203,1.17242288589478,cat,knife,c10,0203_cop_s02_c10_knife_10_n03041632_16020.png
subject-02,1,204,0.958600997924805,truck,truck,c30,0204_cop_s02_c30_truck_10_n03417042_5346.png
subject-02,1,205,0.776219129562378,car,car,c10,0205_cop_s02_c10_car_10_n03100240_8443.png
subject-02,1,206,0.851945877075195,oven,airplane,c01,0206_cop_s02_c01_airplane_10_n02690373_5106.png
subject-02,1,207,0.799671173095703,airplane,boat,c01,0207_cop_s02_c01_boat_10_n03344393_2838.png
subject-02,1,208,0.803476095199585,elephant,elephant,c15,0208_cop_s02_c15_elephant_10_n02504458_8923.png
subject-02,1,209,0.839236974716187,bird,bird,c03,0209_cop_s02_c03_bird_10_n01592084_5936.png
subject-02,1,210,0.901021957397461,oven,oven,c15,0210_cop_s02_c15_oven_10_n04111531_8255.png
subject-02,1,211,0.754876136779785,car,clock,c03,0211_cop_s02_c03_clock_10_n04548280_4582.png
subject-02,1,212,0.744722127914429,keyboard,keyboard,c100,0212_cop_s02_c100_keyboard_10_n03085013_12175.png
subject-02,1,213,0.694522857666016,boat,car,c03,0213_cop_s02_c03_car_10_n04285008_1453.png
subject-02,1,214,0.87828803062439,car,truck,c50,0214_cop_s02_c50_truck_10_n03796401_296.png
subject-02,1,215,1.04006099700928,bear,bear,c100,0215_cop_s02_c100_bear_10_n02134084_16084.png
subject-02,1,216,1.06215405464172,car,car,c15,0216_cop_s02_c15_car_10_n02814533_19287.png
subject-02,1,217,0.737782955169678,truck,car,c03,0217_cop_s02_c03_car_10_n04285008_11922.png
subject-02,1,218,0.639646053314209,car,keyboard,c01,0218_cop_s02_c01_keyboard_10_n04505470_1904.png
subject-02,1,219,1.01175880432129,oven,oven,c50,0219_cop_s02_c50_oven_10_n04111531_22388.png
subject-02,1,220,0.563264131546021,cat,boat,c03,0220_cop_s02_c03_boat_10_n03344393_4213.png
subject-02,1,221,1.20096492767334,bottle,bottle,c10,0221_cop_s02_c10_bottle_10_n04557648_2426.png
subject-02,1,222,0.940987825393677,bear,bear,c100,0222_cop_s02_c100_bear_10_n02134418_4372.png
subject-02,1,223,1.06060099601746,knife,keyboard,c01,0223_cop_s02_c01_keyboard_10_n03085013_18674.png
subject-02,1,224,0.854570865631104,clock,clock,c100,0224_cop_s02_c100_clock_10_n04548280_5773.png
subject-02,1,225,0.76844596862793,keyboard,keyboard,c30,0225_cop_s02_c30_keyboard_10_n04505470_709.png
subject-02,1,226,0.99200177192688,keyboard,keyboard,c50,0226_cop_s02_c50_keyboard_10_n03085013_18907.png
subject-02,1,227,1.02794504165649,keyboard,keyboard,c10,0227_cop_s02_c10_keyboard_10_n03085013_16359.png
subject-02,1,228,0.719710111618042,bird,dog,c30,0228_cop_s02_c30_dog_10_n02102480_8264.png
subject-02,1,229,0.633655071258545,cat,bottle,c03,0229_cop_s02_c03_bottle_10_n04557648_2355.png
subject-02,1,230,0.781353950500488,elephant,elephant,c50,0230_cop_s02_c50_elephant_10_n02504458_3182.png
subject-02,1,231,0.973498106002808,airplane,airplane,c50,0231_cop_s02_c50_airplane_10_n02690373_8539.png
subject-02,1,232,0.946976900100708,cat,cat,c15,0232_cop_s02_c15_cat_10_n02125311_24985.png
subject-02,1,233,0.999254941940308,car,clock,c03,0233_cop_s02_c03_clock_10_n04548280_4841.png
subject-02,1,234,0.706541061401367,car,car,c30,0234_cop_s02_c30_car_10_n02814533_5183.png
subject-02,1,235,0.772641897201538,bird,bird,c30,0235_cop_s02_c30_bird_10_n01796340_10024.png
subject-02,1,236,1.10837697982788,oven,bicycle,c01,0236_cop_s02_c01_bicycle_10_n02835271_10741.png
subject-02,1,237,0.781955003738403,bird,bird,c50,0237_cop_s02_c50_bird_10_n01614925_1908.png
subject-02,1,238,0.699939966201782,chair,chair,c15,0238_cop_s02_c15_chair_10_n04429376_43275.png
subject-02,1,239,0.759729146957397,car,airplane,c05,0239_cop_s02_c05_airplane_10_n02690373_8650.png
subject-02,1,240,1.1015031337738,airplane,boat,c15,0240_cop_s02_c15_boat_10_n03662601_3011.png
subject-02,1,241,0.769446849822998,boat,car,c01,0241_cop_s02_c01_car_10_n03100240_5825.png
subject-02,1,242,0.842772960662842,truck,truck,c50,0242_cop_s02_c50_truck_10_n03796401_1681.png
subject-02,1,243,0.762650966644287,bicycle,bicycle,c15,0243_cop_s02_c15_bicycle_10_n03792782_5557.png
subject-02,1,244,0.774624109268188,elephant,elephant,c100,0244_cop_s02_c100_elephant_10_n02504458_99.png
subject-02,1,245,0.99028491973877,knife,knife,c30,0245_cop_s02_c30_knife_10_n03041632_1671.png
subject-02,1,246,0.884026050567627,airplane,airplane,c30,0246_cop_s02_c30_airplane_10_n02690373_7004.png
subject-02,1,247,1.07009291648865,keyboard,keyboard,c100,0247_cop_s02_c100_keyboard_10_n04505470_5068.png
subject-02,1,248,0.733809947967529,car,car,c30,0248_cop_s02_c30_car_10_n02814533_18148.png
subject-02,1,249,1.10561203956604,car,bottle,c30,0249_cop_s02_c30_bottle_10_n04591713_7476.png
subject-02,1,250,0.893186092376709,bird,boat,c01,0250_cop_s02_c01_boat_10_n04273569_15906.png
subject-02,1,251,0.773076057434082,boat,boat,c30,0251_cop_s02_c30_boat_10_n02951358_29825.png
subject-02,1,252,1.04482197761536,car,car,c05,0252_cop_s02_c05_car_10_n03100240_8591.png
subject-02,1,253,0.672616958618164,truck,car,c01,0253_cop_s02_c01_car_10_n02814533_3590.png
subject-02,1,254,0.960507154464722,elephant,cat,c10,0254_cop_s02_c10_cat_10_n02124075_1576.png
subject-02,1,255,0.964217901229858,bear,clock,c15,0255_cop_s02_c15_clock_10_n03196217_5165.png
subject-02,1,256,0.900562047958374,cat,car,c01,0256_cop_s02_c01_car_10_n03100240_17587.png
subject-02,1,257,1.10034394264221,bird,bird,c15,0257_cop_s02_c15_bird_10_n01860187_38598.png
subject-02,1,258,0.725708961486816,oven,airplane,c03,0258_cop_s02_c03_airplane_10_n02690373_13318.png
subject-02,1,259,1.05982112884521,chair,clock,c15,0259_cop_s02_c15_clock_10_n02708093_3743.png
subject-02,1,260,1.02542304992676,chair,oven,c01,0260_cop_s02_c01_oven_10_n04111531_20953.png
subject-02,1,261,0.757268905639648,chair,boat,c01,0261_cop_s02_c01_boat_10_n03344393_8761.png
subject-02,1,262,1.16696500778198,airplane,knife,c10,0262_cop_s02_c10_knife_10_n03041632_14817.png
subject-02,1,263,0.711006879806519,cat,bear,c01,0263_cop_s02_c01_bear_10_n02134084_4477.png
subject-02,1,264,0.816519021987915,boat,truck,c15,0264_cop_s02_c15_truck_10_n04467665_80098.png
subject-02,1,265,0.890510082244873,chair,knife,c10,0265_cop_s02_c10_knife_10_n03041632_13108.png
subject-02,1,266,0.826294183731079,clock,clock,c10,0266_cop_s02_c10_clock_10_n03196217_4232.png
subject-02,1,267,0.798061847686768,chair,chair,c100,0267_cop_s02_c100_chair_10_n04099969_3929.png
subject-02,1,268,0.747999906539917,dog,dog,c30,0268_cop_s02_c30_dog_10_n02113799_18413.png
subject-02,1,269,1.07377004623413,bear,dog,c30,0269_cop_s02_c30_dog_10_n02102480_3679.png
subject-02,1,270,0.725522994995117,bottle,bottle,c50,0270_cop_s02_c50_bottle_10_n04591713_5607.png
subject-02,1,271,0.723430871963501,clock,clock,c05,0271_cop_s02_c05_clock_10_n02708093_4798.png
subject-02,1,272,1.00304102897644,dog,dog,c100,0272_cop_s02_c100_dog_10_n02090622_4585.png
subject-02,1,273,0.906889200210571,bottle,boat,c10,0273_cop_s02_c10_boat_10_n03344393_4485.png
subject-02,1,274,0.756781101226807,cat,cat,c30,0274_cop_s02_c30_cat_10_n02123597_29513.png
subject-02,1,275,0.730597019195557,cat,cat,c15,0275_cop_s02_c15_cat_10_n02123045_5200.png
subject-02,1,276,0.670350074768066,boat,knife,c05,0276_cop_s02_c05_knife_10_n03041632_34676.png
subject-02,1,277,0.632140159606934,car,car,c100,0277_cop_s02_c100_car_10_n03100240_6773.png
subject-02,1,278,0.738001823425293,elephant,bird,c03,0278_cop_s02_c03_bird_10_n02002724_13195.png
subject-02,1,279,1.01580095291138,oven,oven,c30,0279_cop_s02_c30_oven_10_n04111531_10710.png
subject-02,1,280,0.903817176818848,boat,clock,c05,0280_cop_s02_c05_clock_10_n02708093_1559.png
subject-02,1,281,0.971604108810425,clock,bottle,c03,0281_cop_s02_c03_bottle_10_n04560804_15840.png
subject-02,1,282,1.18718409538269,bicycle,knife,c10,0282_cop_s02_c10_knife_10_n03041632_31037.png
subject-02,1,283,0.729121923446655,bicycle,bear,c01,0283_cop_s02_c01_bear_10_n02132136_27682.png
subject-02,1,284,0.898902893066406,bicycle,bicycle,c50,0284_cop_s02_c50_bicycle_10_n02835271_5751.png
subject-02,1,285,1.04500699043274,elephant,keyboard,c03,0285_cop_s02_c03_keyboard_10_n03085013_4673.png
subject-02,1,286,0.72851300239563,elephant,elephant,c15,0286_cop_s02_c15_elephant_10_n02504458_2607.png
subject-02,1,287,0.912328958511353,airplane,airplane,c30,0287_cop_s02_c30_airplane_10_n02690373_8876.png
subject-02,1,288,0.784120082855225,airplane,airplane,c03,0288_cop_s02_c03_airplane_10_n02690373_9317.png
subject-02,1,289,0.805906057357788,elephant,bird,c03,0289_cop_s02_c03_bird_10_n02002724_5876.png
subject-02,1,290,1.0280749797821,chair,chair,c10,0290_cop_s02_c10_chair_10_n04429376_56624.png
subject-02,1,291,1.08365988731384,car,boat,c50,0291_cop_s02_c50_boat_10_n04273569_4380.png
subject-02,1,292,0.681352853775024,oven,oven,c10,0292_cop_s02_c10_oven_10_n04111531_10077.png
subject-02,1,293,0.731077194213867,boat,dog,c05,0293_cop_s02_c05_dog_10_n02099849_6384.png
subject-02,1,294,0.626890897750854,boat,car,c03,0294_cop_s02_c03_car_10_n04285008_8213.png
subject-02,1,295,0.594746112823486,cat,cat,c30,0295_cop_s02_c30_cat_10_n02123394_5466.png
subject-02,1,296,0.746847152709961,elephant,elephant,c10,0296_cop_s02_c10_elephant_10_n02504013_3821.png
subject-02,1,297,0.736783027648926,airplane,airplane,c15,0297_cop_s02_c15_airplane_10_n02690373_2643.png
subject-02,1,298,0.780478000640869,chair,chair,c30,0298_cop_s02_c30_chair_10_n03376595_1024.png
subject-02,1,299,1.08213901519775,chair,chair,c30,0299_cop_s02_c30_chair_10_n02791124_7207.png
subject-02,1,300,1.14204001426697,chair,chair,c30,0300_cop_s02_c30_chair_10_n04429376_9000.png
subject-02,1,301,0.833678007125854,bicycle,bicycle,c15,0301_cop_s02_c15_bicycle_10_n02835271_8059.png
subject-02,1,302,0.993624925613403,boat,boat,c50,0302_cop_s02_c50_boat_10_n02951358_8285.png
subject-02,1,303,0.755311965942383,oven,elephant,c03,0303_cop_s02_c03_elephant_10_n02504013_7467.png
subject-02,1,304,0.793308019638062,cat,keyboard,c01,0304_cop_s02_c01_keyboard_10_n04505470_4400.png
subject-02,1,305,0.859445095062256,bottle,bottle,c100,0305_cop_s02_c100_bottle_10_n04560804_23390.png
subject-02,1,306,0.942852973937988,keyboard,keyboard,c50,0306_cop_s02_c50_keyboard_10_n04505470_3117.png
subject-02,1,307,0.868622064590454,airplane,clock,c03,0307_cop_s02_c03_clock_10_n04548280_3161.png
subject-02,1,308,0.848273038864136,car,airplane,c03,0308_cop_s02_c03_airplane_10_n02690373_13604.png
subject-02,1,309,1.2523500919342,airplane,keyboard,c30,0309_cop_s02_c30_keyboard_10_n03085013_18945.png
subject-02,1,310,0.866065979003906,keyboard,keyboard,c30,0310_cop_s02_c30_keyboard_10_n04505470_8754.png
subject-02,1,311,0.808210134506226,airplane,airplane,c50,0311_cop_s02_c50_airplane_10_n02690373_2544.png
subject-02,1,312,0.851621866226196,car,car,c15,0312_cop_s02_c15_car_10_n04285008_8323.png
subject-02,1,313,1.25573706626892,truck,truck,c100,0313_cop_s02_c100_truck_10_n03417042_3338.png
subject-02,1,314,1.22124409675598,knife,knife,c15,0314_cop_s02_c15_knife_10_n03041632_11773.png
subject-02,1,315,1.18720006942749,elephant,bear,c30,0315_cop_s02_c30_bear_10_n02133161_5365.png
subject-02,1,316,0.643051147460938,cat,cat,c100,0316_cop_s02_c100_cat_10_n02123394_2984.png
subject-02,1,317,0.936686992645264,bear,bear,c100,0317_cop_s02_c100_bear_10_n02132136_14778.png
subject-02,1,318,0.952583074569702,bear,bird,c10,0318_cop_s02_c10_bird_10_n02018207_9697.png
subject-02,1,319,1.05842709541321,airplane,airplane,c15,0319_cop_s02_c15_airplane_10_n02690373_9712.png
subject-02,1,320,0.946131944656372,chair,knife,c05,0320_cop_s02_c05_knife_10_n03041632_29886.png
subject-02,1,321,0.863506078720093,chair,chair,c15,0321_cop_s02_c15_chair_10_n03376595_1961.png
subject-02,1,322,0.673169851303101,keyboard,keyboard,c100,0322_cop_s02_c100_keyboard_10_n03085013_11332.png
subject-02,1,323,0.513175010681152,boat,clock,c01,0323_cop_s02_c01_clock_10_n02708093_7998.png
subject-02,1,324,0.871277809143066,bottle,knife,c10,0324_cop_s02_c10_knife_10_n03041632_14916.png
subject-02,1,325,0.830681085586548,airplane,airplane,c15,0325_cop_s02_c15_airplane_10_n02690373_10399.png
subject-02,1,326,0.732403993606567,clock,elephant,c01,0326_cop_s02_c01_elephant_10_n02504458_5483.png
subject-02,1,327,0.78612494468689,boat,boat,c50,0327_cop_s02_c50_boat_10_n03662601_28046.png
subject-02,1,328,1.00257587432861,dog,dog,c30,0328_cop_s02_c30_dog_10_n02101388_8775.png
subject-02,1,329,0.763895034790039,dog,dog,c50,0329_cop_s02_c50_dog_10_n02087046_4421.png
subject-02,1,330,0.705605030059814,car,knife,c03,0330_cop_s02_c03_knife_10_n03041632_25479.png
subject-02,1,331,0.913434982299805,truck,truck,c50,0331_cop_s02_c50_truck_10_n04467665_69176.png
subject-02,1,332,0.973441123962402,keyboard,keyboard,c100,0332_cop_s02_c100_keyboard_10_n03085013_19065.png
subject-02,1,333,0.852989912033081,elephant,elephant,c15,0333_cop_s02_c15_elephant_10_n02504013_5439.png
subject-02,1,334,0.684831857681274,oven,oven,c03,0334_cop_s02_c03_oven_10_n04111531_13795.png
subject-02,1,335,0.666685819625854,clock,bottle,c03,0335_cop_s02_c03_bottle_10_n04579145_2298.png
subject-02,1,336,0.742782831192017,boat,elephant,c05,0336_cop_s02_c05_elephant_10_n02504458_1496.png
subject-02,1,337,0.824462175369263,clock,chair,c10,0337_cop_s02_c10_chair_10_n04429376_4391.png
subject-02,1,338,1.3221640586853,chair,bicycle,c100,0338_cop_s02_c100_bicycle_10_n03792782_1363.png
subject-02,1,339,1.17808699607849,elephant,cat,c03,0339_cop_s02_c03_cat_10_n02124075_12797.png
subject-02,1,340,0.82216215133667,keyboard,keyboard,c10,0340_cop_s02_c10_keyboard_10_n03085013_18649.png
subject-02,1,341,1.20180201530457,truck,truck,c10,0341_cop_s02_c10_truck_10_n03796401_3158.png
subject-02,1,342,0.681856870651245,bird,bird,c100,0342_cop_s02_c100_bird_10_n01616318_5417.png
subject-02,1,343,0.929337978363037,clock,clock,c30,0343_cop_s02_c30_clock_10_n03196217_3877.png
subject-02,1,344,0.675148963928223,elephant,elephant,c50,0344_cop_s02_c50_elephant_10_n02504458_4580.png
subject-02,1,345,0.710731983184814,boat,boat,c50,0345_cop_s02_c50_boat_10_n04273569_26139.png
subject-02,1,346,1.09094882011414,bird,chair,c10,0346_cop_s02_c10_chair_10_n04099969_10458.png
subject-02,1,347,0.576661825180054,oven,boat,c03,0347_cop_s02_c03_boat_10_n03344393_2676.png
subject-02,1,348,0.526648044586182,boat,bottle,c03,0348_cop_s02_c03_bottle_10_n03937543_5257.png
subject-02,1,349,0.960093021392822,cat,bird,c15,0349_cop_s02_c15_bird_10_n01819313_4045.png
subject-02,1,350,0.575978994369507,clock,clock,c50,0350_cop_s02_c50_clock_10_n02708093_596.png
subject-02,1,351,0.75400710105896,chair,chair,c50,0351_cop_s02_c50_chair_10_n02791124_2173.png
subject-02,1,352,1.02356696128845,dog,dog,c50,0352_cop_s02_c50_dog_10_n02092339_6946.png
subject-02,1,353,0.957474946975708,dog,oven,c15,0353_cop_s02_c15_oven_10_n04111531_22403.png
subject-02,1,354,0.781121969223022,oven,dog,c03,0354_cop_s02_c03_dog_10_n02088632_747.png
subject-02,1,355,0.98897910118103,chair,truck,c30,0355_cop_s02_c30_truck_10_n04467665_71074.png
subject-02,1,356,0.743151903152466,chair,chair,c50,0356_cop_s02_c50_chair_10_n03376595_4669.png
subject-02,1,357,0.864557981491089,chair,cat,c05,0357_cop_s02_c05_cat_10_n02123159_5487.png
subject-02,1,358,0.650411128997803,airplane,airplane,c15,0358_cop_s02_c15_airplane_10_n02690373_379.png
subject-02,1,359,0.678679943084717,boat,bear,c03,0359_cop_s02_c03_bear_10_n02134084_6840.png
subject-02,1,360,0.77045202255249,bottle,bottle,c50,0360_cop_s02_c50_bottle_10_n03983396_11506.png
subject-02,1,361,0.860180139541626,dog,dog,c100,0361_cop_s02_c100_dog_10_n02100583_26422.png
subject-02,1,362,0.739804983139038,dog,dog,c100,0362_cop_s02_c100_dog_10_n02102177_988.png
subject-02,1,363,1.03958606719971,dog,chair,c05,0363_cop_s02_c05_chair_10_n02791124_3531.png
subject-02,1,364,0.841222047805786,bottle,knife,c100,0364_cop_s02_c100_knife_10_n03041632_4044.png
subject-02,1,365,0.885165929794312,knife,dog,c03,0365_cop_s02_c03_dog_10_n02097474_9129.png
subject-02,1,366,0.738894939422607,dog,dog,c10,0366_cop_s02_c10_dog_10_n02110806_642.png
subject-02,1,367,1.41700196266174,bear,oven,c30,0367_cop_s02_c30_oven_10_n04111531_4331.png
subject-02,1,368,0.88058614730835,keyboard,keyboard,c30,0368_cop_s02_c30_keyboard_10_n03085013_24103.png
subject-02,1,369,0.768350124359131,keyboard,chair,c05,0369_cop_s02_c05_chair_10_n02791124_5939.png
subject-02,1,370,1.50014615058899,oven,chair,c50,0370_cop_s02_c50_chair_10_n03376595_13018.png
subject-02,1,371,0.748137950897217,elephant,elephant,c50,0371_cop_s02_c50_elephant_10_n02504013_4278.png
subject-02,1,372,0.859930992126465,clock,clock,c100,0372_cop_s02_c100_clock_10_n04548280_7539.png
subject-02,1,373,0.933739185333252,dog,dog,c05,0373_cop_s02_c05_dog_10_n02105641_416.png
subject-02,1,374,0.613533020019531,airplane,airplane,c100,0374_cop_s02_c100_airplane_10_n02690373_9322.png
subject-02,1,375,0.89172887802124,boat,chair,c30,0375_cop_s02_c30_chair_10_n04429376_6242.png
subject-02,1,376,0.762955904006958,knife,knife,c50,0376_cop_s02_c50_knife_10_n03041632_15174.png
subject-02,1,377,0.588842153549194,airplane,dog,c15,0377_cop_s02_c15_dog_10_n02091032_3390.png
subject-02,1,378,0.593119859695435,boat,truck,c01,0378_cop_s02_c01_truck_10_n03796401_2226.png
subject-02,1,379,0.862447023391724,elephant,elephant,c100,0379_cop_s02_c100_elephant_10_n02504013_2340.png
subject-02,1,380,0.664225816726685,car,car,c10,0380_cop_s02_c10_car_10_n04285008_1619.png
subject-02,1,381,0.664265155792236,car,elephant,c01,0381_cop_s02_c01_elephant_10_n02504013_3864.png
subject-02,1,382,0.529973983764648,boat,boat,c03,0382_cop_s02_c03_boat_10_n03662601_18803.png
subject-02,1,383,0.699826955795288,boat,boat,c15,0383_cop_s02_c15_boat_10_n04612504_18954.png
subject-02,1,384,0.84351110458374,airplane,airplane,c05,0384_cop_s02_c05_airplane_10_n02690373_4108.png
subject-02,1,385,0.989498138427734,dog,cat,c30,0385_cop_s02_c30_cat_10_n02123394_2285.png
subject-02,1,386,1.17354989051819,car,airplane,c03,0386_cop_s02_c03_airplane_10_n02690373_6621.png
subject-02,1,387,0.52308201789856,car,bottle,c01,0387_cop_s02_c01_bottle_10_n03937543_10092.png
subject-02,1,388,1.10476994514465,elephant,bear,c50,0388_cop_s02_c50_bear_10_n02133161_1247.png
subject-02,1,389,0.608698129653931,bear,bear,c15,0389_cop_s02_c15_bear_10_n02132136_6352.png
subject-02,1,390,0.614546060562134,bear,bear,c01,0390_cop_s02_c01_bear_10_n02134084_5031.png
subject-02,1,391,0.892168045043945,bottle,bottle,c15,0391_cop_s02_c15_bottle_10_n03937543_3726.png
subject-02,1,392,0.874096155166626,elephant,bear,c05,0392_cop_s02_c05_bear_10_n02132136_1726.png
subject-02,1,393,0.726275205612183,boat,clock,c01,0393_cop_s02_c01_clock_10_n02708093_2574.png
subject-02,1,394,0.931616067886353,chair,chair,c15,0394_cop_s02_c15_chair_10_n04429376_16378.png
subject-02,1,395,0.881765127182007,bear,boat,c15,0395_cop_s02_c15_boat_10_n02951358_4972.png
subject-02,1,396,1.00520706176758,clock,knife,c01,0396_cop_s02_c01_knife_10_n03041632_50332.png
subject-02,1,397,0.993448972702026,bird,bird,c05,0397_cop_s02_c05_bird_10_n02056570_13462.png
subject-02,1,398,0.856889009475708,car,airplane,c01,0398_cop_s02_c01_airplane_10_n02690373_13591.png
subject-02,1,399,1.00272607803345,truck,boat,c05,0399_cop_s02_c05_boat_10_n03344393_7735.png
subject-02,1,400,0.992749214172363,bicycle,bicycle,c50,0400_cop_s02_c50_bicycle_10_n02835271_1701.png
subject-02,1,401,0.674069881439209,boat,oven,c03,0401_cop_s02_c03_oven_10_n04111531_10446.png
subject-02,1,402,0.73601508140564,oven,bird,c01,0402_cop_s02_c01_bird_10_n02037110_12288.png
subject-02,1,403,1.02773189544678,elephant,elephant,c05,0403_cop_s02_c05_elephant_10_n02504013_8347.png
subject-02,1,404,0.705703020095825,chair,chair,c15,0404_cop_s02_c15_chair_10_n02791124_9757.png
subject-02,1,405,0.8052818775177,boat,keyboard,c03,0405_cop_s02_c03_keyboard_10_n04505470_4797.png
subject-02,1,406,0.701258182525635,airplane,airplane,c100,0406_cop_s02_c100_airplane_10_n02690373_6046.png
subject-02,1,407,0.925089120864868,chair,chair,c15,0407_cop_s02_c15_chair_10_n02791124_5268.png
subject-02,1,408,0.835226058959961,elephant,elephant,c10,0408_cop_s02_c10_elephant_10_n02504458_6470.png
subject-02,1,409,0.672754049301147,keyboard,oven,c05,0409_cop_s02_c05_oven_10_n04111531_8688.png
subject-02,1,410,0.520538091659546,cat,clock,c01,0410_cop_s02_c01_clock_10_n02708093_6957.png
subject-02,1,411,1.13434600830078,car,oven,c10,0411_cop_s02_c10_oven_10_n04111531_9026.png
subject-02,1,412,0.678154945373535,car,car,c03,0412_cop_s02_c03_car_10_n04285008_3193.png
subject-02,1,413,0.800040006637573,oven,truck,c05,0413_cop_s02_c05_truck_10_n03796401_21407.png
subject-02,1,414,0.57191801071167,cat,cat,c01,0414_cop_s02_c01_cat_10_n02123045_10689.png
subject-02,1,415,0.761744976043701,oven,dog,c03,0415_cop_s02_c03_dog_10_n02102480_7875.png
subject-02,1,416,0.939287900924683,car,truck,c100,0416_cop_s02_c100_truck_10_n03417042_23815.png
subject-02,1,417,0.773052930831909,bicycle,bicycle,c100,0417_cop_s02_c100_bicycle_10_n02835271_4887.png
subject-02,1,418,1.09113383293152,boat,bottle,c10,0418_cop_s02_c10_bottle_10_n04557648_2904.png
subject-02,1,419,0.712980031967163,clock,clock,c10,0419_cop_s02_c10_clock_10_n03196217_11471.png
subject-02,1,420,0.928634881973267,elephant,elephant,c10,0420_cop_s02_c10_elephant_10_n02504458_7817.png
subject-02,1,421,0.778398990631104,boat,boat,c10,0421_cop_s02_c10_boat_10_n03344393_5511.png
subject-02,1,422,0.870203971862793,bear,bird,c01,0422_cop_s02_c01_bird_10_n02013706_3748.png
subject-02,1,423,0.820144891738892,bottle,bottle,c05,0423_cop_s02_c05_bottle_10_n03983396_11137.png
subject-02,1,424,0.847786903381348,knife,knife,c15,0424_cop_s02_c15_knife_10_n03041632_51225.png
subject-02,1,425,0.737704038619995,cat,bicycle,c01,0425_cop_s02_c01_bicycle_10_n03792782_5437.png
subject-02,1,426,0.883479833602905,chair,oven,c10,0426_cop_s02_c10_oven_10_n04111531_13006.png
subject-02,1,427,1.2713508605957,car,truck,c03,0427_cop_s02_c03_truck_10_n04467665_30581.png
subject-02,1,428,1.12120699882507,chair,chair,c50,0428_cop_s02_c50_chair_10_n03376595_12602.png
subject-02,1,429,0.764831066131592,car,bear,c05,0429_cop_s02_c05_bear_10_n02134084_13014.png
subject-02,1,430,0.598734140396118,bird,bird,c10,0430_cop_s02_c10_bird_10_n01843065_4020.png
subject-02,1,431,1.50011992454529,truck,truck,c30,0431_cop_s02_c30_truck_10_n03796401_15097.png
subject-02,1,432,0.650269031524658,airplane,airplane,c05,0432_cop_s02_c05_airplane_10_n02690373_4945.png
subject-02,1,433,0.704147100448608,truck,truck,c30,0433_cop_s02_c30_truck_10_n03417042_265.png
subject-02,1,434,0.787920951843262,bear,dog,c05,0434_cop_s02_c05_dog_10_n02111129_2245.png
subject-02,1,435,0.665760040283203,keyboard,keyboard,c05,0435_cop_s02_c05_keyboard_10_n04505470_6080.png
subject-02,1,436,0.625937938690186,cat,bottle,c01,0436_cop_s02_c01_bottle_10_n04591713_1879.png
subject-02,1,437,1.10142207145691,clock,clock,c50,0437_cop_s02_c50_clock_10_n03196217_3475.png
subject-02,1,438,0.893745183944702,bird,bicycle,c05,0438_cop_s02_c05_bicycle_10_n03792782_19774.png
subject-02,1,439,0.985050916671753,bottle,bottle,c100,0439_cop_s02_c100_bottle_10_n04557648_14715.png
subject-02,1,440,0.944753885269165,chair,chair,c100,0440_cop_s02_c100_chair_10_n03376595_11049.png
subject-02,1,441,0.64472484588623,cat,chair,c05,0441_cop_s02_c05_chair_10_n02791124_1371.png
subject-02,1,442,0.640872001647949,bicycle,bicycle,c50,0442_cop_s02_c50_bicycle_10_n02835271_7958.png
subject-02,1,443,0.772655963897705,chair,chair,c30,0443_cop_s02_c30_chair_10_n02791124_3370.png
subject-02,1,444,1.04217910766602,bicycle,bicycle,c05,0444_cop_s02_c05_bicycle_10_n02835271_4935.png
subject-02,1,445,0.774202108383179,car,knife,c05,0445_cop_s02_c05_knife_10_n03041632_9302.png
subject-02,1,446,0.903563022613525,cat,cat,c50,0446_cop_s02_c50_cat_10_n02123159_7647.png
subject-02,1,447,0.697479963302612,cat,cat,c50,0447_cop_s02_c50_cat_10_n02123159_8273.png
subject-02,1,448,0.843302965164185,truck,truck,c50,0448_cop_s02_c50_truck_10_n03796401_10519.png
subject-02,1,449,0.95117712020874,keyboard,keyboard,c30,0449_cop_s02_c30_keyboard_10_n04505470_4803.png
subject-02,1,450,0.707056999206543,truck,truck,c05,0450_cop_s02_c05_truck_10_n04467665_11609.png
subject-02,1,451,0.844834089279175,truck,truck,c03,0451_cop_s02_c03_truck_10_n04467665_28988.png
subject-02,1,452,1.18670105934143,bottle,bottle,c50,0452_cop_s02_c50_bottle_10_n03937543_4425.png
subject-02,1,453,1.13629508018494,oven,car,c03,0453_cop_s02_c03_car_10_n04285008_7950.png
subject-02,1,454,0.866344928741455,boat,airplane,c15,0454_cop_s02_c15_airplane_10_n02690373_1933.png
subject-02,1,455,0.737951993942261,bicycle,bicycle,c10,0455_cop_s02_c10_bicycle_10_n02835271_13437.png
subject-02,1,456,0.978228092193604,keyboard,clock,c10,0456_cop_s02_c10_clock_10_n03196217_1814.png
subject-02,1,457,1.07758092880249,bicycle,bird,c10,0457_cop_s02_c10_bird_10_n02007558_45529.png
subject-02,1,458,0.651957988739014,car,car,c50,0458_cop_s02_c50_car_10_n04285008_2483.png
subject-02,1,459,0.745365142822266,boat,boat,c10,0459_cop_s02_c10_boat_10_n03662601_4844.png
subject-02,1,460,0.609068870544434,airplane,airplane,c10,0460_cop_s02_c10_airplane_10_n02690373_9642.png
subject-02,1,461,0.722884178161621,boat,boat,c100,0461_cop_s02_c100_boat_10_n04273569_24747.png
subject-02,1,462,0.885012149810791,bear,chair,c10,0462_cop_s02_c10_chair_10_n04429376_311.png
subject-02,1,463,1.39867091178894,dog,dog,c15,0463_cop_s02_c15_dog_10_n02085782_6792.png
subject-02,1,464,1.50011086463928,bird,dog,c100,0464_cop_s02_c100_dog_10_n02107312_7422.png
subject-02,1,465,0.916256904602051,truck,truck,c05,0465_cop_s02_c05_truck_10_n03417042_13806.png
subject-02,1,466,0.703970909118652,car,oven,c03,0466_cop_s02_c03_oven_10_n04111531_5967.png
subject-02,1,467,0.601964950561523,oven,dog,c01,0467_cop_s02_c01_dog_10_n02090622_1126.png
subject-02,1,468,0.557655096054077,cat,knife,c01,0468_cop_s02_c01_knife_10_n03041632_48675.png
subject-02,1,469,1.00946307182312,truck,car,c30,0469_cop_s02_c30_car_10_n03100240_17245.png
subject-02,1,470,1.06129598617554,boat,keyboard,c05,0470_cop_s02_c05_keyboard_10_n03085013_2335.png
subject-02,1,471,1.16901206970215,chair,chair,c15,0471_cop_s02_c15_chair_10_n02791124_11404.png
subject-02,1,472,0.737253904342651,bicycle,cat,c01,0472_cop_s02_c01_cat_10_n02123159_386.png
subject-02,1,473,1.07059597969055,oven,truck,c50,0473_cop_s02_c50_truck_10_n03417042_3952.png
subject-02,1,474,0.730420112609863,bird,bird,c30,0474_cop_s02_c30_bird_10_n01514859_8317.png
subject-02,1,475,0.846346855163574,truck,truck,c100,0475_cop_s02_c100_truck_10_n03796401_3608.png
subject-02,1,476,0.984244108200073,chair,chair,c03,0476_cop_s02_c03_chair_10_n04099969_27865.png
subject-02,1,477,0.901925802230835,dog,dog,c10,0477_cop_s02_c10_dog_10_n02096294_1043.png
subject-02,1,478,1.05821299552917,airplane,airplane,c30,0478_cop_s02_c30_airplane_10_n02690373_7401.png
subject-02,1,479,1.00749683380127,airplane,bear,c03,0479_cop_s02_c03_bear_10_n02133161_1059.png
subject-02,1,480,0.803243160247803,clock,clock,c50,0480_cop_s02_c50_clock_10_n02708093_616.png
subject-02,1,481,0.644080877304077,boat,dog,c01,0481_cop_s02_c01_dog_10_n02097658_6391.png
subject-02,1,482,0.806442022323608,clock,clock,c30,0482_cop_s02_c30_clock_10_n04548280_8646.png
subject-02,1,483,1.04775500297546,elephant,dog,c10,0483_cop_s02_c10_dog_10_n02108422_2739.png
subject-02,1,484,0.753875017166138,bear,bicycle,c10,0484_cop_s02_c10_bicycle_10_n02835271_9314.png
subject-02,1,485,0.579905033111572,cat,cat,c15,0485_cop_s02_c15_cat_10_n02123045_11224.png
subject-02,1,486,1.0612690448761,car,bicycle,c01,0486_cop_s02_c01_bicycle_10_n02835271_1505.png
subject-02,1,487,0.707422971725464,airplane,airplane,c10,0487_cop_s02_c10_airplane_10_n02690373_8804.png
subject-02,1,488,0.743179082870483,bicycle,bicycle,c100,0488_cop_s02_c100_bicycle_10_n02835271_2885.png
subject-02,1,489,0.443040132522583,boat,knife,c03,0489_cop_s02_c03_knife_10_n03041632_31932.png
subject-02,1,490,0.860703945159912,dog,dog,c30,0490_cop_s02_c30_dog_10_n02110958_15843.png
subject-02,1,491,0.858679056167603,cat,cat,c50,0491_cop_s02_c50_cat_10_n02124075_10976.png
subject-02,1,492,0.648536920547485,bird,bear,c03,0492_cop_s02_c03_bear_10_n02134084_3345.png
subject-02,1,493,0.748308897018433,clock,clock,c50,0493_cop_s02_c50_clock_10_n02708093_6835.png
subject-02,1,494,0.799685001373291,bird,bird,c15,0494_cop_s02_c15_bird_10_n01819313_1282.png
subject-02,1,495,0.961535215377808,keyboard,keyboard,c15,0495_cop_s02_c15_keyboard_10_n04505470_5057.png
subject-02,1,496,0.737401008605957,clock,oven,c01,0496_cop_s02_c01_oven_10_n04111531_4901.png
subject-02,1,497,0.539184093475342,airplane,airplane,c30,0497_cop_s02_c30_airplane_10_n02690373_5146.png
subject-02,1,498,0.617015838623047,airplane,airplane,c30,0498_cop_s02_c30_airplane_10_n02690373_5247.png
subject-02,1,499,0.864929914474487,keyboard,oven,c10,0499_cop_s02_c10_oven_10_n04111531_8309.png
subject-02,1,500,0.634596824645996,boat,cat,c01,0500_cop_s02_c01_cat_10_n02123597_8052.png
subject-02,1,501,0.62636923789978,car,car,c15,0501_cop_s02_c15_car_10_n04285008_12909.png
subject-02,1,502,1.14857292175293,clock,boat,c03,0502_cop_s02_c03_boat_10_n03662601_6462.png
subject-02,1,503,0.638014078140259,keyboard,keyboard,c05,0503_cop_s02_c05_keyboard_10_n04505470_5155.png
subject-02,1,504,0.744358062744141,oven,boat,c10,0504_cop_s02_c10_boat_10_n03344393_6638.png
subject-02,1,505,0.841781139373779,clock,airplane,c01,0505_cop_s02_c01_airplane_10_n02690373_5266.png
subject-02,1,506,0.627417087554932,bear,bear,c100,0506_cop_s02_c100_bear_10_n02134084_1207.png
subject-02,1,507,0.961260080337524,car,oven,c10,0507_cop_s02_c10_oven_10_n04111531_13862.png
subject-02,1,508,0.773426055908203,car,car,c50,0508_cop_s02_c50_car_10_n03100240_4971.png
subject-02,1,509,0.902975082397461,bird,bottle,c05,0509_cop_s02_c05_bottle_10_n04557648_3653.png
subject-02,1,510,0.892641067504883,bicycle,bicycle,c30,0510_cop_s02_c30_bicycle_10_n03792782_5426.png
subject-02,1,511,0.848618030548096,cat,chair,c01,0511_cop_s02_c01_chair_10_n02791124_5173.png
subject-02,1,512,1.02642798423767,oven,knife,c30,0512_cop_s02_c30_knife_10_n03041632_92637.png
subject-02,1,513,0.890453100204468,bicycle,chair,c15,0513_cop_s02_c15_chair_10_n02791124_5706.png
subject-02,1,514,1.15209293365479,bird,bird,c100,0514_cop_s02_c100_bird_10_n01818515_2594.png
subject-02,1,515,0.907690048217773,dog,dog,c30,0515_cop_s02_c30_dog_10_n02094258_1334.png
subject-02,1,516,0.799692153930664,chair,chair,c30,0516_cop_s02_c30_chair_10_n04099969_34525.png
subject-02,1,517,1.29954385757446,elephant,boat,c10,0517_cop_s02_c10_boat_10_n04612504_2472.png
subject-02,1,518,0.8193678855896,bear,airplane,c01,0518_cop_s02_c01_airplane_10_n02690373_1797.png
subject-02,1,519,0.597110033035278,clock,bicycle,c03,0519_cop_s02_c03_bicycle_10_n03792782_8357.png
subject-02,1,520,1.45482993125916,dog,dog,c10,0520_cop_s02_c10_dog_10_n02109961_14816.png
subject-02,1,521,0.872771024703979,elephant,bear,c15,0521_cop_s02_c15_bear_10_n02132136_2791.png
subject-02,1,522,0.522662162780762,bear,bird,c03,0522_cop_s02_c03_bird_10_n01798484_8189.png
subject-02,1,523,0.482713937759399,bear,bottle,c01,0523_cop_s02_c01_bottle_10_n03937543_986.png
subject-02,1,524,0.612112998962402,keyboard,keyboard,c50,0524_cop_s02_c50_keyboard_10_n03085013_19161.png
subject-02,1,525,0.951977014541626,boat,boat,c50,0525_cop_s02_c50_boat_10_n03662601_12226.png
subject-02,1,526,0.679873943328857,airplane,airplane,c30,0526_cop_s02_c30_airplane_10_n02690373_8789.png
subject-02,1,527,0.667580127716064,chair,chair,c50,0527_cop_s02_c50_chair_10_n04099969_25664.png
subject-02,1,528,0.721529960632324,car,airplane,c01,0528_cop_s02_c01_airplane_10_n02690373_13613.png
subject-02,1,529,0.663133859634399,car,knife,c05,0529_cop_s02_c05_knife_10_n03041632_27022.png
subject-02,1,530,0.801042079925537,chair,chair,c10,0530_cop_s02_c10_chair_10_n04429376_5337.png
subject-02,1,531,0.782757997512817,bottle,knife,c01,0531_cop_s02_c01_knife_10_n03041632_81630.png
subject-02,1,532,0.700573921203613,chair,bird,c03,0532_cop_s02_c03_bird_10_n02006656_2496.png
subject-02,1,533,0.926478862762451,keyboard,keyboard,c30,0533_cop_s02_c30_keyboard_10_n03085013_21399.png
subject-02,1,534,0.742094993591309,oven,truck,c01,0534_cop_s02_c01_truck_10_n03417042_17645.png
subject-02,1,535,1.08419895172119,boat,keyboard,c05,0535_cop_s02_c05_keyboard_10_n03085013_30899.png
subject-02,1,536,0.595946073532104,boat,boat,c30,0536_cop_s02_c30_boat_10_n04273569_1709.png
subject-02,1,537,0.593614101409912,bird,bird,c50,0537_cop_s02_c50_bird_10_n02027492_6499.png
subject-02,1,538,0.613499164581299,keyboard,oven,c100,0538_cop_s02_c100_oven_10_n04111531_887.png
subject-02,1,539,0.595233201980591,keyboard,bottle,c03,0539_cop_s02_c03_bottle_10_n04560804_13157.png
subject-02,1,540,0.843184947967529,bicycle,bicycle,c15,0540_cop_s02_c15_bicycle_10_n03792782_13002.png
subject-02,1,541,0.747035980224609,bear,elephant,c50,0541_cop_s02_c50_elephant_10_n02504013_6552.png
subject-02,1,542,1.0028190612793,elephant,knife,c03,0542_cop_s02_c03_knife_10_n03041632_48151.png
subject-02,1,543,0.624531984329224,clock,elephant,c01,0543_cop_s02_c01_elephant_10_n02504458_4137.png
subject-02,1,544,0.62078595161438,boat,cat,c05,0544_cop_s02_c05_cat_10_n02123394_8524.png
subject-02,1,545,0.842196941375732,truck,truck,c15,0545_cop_s02_c15_truck_10_n03796401_20373.png
subject-02,1,546,0.75400185585022,clock,clock,c30,0546_cop_s02_c30_clock_10_n02708093_4976.png
subject-02,1,547,0.577741146087646,boat,knife,c03,0547_cop_s02_c03_knife_10_n03041632_29684.png
subject-02,1,548,1.46766185760498,elephant,elephant,c10,0548_cop_s02_c10_elephant_10_n02504013_2128.png
subject-02,1,549,0.791796922683716,bear,cat,c03,0549_cop_s02_c03_cat_10_n02123394_2632.png
subject-02,1,550,0.821278095245361,bottle,bottle,c30,0550_cop_s02_c30_bottle_10_n04591713_457.png
subject-02,1,551,0.800971984863281,keyboard,car,c03,0551_cop_s02_c03_car_10_n04285008_296.png
subject-02,1,552,0.626996040344238,chair,bottle,c15,0552_cop_s02_c15_bottle_10_n04557648_1634.png
subject-02,1,553,0.766663074493408,knife,knife,c50,0553_cop_s02_c50_knife_10_n03041632_27575.png
subject-02,1,554,0.826595067977905,boat,boat,c100,0554_cop_s02_c100_boat_10_n03344393_1131.png
subject-02,1,555,0.534360885620117,oven,chair,c01,0555_cop_s02_c01_chair_10_n02791124_3204.png
subject-02,1,556,0.578511953353882,keyboard,keyboard,c10,0556_cop_s02_c10_keyboard_10_n04505470_4061.png
subject-02,1,557,1.50000095367432,elephant,bear,c10,0557_cop_s02_c10_bear_10_n02134418_128.png
subject-02,1,558,0.880179166793823,boat,boat,c03,0558_cop_s02_c03_boat_10_n04612504_15061.png
subject-02,1,559,0.627660989761353,boat,elephant,c01,0559_cop_s02_c01_elephant_10_n02504458_5331.png
subject-02,1,560,0.787322998046875,bear,truck,c30,0560_cop_s02_c30_truck_10_n03417042_3659.png
subject-02,1,561,0.885963916778564,bicycle,elephant,c05,0561_cop_s02_c05_elephant_10_n02504458_6029.png
subject-02,1,562,0.539474010467529,bear,boat,c01,0562_cop_s02_c01_boat_10_n04273569_1288.png
subject-02,1,563,0.647161960601807,keyboard,bottle,c10,0563_cop_s02_c10_bottle_10_n03937543_2336.png
subject-02,1,564,0.690974950790405,truck,truck,c15,0564_cop_s02_c15_truck_10_n04467665_39477.png
subject-02,1,565,1.13299989700317,clock,knife,c30,0565_cop_s02_c30_knife_10_n03041632_7380.png
subject-02,1,566,0.544631004333496,boat,boat,c03,0566_cop_s02_c03_boat_10_n02951358_29817.png
subject-02,1,567,1.04240393638611,elephant,oven,c100,0567_cop_s02_c100_oven_10_n04111531_5991.png
subject-02,1,568,0.820485830307007,bird,boat,c05,0568_cop_s02_c05_boat_10_n02951358_15858.png
subject-02,1,569,0.794049978256226,car,keyboard,c01,0569_cop_s02_c01_keyboard_10_n04505470_26.png
subject-02,1,570,0.730149984359741,truck,truck,c50,0570_cop_s02_c50_truck_10_n04467665_7110.png
subject-02,1,571,0.937930107116699,oven,cat,c30,0571_cop_s02_c30_cat_10_n02123045_11032.png
subject-02,1,572,0.755496025085449,oven,oven,c30,0572_cop_s02_c30_oven_10_n04111531_14269.png
subject-02,1,573,0.831199884414673,car,car,c05,0573_cop_s02_c05_car_10_n03100240_159.png
subject-02,1,574,1.27521109580994,keyboard,keyboard,c50,0574_cop_s02_c50_keyboard_10_n03085013_661.png
subject-02,1,575,0.790955066680908,boat,bird,c01,0575_cop_s02_c01_bird_10_n01601694_11888.png
subject-02,1,576,0.864694833755493,keyboard,clock,c03,0576_cop_s02_c03_clock_10_n03196217_813.png
subject-02,1,577,0.736496210098267,bicycle,truck,c01,0577_cop_s02_c01_truck_10_n03796401_15046.png
subject-02,1,578,0.64230489730835,boat,boat,c30,0578_cop_s02_c30_boat_10_n03662601_3741.png
subject-02,1,579,0.92048192024231,knife,knife,c100,0579_cop_s02_c100_knife_10_n03041632_50034.png
subject-02,1,580,0.71432089805603,car,car,c15,0580_cop_s02_c15_car_10_n03100240_11107.png
subject-02,1,581,0.82816219329834,clock,clock,c15,0581_cop_s02_c15_clock_10_n04548280_17907.png
subject-02,1,582,0.819706916809082,car,bicycle,c05,0582_cop_s02_c05_bicycle_10_n02835271_10104.png
subject-02,1,583,0.645381927490234,keyboard,keyboard,c15,0583_cop_s02_c15_keyboard_10_n03085013_3665.png
subject-02,1,584,0.687135934829712,cat,car,c01,0584_cop_s02_c01_car_10_n04285008_4868.png
subject-02,1,585,0.895323038101196,car,car,c100,0585_cop_s02_c100_car_10_n02814533_26369.png
subject-02,1,586,0.90288782119751,truck,oven,c10,0586_cop_s02_c10_oven_10_n04111531_6128.png
subject-02,1,587,0.640800952911377,oven,oven,c03,0587_cop_s02_c03_oven_10_n04111531_14951.png
subject-02,1,588,0.612755060195923,cat,dog,c01,0588_cop_s02_c01_dog_10_n02106550_660.png
subject-02,1,589,0.780225992202759,bottle,bottle,c100,0589_cop_s02_c100_bottle_10_n02823428_10933.png
subject-02,1,590,0.64610481262207,bicycle,oven,c01,0590_cop_s02_c01_oven_10_n04111531_5102.png
subject-02,1,591,1.2022910118103,airplane,truck,c30,0591_cop_s02_c30_truck_10_n04467665_56527.png
subject-02,1,592,1.19775700569153,chair,clock,c10,0592_cop_s02_c10_clock_10_n04548280_8390.png
subject-02,1,593,0.749842882156372,clock,bicycle,c10,0593_cop_s02_c10_bicycle_10_n03792782_7182.png
subject-02,1,594,0.871250867843628,clock,keyboard,c01,0594_cop_s02_c01_keyboard_10_n04505470_4440.png
subject-02,1,595,0.679121017456055,cat,cat,c50,0595_cop_s02_c50_cat_10_n02123394_8592.png
subject-02,1,596,1.08290696144104,car,oven,c03,0596_cop_s02_c03_oven_10_n04111531_5659.png
subject-02,1,597,0.868788003921509,cat,cat,c50,0597_cop_s02_c50_cat_10_n02124075_20891.png
subject-02,1,598,0.676528930664062,boat,cat,c05,0598_cop_s02_c05_cat_10_n02123045_390.png
subject-02,1,599,0.62663197517395,bicycle,bicycle,c15,0599_cop_s02_c15_bicycle_10_n03792782_14642.png
subject-02,1,600,1.06217193603516,clock,clock,c30,0600_cop_s02_c30_clock_10_n03196217_2307.png
subject-02,1,601,0.945976972579956,keyboard,keyboard,c03,0601_cop_s02_c03_keyboard_10_n04505470_5022.png
subject-02,1,602,0.769742965698242,car,car,c15,0602_cop_s02_c15_car_10_n04285008_628.png
subject-02,1,603,0.791582107543945,keyboard,keyboard,c10,0603_cop_s02_c10_keyboard_10_n03085013_8325.png
subject-02,1,604,0.887593984603882,bird,bird,c10,0604_cop_s02_c10_bird_10_n02007558_16029.png
subject-02,1,605,1.03341889381409,truck,truck,c15,0605_cop_s02_c15_truck_10_n04467665_1015.png
subject-02,1,606,0.875285148620605,airplane,boat,c10,0606_cop_s02_c10_boat_10_n03344393_14897.png
subject-02,1,607,0.795066118240356,bird,bird,c10,0607_cop_s02_c10_bird_10_n01532829_560.png
subject-02,1,608,0.784829139709473,keyboard,bicycle,c03,0608_cop_s02_c03_bicycle_10_n02835271_3841.png
subject-02,1,609,0.784604072570801,bear,bear,c50,0609_cop_s02_c50_bear_10_n02134084_7250.png
subject-02,1,610,1.20237302780151,truck,car,c03,0610_cop_s02_c03_car_10_n02814533_33602.png
subject-02,1,611,1.08216714859009,car,elephant,c03,0611_cop_s02_c03_elephant_10_n02504013_1879.png
subject-02,1,612,0.672358989715576,bottle,bottle,c50,0612_cop_s02_c50_bottle_10_n04557648_10265.png
subject-02,1,613,1.13225412368774,car,car,c50,0613_cop_s02_c50_car_10_n03100240_977.png
subject-02,1,614,1.07368993759155,car,car,c100,0614_cop_s02_c100_car_10_n04285008_12446.png
subject-02,1,615,0.953608989715576,boat,car,c01,0615_cop_s02_c01_car_10_n04285008_7325.png
subject-02,1,616,0.793390989303589,truck,truck,c100,0616_cop_s02_c100_truck_10_n04467665_27096.png
subject-02,1,617,0.959160804748535,car,car,c50,0617_cop_s02_c50_car_10_n04285008_3010.png
subject-02,1,618,0.675139188766479,airplane,airplane,c50,0618_cop_s02_c50_airplane_10_n02690373_5382.png
subject-02,1,619,0.906774997711182,airplane,airplane,c10,0619_cop_s02_c10_airplane_10_n02690373_6716.png
subject-02,1,620,0.970570087432861,clock,bicycle,c05,0620_cop_s02_c05_bicycle_10_n03792782_5284.png
subject-02,1,621,0.936520099639893,boat,dog,c15,0621_cop_s02_c15_dog_10_n02111129_6267.png
subject-02,1,622,0.78032112121582,chair,chair,c15,0622_cop_s02_c15_chair_10_n04099969_13811.png
subject-02,1,623,0.706106185913086,chair,oven,c05,0623_cop_s02_c05_oven_10_n04111531_2923.png
subject-02,1,624,0.610114097595215,keyboard,keyboard,c30,0624_cop_s02_c30_keyboard_10_n03085013_21050.png
subject-02,1,625,0.833536863327026,car,oven,c100,0625_cop_s02_c100_oven_10_n04111531_6567.png
subject-02,1,626,1.20540189743042,elephant,truck,c05,0626_cop_s02_c05_truck_10_n03417042_708.png
subject-02,1,627,0.881261825561523,bear,bear,c03,0627_cop_s02_c03_bear_10_n02134418_12457.png
subject-02,1,628,1.24509000778198,dog,dog,c15,0628_cop_s02_c15_dog_10_n02097658_5000.png
subject-02,1,629,0.686914920806885,car,knife,c03,0629_cop_s02_c03_knife_10_n03041632_99799.png
subject-02,1,630,0.738469123840332,car,chair,c03,0630_cop_s02_c03_chair_10_n02791124_5868.png
subject-02,1,631,0.854490995407104,boat,boat,c100,0631_cop_s02_c100_boat_10_n02951358_1541.png
subject-02,1,632,0.812376976013184,truck,cat,c05,0632_cop_s02_c05_cat_10_n02123159_6590.png
subject-02,1,633,0.76033091545105,bicycle,bicycle,c30,0633_cop_s02_c30_bicycle_10_n03792782_8847.png
subject-02,1,634,0.686254978179932,bicycle,bicycle,c50,0634_cop_s02_c50_bicycle_10_n03792782_66048.png
subject-02,1,635,0.793785095214844,boat,boat,c15,0635_cop_s02_c15_boat_10_n03662601_1667.png
subject-02,1,636,0.609436988830566,car,bear,c03,0636_cop_s02_c03_bear_10_n02134418_1102.png
subject-02,1,637,1.11533093452454,chair,chair,c10,0637_cop_s02_c10_chair_10_n04099969_8993.png
subject-02,1,638,0.621474027633667,keyboard,keyboard,c03,0638_cop_s02_c03_keyboard_10_n04505470_4887.png
subject-02,1,639,0.69906210899353,bicycle,bicycle,c100,0639_cop_s02_c100_bicycle_10_n02835271_22549.png
subject-02,1,640,1.09489107131958,cat,cat,c15,0640_cop_s02_c15_cat_10_n02124075_2392.png
subject-02,1,641,1.11199712753296,airplane,boat,c10,0641_cop_s02_c10_boat_10_n03344393_8869.png
subject-02,1,642,1.40170502662659,dog,elephant,c15,0642_cop_s02_c15_elephant_10_n02504458_4010.png
subject-02,1,643,0.72551703453064,bird,bird,c30,0643_cop_s02_c30_bird_10_n01592084_1228.png
subject-02,1,644,0.839249134063721,truck,truck,c15,0644_cop_s02_c15_truck_10_n03417042_8654.png
subject-02,1,645,0.639153003692627,bear,truck,c01,0645_cop_s02_c01_truck_10_n03796401_21335.png
subject-02,1,646,0.636899948120117,bicycle,bottle,c03,0646_cop_s02_c03_bottle_10_n03983396_7378.png
subject-02,1,647,1.08670496940613,clock,oven,c15,0647_cop_s02_c15_oven_10_n04111531_4549.png
subject-02,1,648,1.02839303016663,boat,boat,c100,0648_cop_s02_c100_boat_10_n02951358_3087.png
subject-02,1,649,0.596334934234619,clock,clock,c100,0649_cop_s02_c100_clock_10_n02708093_579.png
subject-02,1,650,0.840230941772461,knife,keyboard,c100,0650_cop_s02_c100_keyboard_10_n03085013_2808.png
subject-02,1,651,0.745954036712646,oven,oven,c100,0651_cop_s02_c100_oven_10_n04111531_9411.png
subject-02,1,652,0.749890089035034,keyboard,keyboard,c15,0652_cop_s02_c15_keyboard_10_n04505470_725.png
subject-02,1,653,0.769767999649048,car,oven,c03,0653_cop_s02_c03_oven_10_n04111531_584.png
subject-02,1,654,0.751508951187134,knife,knife,c15,0654_cop_s02_c15_knife_10_n03041632_45090.png
subject-02,1,655,0.741455078125,keyboard,keyboard,c30,0655_cop_s02_c30_keyboard_10_n04505470_4893.png
subject-02,1,656,0.937143087387085,car,car,c03,0656_cop_s02_c03_car_10_n02814533_87871.png
subject-02,1,657,1.40522408485413,bicycle,elephant,c15,0657_cop_s02_c15_elephant_10_n02504013_1792.png
subject-02,1,658,0.812798976898193,dog,dog,c10,0658_cop_s02_c10_dog_10_n02092339_2268.png
subject-02,1,659,1.02038192749023,bear,bear,c30,0659_cop_s02_c30_bear_10_n02133161_4091.png
subject-02,1,660,0.694689989089966,boat,boat,c30,0660_cop_s02_c30_boat_10_n04273569_10099.png
subject-02,1,661,0.818336963653564,car,chair,c01,0661_cop_s02_c01_chair_10_n04099969_6913.png
subject-02,1,662,0.695956945419312,keyboard,keyboard,c100,0662_cop_s02_c100_keyboard_10_n04505470_361.png
subject-02,1,663,0.755912065505981,bottle,bottle,c05,0663_cop_s02_c05_bottle_10_n04591713_6975.png
subject-02,1,664,1.04949402809143,boat,bear,c30,0664_cop_s02_c30_bear_10_n02132136_915.png
subject-02,1,665,0.607535123825073,airplane,airplane,c10,0665_cop_s02_c10_airplane_10_n02690373_4115.png
subject-02,1,666,0.955275774002075,chair,chair,c100,0666_cop_s02_c100_chair_10_n04429376_5965.png
subject-02,1,667,1.0229959487915,boat,boat,c50,0667_cop_s02_c50_boat_10_n03344393_629.png
subject-02,1,668,0.679275035858154,truck,truck,c15,0668_cop_s02_c15_truck_10_n03796401_14189.png
subject-02,1,669,1.45059299468994,car,car,c03,0669_cop_s02_c03_car_10_n02814533_2236.png
subject-02,1,670,0.782416105270386,car,bicycle,c03,0670_cop_s02_c03_bicycle_10_n02835271_7355.png
subject-02,1,671,0.538271903991699,boat,airplane,c03,0671_cop_s02_c03_airplane_10_n02690373_10006.png
subject-02,1,672,0.926132917404175,bear,bear,c03,0672_cop_s02_c03_bear_10_n02133161_10024.png
subject-02,1,673,0.741925954818726,airplane,bicycle,c100,0673_cop_s02_c100_bicycle_10_n03792782_15557.png
subject-02,1,674,0.606211185455322,bicycle,bicycle,c15,0674_cop_s02_c15_bicycle_10_n03792782_43279.png
subject-02,1,675,0.495568990707397,boat,boat,c100,0675_cop_s02_c100_boat_10_n02951358_14624.png
subject-02,1,676,0.60351300239563,boat,car,c01,0676_cop_s02_c01_car_10_n02814533_89472.png
subject-02,1,677,0.897156953811646,bear,bicycle,c05,0677_cop_s02_c05_bicycle_10_n03792782_18294.png
subject-02,1,678,0.691039800643921,airplane,bottle,c10,0678_cop_s02_c10_bottle_10_n04579145_784.png
subject-02,1,679,0.817157983779907,chair,chair,c15,0679_cop_s02_c15_chair_10_n02791124_15853.png
subject-02,1,680,0.61057710647583,bicycle,bicycle,c15,0680_cop_s02_c15_bicycle_10_n03792782_7165.png
subject-02,1,681,0.798444986343384,oven,knife,c50,0681_cop_s02_c50_knife_10_n03041632_24326.png
subject-02,1,682,0.662153005599976,car,car,c100,0682_cop_s02_c100_car_10_n02814533_37548.png
subject-02,1,683,0.966117143630981,bottle,bottle,c10,0683_cop_s02_c10_bottle_10_n04557648_818.png
subject-02,1,684,0.867859840393066,keyboard,car,c10,0684_cop_s02_c10_car_10_n03100240_24420.png
subject-02,1,685,0.905713081359863,bird,bird,c10,0685_cop_s02_c10_bird_10_n01622779_684.png
subject-02,1,686,1.08151793479919,cat,clock,c05,0686_cop_s02_c05_clock_10_n03196217_3605.png
subject-02,1,687,0.805660963058472,cat,cat,c10,0687_cop_s02_c10_cat_10_n02123159_6932.png
subject-02,1,688,1.32346606254578,bird,oven,c05,0688_cop_s02_c05_oven_10_n04111531_13822.png
subject-02,1,689,0.866898059844971,bird,boat,c03,0689_cop_s02_c03_boat_10_n02951358_34234.png
subject-02,1,690,0.798692941665649,airplane,airplane,c100,0690_cop_s02_c100_airplane_10_n02690373_2268.png
subject-02,1,691,0.732618093490601,bird,bird,c15,0691_cop_s02_c15_bird_10_n01592084_4764.png
subject-02,1,692,0.728880167007446,car,car,c100,0692_cop_s02_c100_car_10_n03100240_1794.png
subject-02,1,693,NaN,na,bear,c100,0693_cop_s02_c100_bear_10_n02133161_223.png
subject-02,1,694,0.742156982421875,cat,clock,c01,0694_cop_s02_c01_clock_10_n02708093_7929.png
subject-02,1,695,0.761940002441406,bird,elephant,c03,0695_cop_s02_c03_elephant_10_n02504013_11033.png
subject-02,1,696,0.838144063949585,oven,oven,c100,0696_cop_s02_c100_oven_10_n04111531_9113.png
subject-02,1,697,1.08551406860352,bottle,clock,c10,0697_cop_s02_c10_clock_10_n03196217_1271.png
subject-02,1,698,0.769291877746582,chair,chair,c03,0698_cop_s02_c03_chair_10_n04099969_3536.png
subject-02,1,699,1.10300087928772,dog,dog,c30,0699_cop_s02_c30_dog_10_n02108422_293.png
subject-02,1,700,0.762895107269287,truck,truck,c100,0700_cop_s02_c100_truck_10_n04467665_52409.png
subject-02,1,701,0.642726182937622,clock,clock,c15,0701_cop_s02_c15_clock_10_n03196217_2447.png
subject-02,1,702,0.900393009185791,dog,dog,c50,0702_cop_s02_c50_dog_10_n02093991_6192.png
subject-02,1,703,0.894268035888672,bear,bear,c05,0703_cop_s02_c05_bear_10_n02132136_22835.png
subject-02,1,704,0.832267045974731,knife,knife,c30,0704_cop_s02_c30_knife_10_n03041632_11495.png
subject-02,1,705,0.814052104949951,bicycle,bicycle,c30,0705_cop_s02_c30_bicycle_10_n03792782_19253.png
subject-02,1,706,0.651703119277954,car,cat,c01,0706_cop_s02_c01_cat_10_n02125311_28331.png
subject-02,1,707,1.01753115653992,bird,bottle,c10,0707_cop_s02_c10_bottle_10_n03983396_4227.png
subject-02,1,708,0.803277015686035,bird,bird,c30,0708_cop_s02_c30_bird_10_n01824575_9736.png
subject-02,1,709,1.15914011001587,cat,elephant,c15,0709_cop_s02_c15_elephant_10_n02504013_1028.png
subject-02,1,710,0.648979902267456,bear,bicycle,c01,0710_cop_s02_c01_bicycle_10_n02835271_10283.png
subject-02,1,711,0.684719085693359,bottle,bear,c03,0711_cop_s02_c03_bear_10_n02132136_10309.png
subject-02,1,712,0.846729040145874,cat,clock,c03,0712_cop_s02_c03_clock_10_n02708093_7257.png
subject-02,1,713,1.0325448513031,airplane,boat,c100,0713_cop_s02_c100_boat_10_n04273569_12214.png
subject-02,1,714,0.724169015884399,car,car,c30,0714_cop_s02_c30_car_10_n03100240_11693.png
subject-02,1,715,0.72813892364502,chair,chair,c50,0715_cop_s02_c50_chair_10_n02791124_7630.png
subject-02,1,716,1.50005006790161,car,airplane,c100,0716_cop_s02_c100_airplane_10_n02690373_13078.png
subject-02,1,717,1.07177376747131,airplane,knife,c05,0717_cop_s02_c05_knife_10_n03041632_37618.png
subject-02,1,718,0.737611055374146,dog,dog,c30,0718_cop_s02_c30_dog_10_n02107312_860.png
subject-02,1,719,1.17544889450073,boat,boat,c15,0719_cop_s02_c15_boat_10_n03344393_6467.png
subject-02,1,720,0.531219005584717,cat,cat,c10,0720_cop_s02_c10_cat_10_n02123597_4357.png
subject-02,1,721,0.780951976776123,boat,truck,c03,0721_cop_s02_c03_truck_10_n03796401_23550.png
subject-02,1,722,0.946766138076782,bird,oven,c03,0722_cop_s02_c03_oven_10_n04111531_14611.png
subject-02,1,723,1.38258194923401,bottle,bottle,c100,0723_cop_s02_c100_bottle_10_n03937543_2123.png
subject-02,1,724,0.746186017990112,cat,oven,c01,0724_cop_s02_c01_oven_10_n04111531_12702.png
subject-02,1,725,0.850216865539551,airplane,airplane,c10,0725_cop_s02_c10_airplane_10_n02690373_2724.png
subject-02,1,726,0.721851825714111,car,car,c30,0726_cop_s02_c30_car_10_n02814533_5147.png
subject-02,1,727,0.583745956420898,clock,clock,c50,0727_cop_s02_c50_clock_10_n02708093_3759.png
subject-02,1,728,0.659698963165283,bird,bird,c15,0728_cop_s02_c15_bird_10_n02027492_4900.png
subject-02,1,729,0.671396017074585,boat,dog,c01,0729_cop_s02_c01_dog_10_n02110627_20194.png
subject-02,1,730,0.805136919021606,airplane,knife,c30,0730_cop_s02_c30_knife_10_n03041632_35764.png
subject-02,1,731,1.19885897636414,oven,bicycle,c05,0731_cop_s02_c05_bicycle_10_n02835271_6481.png
subject-02,1,732,1.29703307151794,clock,truck,c10,0732_cop_s02_c10_truck_10_n03796401_2060.png
subject-02,1,733,0.606533050537109,bicycle,bicycle,c15,0733_cop_s02_c15_bicycle_10_n03792782_20193.png
subject-02,1,734,0.548526048660278,boat,bottle,c01,0734_cop_s02_c01_bottle_10_n04560804_24166.png
subject-02,1,735,0.954206943511963,oven,oven,c10,0735_cop_s02_c10_oven_10_n04111531_20429.png
subject-02,1,736,0.783992052078247,bicycle,elephant,c15,0736_cop_s02_c15_elephant_10_n02504013_3459.png
subject-02,1,737,1.38197493553162,cat,cat,c100,0737_cop_s02_c100_cat_10_n02123597_16831.png
subject-02,1,738,1.08965110778809,bottle,knife,c15,0738_cop_s02_c15_knife_10_n03041632_11700.png
subject-02,1,739,0.837544918060303,clock,clock,c100,0739_cop_s02_c100_clock_10_n03196217_9197.png
subject-02,1,740,0.803301095962524,cat,knife,c100,0740_cop_s02_c100_knife_10_n03041632_86338.png
subject-02,1,741,0.682985067367554,cat,chair,c01,0741_cop_s02_c01_chair_10_n03376595_9603.png
subject-02,1,742,1.13693499565125,boat,boat,c15,0742_cop_s02_c15_boat_10_n03662601_6289.png
subject-02,1,743,0.732768058776855,boat,truck,c03,0743_cop_s02_c03_truck_10_n04467665_9266.png
subject-02,1,744,0.502526044845581,cat,cat,c15,0744_cop_s02_c15_cat_10_n02123159_1549.png
subject-02,1,745,1.14835405349731,bird,bird,c100,0745_cop_s02_c100_bird_10_n01819313_7109.png
subject-02,1,746,0.584233999252319,boat,boat,c15,0746_cop_s02_c15_boat_10_n04273569_28333.png
subject-02,1,747,0.490068912506104,boat,airplane,c03,0747_cop_s02_c03_airplane_10_n02690373_12929.png
subject-02,1,748,0.823794841766357,bear,bicycle,c10,0748_cop_s02_c10_bicycle_10_n03792782_77949.png
subject-02,1,749,0.80968189239502,elephant,keyboard,c01,0749_cop_s02_c01_keyboard_10_n03085013_23005.png
subject-02,1,750,1.47135996818542,car,oven,c50,0750_cop_s02_c50_oven_10_n04111531_23046.png
subject-02,1,751,1.44335293769836,bear,elephant,c05,0751_cop_s02_c05_elephant_10_n02504013_7005.png
subject-02,1,752,1.00901198387146,bear,airplane,c10,0752_cop_s02_c10_airplane_10_n02690373_6549.png
subject-02,1,753,0.661128997802734,keyboard,chair,c100,0753_cop_s02_c100_chair_10_n03376595_7824.png
subject-02,1,754,0.658654928207397,keyboard,bear,c05,0754_cop_s02_c05_bear_10_n02134418_3579.png
subject-02,1,755,0.63858699798584,oven,bicycle,c05,0755_cop_s02_c05_bicycle_10_n03792782_10129.png
subject-02,1,756,1.44021010398865,clock,knife,c100,0756_cop_s02_c100_knife_10_n03041632_35116.png
subject-02,1,757,0.660027980804443,clock,cat,c01,0757_cop_s02_c01_cat_10_n02123394_4714.png
subject-02,1,758,0.718060970306396,boat,airplane,c15,0758_cop_s02_c15_airplane_10_n02690373_1837.png
subject-02,1,759,0.909642934799194,car,truck,c30,0759_cop_s02_c30_truck_10_n03796401_7699.png
subject-02,1,760,1.43970084190369,bird,knife,c10,0760_cop_s02_c10_knife_10_n03041632_10140.png
subject-02,1,761,0.789422988891602,keyboard,keyboard,c100,0761_cop_s02_c100_keyboard_10_n03085013_21534.png
subject-02,1,762,0.86307692527771,cat,dog,c01,0762_cop_s02_c01_dog_10_n02104365_1123.png
subject-02,1,763,0.984935998916626,bottle,bottle,c100,0763_cop_s02_c100_bottle_10_n04560804_14130.png
subject-02,1,764,1.41268491744995,airplane,airplane,c50,0764_cop_s02_c50_airplane_10_n02690373_1350.png
subject-02,1,765,0.878695011138916,chair,chair,c15,0765_cop_s02_c15_chair_10_n03376595_9482.png
subject-02,1,766,0.764563083648682,car,dog,c05,0766_cop_s02_c05_dog_10_n02094433_5139.png
subject-02,1,767,0.614380836486816,cat,cat,c30,0767_cop_s02_c30_cat_10_n02123159_5257.png
subject-02,1,768,0.900269031524658,truck,truck,c10,0768_cop_s02_c10_truck_10_n04467665_57085.png
subject-02,1,769,0.667955875396729,car,car,c05,0769_cop_s02_c05_car_10_n02814533_872.png
subject-02,1,770,1.11772704124451,bear,knife,c05,0770_cop_s02_c05_knife_10_n03041632_96345.png
subject-02,1,771,1.30790710449219,bird,dog,c05,0771_cop_s02_c05_dog_10_n02105162_8899.png
subject-02,1,772,1.03768515586853,boat,car,c01,0772_cop_s02_c01_car_10_n02814533_32835.png
subject-02,1,773,0.921477079391479,bottle,bottle,c15,0773_cop_s02_c15_bottle_10_n02823428_780.png
subject-02,1,774,1.1071400642395,clock,bird,c05,0774_cop_s02_c05_bird_10_n01534433_14198.png
subject-02,1,775,0.974617004394531,clock,clock,c15,0775_cop_s02_c15_clock_10_n02708093_118.png
subject-02,1,776,1.11260199546814,car,truck,c10,0776_cop_s02_c10_truck_10_n03417042_9829.png
subject-02,1,777,0.812376022338867,chair,chair,c100,0777_cop_s02_c100_chair_10_n04099969_28072.png
subject-02,1,778,0.700186014175415,bear,bear,c50,0778_cop_s02_c50_bear_10_n02134084_21462.png
subject-02,1,779,0.798004150390625,car,bicycle,c15,0779_cop_s02_c15_bicycle_10_n02835271_26158.png
subject-02,1,780,0.722083806991577,boat,boat,c30,0780_cop_s02_c30_boat_10_n03662601_5575.png
subject-02,1,781,0.712161064147949,bear,bear,c15,0781_cop_s02_c15_bear_10_n02132136_11339.png
subject-02,1,782,0.653548002243042,keyboard,keyboard,c10,0782_cop_s02_c10_keyboard_10_n04505470_4374.png
subject-02,1,783,0.831346988677979,boat,truck,c10,0783_cop_s02_c10_truck_10_n04467665_2505.png
subject-02,1,784,1.1571991443634,bicycle,elephant,c01,0784_cop_s02_c01_elephant_10_n02504458_4864.png
subject-02,1,785,1.50009393692017,elephant,elephant,c100,0785_cop_s02_c100_elephant_10_n02504458_7955.png
subject-02,1,786,0.720966815948486,car,car,c100,0786_cop_s02_c100_car_10_n03100240_1443.png
subject-02,1,787,0.648655891418457,boat,knife,c05,0787_cop_s02_c05_knife_10_n03041632_30602.png
subject-02,1,788,0.794409990310669,chair,chair,c100,0788_cop_s02_c100_chair_10_n04429376_6308.png
subject-02,1,789,0.462145090103149,car,car,c50,0789_cop_s02_c50_car_10_n04285008_507.png
subject-02,1,790,0.990054845809937,airplane,airplane,c05,0790_cop_s02_c05_airplane_10_n02690373_2607.png
subject-02,1,791,1.11967897415161,elephant,bird,c05,0791_cop_s02_c05_bird_10_n01616318_2700.png
subject-02,1,792,0.719771146774292,car,truck,c10,0792_cop_s02_c10_truck_10_n03417042_7530.png
subject-02,1,793,0.887913942337036,boat,boat,c30,0793_cop_s02_c30_boat_10_n04273569_17045.png
subject-02,1,794,0.627315998077393,cat,cat,c50,0794_cop_s02_c50_cat_10_n02123045_455.png
subject-02,1,795,0.999117136001587,boat,bear,c01,0795_cop_s02_c01_bear_10_n02132136_17669.png
subject-02,1,796,0.638726949691772,oven,chair,c03,0796_cop_s02_c03_chair_10_n02791124_3245.png
subject-02,1,797,0.738584041595459,oven,oven,c50,0797_cop_s02_c50_oven_10_n04111531_8658.png
subject-02,1,798,0.632858991622925,airplane,airplane,c100,0798_cop_s02_c100_airplane_10_n02690373_9720.png
subject-02,1,799,0.768198013305664,boat,bird,c03,0799_cop_s02_c03_bird_10_n02011460_2886.png
subject-02,1,800,0.658037900924683,clock,cat,c03,0800_cop_s02_c03_cat_10_n02123597_1965.png
subject-02,1,801,0.691786050796509,boat,bicycle,c03,0801_cop_s02_c03_bicycle_10_n03792782_818.png
subject-02,1,802,1.3256721496582,clock,bottle,c05,0802_cop_s02_c05_bottle_10_n03937543_6014.png
subject-02,1,803,1.00953912734985,chair,oven,c15,0803_cop_s02_c15_oven_10_n04111531_8305.png
subject-02,1,804,0.717311859130859,elephant,elephant,c30,0804_cop_s02_c30_elephant_10_n02504013_1258.png
subject-02,1,805,0.597218990325928,bicycle,bicycle,c10,0805_cop_s02_c10_bicycle_10_n02835271_12764.png
subject-02,1,806,0.593087196350098,clock,clock,c10,0806_cop_s02_c10_clock_10_n02708093_8340.png
subject-02,1,807,0.778795957565308,car,keyboard,c03,0807_cop_s02_c03_keyboard_10_n03085013_21447.png
subject-02,1,808,1.35470700263977,keyboard,oven,c50,0808_cop_s02_c50_oven_10_n04111531_452.png
subject-02,1,809,0.64049506187439,car,car,c50,0809_cop_s02_c50_car_10_n03100240_21982.png
subject-02,1,810,0.698123931884766,car,bear,c05,0810_cop_s02_c05_bear_10_n02133161_9949.png
subject-02,1,811,0.742029905319214,bird,bird,c30,0811_cop_s02_c30_bird_10_n01855032_7567.png
subject-02,1,812,0.721997976303101,truck,boat,c03,0812_cop_s02_c03_boat_10_n02951358_15072.png
subject-02,1,813,0.509905099868774,knife,clock,c01,0813_cop_s02_c01_clock_10_n02708093_2710.png
subject-02,1,814,0.765484809875488,bird,bird,c05,0814_cop_s02_c05_bird_10_n02027492_3072.png
subject-02,1,815,0.66124415397644,dog,dog,c100,0815_cop_s02_c100_dog_10_n02107908_3490.png
subject-02,1,816,0.853198051452637,bottle,bottle,c30,0816_cop_s02_c30_bottle_10_n02823428_4468.png
subject-02,1,817,0.837071895599365,bear,bear,c100,0817_cop_s02_c100_bear_10_n02134084_21207.png
subject-02,1,818,0.761124134063721,airplane,airplane,c100,0818_cop_s02_c100_airplane_10_n02690373_871.png
subject-02,1,819,0.69499397277832,oven,keyboard,c05,0819_cop_s02_c05_keyboard_10_n03085013_1824.png
subject-02,1,820,1.18650007247925,bear,bicycle,c03,0820_cop_s02_c03_bicycle_10_n02835271_12405.png
subject-02,1,821,0.822109937667847,truck,truck,c05,0821_cop_s02_c05_truck_10_n03796401_20641.png
subject-02,1,822,0.890249013900757,clock,knife,c15,0822_cop_s02_c15_knife_10_n03041632_4787.png
subject-02,1,823,1.09204602241516,dog,bear,c10,0823_cop_s02_c10_bear_10_n02132136_8975.png
subject-02,1,824,0.909693002700806,cat,clock,c05,0824_cop_s02_c05_clock_10_n03196217_127.png
subject-02,1,825,0.787517070770264,cat,knife,c03,0825_cop_s02_c03_knife_10_n03041632_11932.png
subject-02,1,826,0.691318988800049,bird,bird,c30,0826_cop_s02_c30_bird_10_n01843383_296.png
subject-02,1,827,0.853202819824219,bottle,bottle,c50,0827_cop_s02_c50_bottle_10_n04591713_3284.png
subject-02,1,828,1.39695501327515,elephant,elephant,c05,0828_cop_s02_c05_elephant_10_n02504013_8162.png
subject-02,1,829,0.611093044281006,elephant,elephant,c50,0829_cop_s02_c50_elephant_10_n02504458_4909.png
subject-02,1,830,1.12461590766907,keyboard,clock,c10,0830_cop_s02_c10_clock_10_n03196217_8020.png
subject-02,1,831,0.800384044647217,bottle,bottle,c100,0831_cop_s02_c100_bottle_10_n04557648_988.png
subject-02,1,832,1.22256183624268,car,car,c10,0832_cop_s02_c10_car_10_n04285008_10073.png
subject-02,1,833,0.897994041442871,clock,clock,c30,0833_cop_s02_c30_clock_10_n03196217_6814.png
subject-02,1,834,0.838039875030518,boat,cat,c03,0834_cop_s02_c03_cat_10_n02123597_14713.png
subject-02,1,835,0.655449151992798,car,car,c15,0835_cop_s02_c15_car_10_n03100240_10096.png
subject-02,1,836,1.28946805000305,truck,elephant,c10,0836_cop_s02_c10_elephant_10_n02504458_7359.png
subject-02,1,837,0.777545928955078,elephant,elephant,c100,0837_cop_s02_c100_elephant_10_n02504458_5652.png
subject-02,1,838,0.991038799285889,clock,oven,c03,0838_cop_s02_c03_oven_10_n04111531_1778.png
subject-02,1,839,0.948828935623169,bicycle,bicycle,c100,0839_cop_s02_c100_bicycle_10_n03792782_1586.png
subject-02,1,840,0.688726902008057,airplane,airplane,c15,0840_cop_s02_c15_airplane_10_n02690373_4921.png
subject-02,1,841,1.50004696846008,boat,chair,c10,0841_cop_s02_c10_chair_10_n02791124_880.png
subject-02,1,842,0.728451013565063,dog,dog,c15,0842_cop_s02_c15_dog_10_n02090379_4952.png
subject-02,1,843,0.890268087387085,dog,dog,c50,0843_cop_s02_c50_dog_10_n02097209_1658.png
subject-02,1,844,0.605937957763672,keyboard,keyboard,c05,0844_cop_s02_c05_keyboard_10_n04505470_3207.png
subject-02,1,845,1.43384504318237,bear,bear,c30,0845_cop_s02_c30_bear_10_n02134418_4717.png
subject-02,1,846,0.719465970993042,bear,oven,c10,0846_cop_s02_c10_oven_10_n04111531_14279.png
subject-02,1,847,0.591394186019897,clock,clock,c30,0847_cop_s02_c30_clock_10_n04548280_1960.png
subject-02,1,848,0.651246070861816,airplane,airplane,c100,0848_cop_s02_c100_airplane_10_n02690373_139.png
subject-02,1,849,1.05886602401733,knife,knife,c10,0849_cop_s02_c10_knife_10_n03041632_46185.png
subject-02,1,850,0.546838998794556,bird,bird,c15,0850_cop_s02_c15_bird_10_n02013706_8336.png
subject-02,1,851,0.912873029708862,elephant,elephant,c100,0851_cop_s02_c100_elephant_10_n02504013_7248.png
subject-02,1,852,0.896440029144287,boat,cat,c01,0852_cop_s02_c01_cat_10_n02123394_7700.png
subject-02,1,853,0.736078977584839,cat,airplane,c05,0853_cop_s02_c05_airplane_10_n02690373_6114.png
subject-02,1,854,0.669867992401123,truck,truck,c100,0854_cop_s02_c100_truck_10_n03417042_7365.png
subject-02,1,855,0.69200611114502,cat,cat,c10,0855_cop_s02_c10_cat_10_n02123159_4856.png
subject-02,1,856,0.893663883209229,clock,clock,c10,0856_cop_s02_c10_clock_10_n02708093_149.png
subject-02,1,857,0.891355991363525,boat,bird,c01,0857_cop_s02_c01_bird_10_n01601694_10802.png
subject-02,1,858,1.50012421607971,oven,chair,c50,0858_cop_s02_c50_chair_10_n03376595_9247.png
subject-02,1,859,0.634972095489502,oven,knife,c15,0859_cop_s02_c15_knife_10_n03041632_84012.png
subject-02,1,860,0.648941040039062,chair,elephant,c01,0860_cop_s02_c01_elephant_10_n02504458_1022.png
subject-02,1,861,1.09858798980713,chair,dog,c10,0861_cop_s02_c10_dog_10_n02093428_592.png
subject-02,1,862,0.854474067687988,oven,oven,c30,0862_cop_s02_c30_oven_10_n04111531_1442.png
subject-02,1,863,0.678309917449951,oven,bicycle,c01,0863_cop_s02_c01_bicycle_10_n02835271_10839.png
subject-02,1,864,0.972280979156494,cat,truck,c01,0864_cop_s02_c01_truck_10_n03417042_908.png
subject-02,1,865,1.11194396018982,elephant,bird,c100,0865_cop_s02_c100_bird_10_n01558993_5185.png
subject-02,1,866,1.50004410743713,bear,clock,c50,0866_cop_s02_c50_clock_10_n02708093_7081.png
subject-02,1,867,0.643614768981934,cat,cat,c15,0867_cop_s02_c15_cat_10_n02123159_7607.png
subject-02,1,868,0.443540811538696,car,boat,c01,0868_cop_s02_c01_boat_10_n04612504_19983.png
subject-02,1,869,0.483196020126343,boat,boat,c30,0869_cop_s02_c30_boat_10_n03662601_3823.png
subject-02,1,870,1.23490786552429,car,clock,c50,0870_cop_s02_c50_clock_10_n02708093_404.png
subject-02,1,871,0.896892070770264,bird,bird,c03,0871_cop_s02_c03_bird_10_n01860187_728.png
subject-02,1,872,0.714800834655762,cat,oven,c50,0872_cop_s02_c50_oven_10_n04111531_7421.png
subject-02,1,873,0.656765937805176,cat,bear,c30,0873_cop_s02_c30_bear_10_n02132136_1338.png
subject-02,1,874,0.872135162353516,knife,knife,c100,0874_cop_s02_c100_knife_10_n03041632_3101.png
subject-02,1,875,0.727966070175171,clock,clock,c15,0875_cop_s02_c15_clock_10_n02708093_2025.png
subject-02,1,876,0.803941011428833,knife,knife,c100,0876_cop_s02_c100_knife_10_n03041632_7279.png
subject-02,1,877,0.895735025405884,knife,knife,c15,0877_cop_s02_c15_knife_10_n03041632_16206.png
subject-02,1,878,0.705459117889404,boat,dog,c03,0878_cop_s02_c03_dog_10_n02113799_653.png
subject-02,1,879,0.805444002151489,boat,boat,c30,0879_cop_s02_c30_boat_10_n04612504_14669.png
subject-02,1,880,0.647483110427856,bottle,bottle,c100,0880_cop_s02_c100_bottle_10_n03983396_2182.png
subject-02,1,881,0.837973117828369,car,car,c10,0881_cop_s02_c10_car_10_n03100240_3373.png
subject-02,1,882,0.897742986679077,clock,truck,c05,0882_cop_s02_c05_truck_10_n04467665_8955.png
subject-02,1,883,1.33380103111267,truck,truck,c15,0883_cop_s02_c15_truck_10_n03796401_4154.png
subject-02,1,884,0.689416170120239,chair,chair,c05,0884_cop_s02_c05_chair_10_n04099969_3686.png
subject-02,1,885,0.95914101600647,car,car,c10,0885_cop_s02_c10_car_10_n03100240_13929.png
subject-02,1,886,0.667049884796143,car,car,c50,0886_cop_s02_c50_car_10_n04285008_12662.png
subject-02,1,887,0.744906902313232,bicycle,bicycle,c100,0887_cop_s02_c100_bicycle_10_n03792782_5966.png
subject-02,1,888,0.890745162963867,bottle,bottle,c30,0888_cop_s02_c30_bottle_10_n03983396_6287.png
subject-02,1,889,0.678628921508789,elephant,bear,c15,0889_cop_s02_c15_bear_10_n02132136_1574.png
subject-02,1,890,0.76622200012207,clock,truck,c03,0890_cop_s02_c03_truck_10_n04467665_22358.png
subject-02,1,891,1.41402101516724,bear,bear,c100,0891_cop_s02_c100_bear_10_n02132136_10833.png
subject-02,1,892,0.656099081039429,keyboard,keyboard,c100,0892_cop_s02_c100_keyboard_10_n04505470_3825.png
subject-02,1,893,0.871894121170044,oven,elephant,c05,0893_cop_s02_c05_elephant_10_n02504013_7633.png
subject-02,1,894,0.783715009689331,oven,bear,c05,0894_cop_s02_c05_bear_10_n02133161_313.png
subject-02,1,895,0.805427074432373,keyboard,keyboard,c05,0895_cop_s02_c05_keyboard_10_n04505470_8822.png
subject-02,1,896,0.539226055145264,boat,boat,c50,0896_cop_s02_c50_boat_10_n04612504_11939.png
subject-02,1,897,0.575244903564453,cat,airplane,c01,0897_cop_s02_c01_airplane_10_n02690373_9869.png
subject-02,1,898,0.759006977081299,elephant,elephant,c30,0898_cop_s02_c30_elephant_10_n02504013_5237.png
subject-02,1,899,0.560796976089478,cat,cat,c30,0899_cop_s02_c30_cat_10_n02124075_11970.png
subject-02,1,900,1.02852010726929,boat,knife,c05,0900_cop_s02_c05_knife_10_n03041632_46112.png
subject-02,1,901,0.548207998275757,airplane,airplane,c50,0901_cop_s02_c50_airplane_10_n02690373_911.png
subject-02,1,902,0.670078992843628,keyboard,bottle,c15,0902_cop_s02_c15_bottle_10_n04557648_2709.png
subject-02,1,903,1.09001088142395,truck,bear,c50,0903_cop_s02_c50_bear_10_n02133161_13461.png
subject-02,1,904,0.617624044418335,car,car,c05,0904_cop_s02_c05_car_10_n02814533_45594.png
subject-02,1,905,0.729820966720581,boat,boat,c01,0905_cop_s02_c01_boat_10_n04273569_661.png
subject-02,1,906,1.05543088912964,truck,truck,c10,0906_cop_s02_c10_truck_10_n03417042_14261.png
subject-02,1,907,1.0130729675293,airplane,airplane,c10,0907_cop_s02_c10_airplane_10_n02690373_4298.png
subject-02,1,908,0.794970989227295,bird,bird,c15,0908_cop_s02_c15_bird_10_n02009229_4224.png
subject-02,1,909,0.830883979797363,bear,bear,c15,0909_cop_s02_c15_bear_10_n02134084_1689.png
subject-02,1,910,0.882601022720337,car,car,c30,0910_cop_s02_c30_car_10_n02814533_5155.png
subject-02,1,911,0.918363809585571,bird,bird,c10,0911_cop_s02_c10_bird_10_n01820546_2924.png
subject-02,1,912,0.856378078460693,bear,bottle,c01,0912_cop_s02_c01_bottle_10_n04591713_1126.png
subject-02,1,913,0.580182075500488,airplane,airplane,c30,0913_cop_s02_c30_airplane_10_n02690373_8350.png
subject-02,1,914,0.929810047149658,airplane,airplane,c03,0914_cop_s02_c03_airplane_10_n02690373_8743.png
subject-02,1,915,1.35970711708069,airplane,elephant,c10,0915_cop_s02_c10_elephant_10_n02504013_1970.png
subject-02,1,916,0.685702085494995,keyboard,keyboard,c15,0916_cop_s02_c15_keyboard_10_n04505470_4761.png
subject-02,1,917,1.20127987861633,elephant,bear,c03,0917_cop_s02_c03_bear_10_n02133161_14164.png
subject-02,1,918,0.62702202796936,bottle,bottle,c30,0918_cop_s02_c30_bottle_10_n04560804_11350.png
subject-02,1,919,0.850914001464844,cat,clock,c03,0919_cop_s02_c03_clock_10_n02708093_3761.png
subject-02,1,920,0.62068510055542,clock,bottle,c05,0920_cop_s02_c05_bottle_10_n04579145_2910.png
subject-02,1,921,0.672483921051025,boat,bicycle,c03,0921_cop_s02_c03_bicycle_10_n02835271_3832.png
subject-02,1,922,0.9984130859375,car,elephant,c01,0922_cop_s02_c01_elephant_10_n02504458_7207.png
subject-02,1,923,0.740147113800049,bottle,bottle,c50,0923_cop_s02_c50_bottle_10_n04560804_2942.png
subject-02,1,924,0.762310981750488,knife,bear,c05,0924_cop_s02_c05_bear_10_n02134418_6252.png
subject-02,1,925,0.617779970169067,car,car,c15,0925_cop_s02_c15_car_10_n03100240_1856.png
subject-02,1,926,0.809597969055176,elephant,elephant,c50,0926_cop_s02_c50_elephant_10_n02504458_3684.png
subject-02,1,927,0.883727073669434,dog,dog,c15,0927_cop_s02_c15_dog_10_n02090379_5574.png
subject-02,1,928,0.763278007507324,bear,bird,c01,0928_cop_s02_c01_bird_10_n01820546_1616.png
subject-02,1,929,0.901005983352661,elephant,elephant,c50,0929_cop_s02_c50_elephant_10_n02504458_2875.png
subject-02,1,930,1.23520302772522,oven,oven,c30,0930_cop_s02_c30_oven_10_n04111531_6500.png
subject-02,1,931,0.574741125106812,boat,boat,c50,0931_cop_s02_c50_boat_10_n03344393_4243.png
subject-02,1,932,0.774501085281372,bicycle,clock,c05,0932_cop_s02_c05_clock_10_n04548280_2559.png
subject-02,1,933,1.06070399284363,elephant,knife,c50,0933_cop_s02_c50_knife_10_n03041632_37274.png
subject-02,1,934,0.620532989501953,airplane,airplane,c15,0934_cop_s02_c15_airplane_10_n02690373_4728.png
subject-02,1,935,1.00791692733765,elephant,bear,c05,0935_cop_s02_c05_bear_10_n02132136_22602.png
subject-02,1,936,0.535727977752686,boat,boat,c100,0936_cop_s02_c100_boat_10_n03344393_646.png
subject-02,1,937,0.625648021697998,bottle,bottle,c100,0937_cop_s02_c100_bottle_10_n03983396_17803.png
subject-02,1,938,1.12346816062927,oven,car,c05,0938_cop_s02_c05_car_10_n04285008_12539.png
subject-02,1,939,0.659183025360107,keyboard,keyboard,c30,0939_cop_s02_c30_keyboard_10_n03085013_2272.png
subject-02,1,940,0.665009021759033,elephant,bird,c30,0940_cop_s02_c30_bird_10_n02007558_2518.png
subject-02,1,941,0.622946977615356,keyboard,keyboard,c50,0941_cop_s02_c50_keyboard_10_n03085013_6644.png
subject-02,1,942,0.744683027267456,car,car,c15,0942_cop_s02_c15_car_10_n04285008_8443.png
subject-02,1,943,0.640335083007812,knife,knife,c50,0943_cop_s02_c50_knife_10_n03041632_41310.png
subject-02,1,944,0.796426057815552,bicycle,bicycle,c10,0944_cop_s02_c10_bicycle_10_n03792782_68259.png
subject-02,1,945,1.11403512954712,truck,truck,c100,0945_cop_s02_c100_truck_10_n04467665_52762.png
subject-02,1,946,1.141930103302,bottle,bottle,c50,0946_cop_s02_c50_bottle_10_n04560804_5756.png
subject-02,1,947,1.14578795433044,bottle,knife,c10,0947_cop_s02_c10_knife_10_n03041632_24646.png
subject-02,1,948,0.947400093078613,chair,boat,c03,0948_cop_s02_c03_boat_10_n02951358_10488.png
subject-02,1,949,0.593326091766357,airplane,airplane,c30,0949_cop_s02_c30_airplane_10_n02690373_7676.png
subject-02,1,950,0.569129943847656,airplane,airplane,c50,0950_cop_s02_c50_airplane_10_n02690373_4964.png
subject-02,1,951,0.723089933395386,truck,truck,c50,0951_cop_s02_c50_truck_10_n04467665_30901.png
subject-02,1,952,1.43280506134033,boat,boat,c10,0952_cop_s02_c10_boat_10_n04612504_17514.png
subject-02,1,953,0.592426061630249,cat,bottle,c05,0953_cop_s02_c05_bottle_10_n04557648_4168.png
subject-02,1,954,1.00435018539429,airplane,cat,c10,0954_cop_s02_c10_cat_10_n02123597_7248.png
subject-02,1,955,0.51410984992981,clock,bear,c01,0955_cop_s02_c01_bear_10_n02134084_6113.png
subject-02,1,956,0.785959005355835,elephant,elephant,c100,0956_cop_s02_c100_elephant_10_n02504458_2031.png
subject-02,1,957,0.67580509185791,bicycle,bicycle,c10,0957_cop_s02_c10_bicycle_10_n02835271_3529.png
subject-02,1,958,0.845731019973755,bear,chair,c05,0958_cop_s02_c05_chair_10_n02791124_4519.png
subject-02,1,959,1.17147898674011,elephant,elephant,c03,0959_cop_s02_c03_elephant_10_n02504013_3739.png
subject-02,1,960,0.495284080505371,cat,cat,c50,0960_cop_s02_c50_cat_10_n02123597_13272.png
subject-02,1,961,0.669697999954224,elephant,elephant,c05,0961_cop_s02_c05_elephant_10_n02504458_1816.png
subject-02,1,962,0.657306909561157,clock,clock,c50,0962_cop_s02_c50_clock_10_n02708093_2043.png
subject-02,1,963,0.781320095062256,boat,clock,c01,0963_cop_s02_c01_clock_10_n04548280_2343.png
subject-02,1,964,0.867197036743164,boat,clock,c03,0964_cop_s02_c03_clock_10_n04548280_750.png
subject-02,1,965,0.886797904968262,oven,oven,c100,0965_cop_s02_c100_oven_10_n04111531_2350.png
subject-02,1,966,0.610614061355591,clock,clock,c100,0966_cop_s02_c100_clock_10_n03196217_1275.png
subject-02,1,967,0.674691200256348,bicycle,bicycle,c50,0967_cop_s02_c50_bicycle_10_n03792782_17571.png
subject-02,1,968,0.582782983779907,airplane,airplane,c100,0968_cop_s02_c100_airplane_10_n02690373_5007.png
subject-02,1,969,0.464584112167358,boat,knife,c01,0969_cop_s02_c01_knife_10_n03041632_18126.png
subject-02,1,970,0.784140825271606,knife,knife,c50,0970_cop_s02_c50_knife_10_n03041632_4714.png
subject-02,1,971,1.22566699981689,clock,truck,c03,0971_cop_s02_c03_truck_10_n03796401_4119.png
subject-02,1,972,0.93150782585144,car,car,c05,0972_cop_s02_c05_car_10_n02814533_4491.png
subject-02,1,973,1.13180613517761,oven,oven,c15,0973_cop_s02_c15_oven_10_n04111531_1752.png
subject-02,1,974,0.995347023010254,oven,oven,c100,0974_cop_s02_c100_oven_10_n04111531_6536.png
subject-02,1,975,0.915061950683594,bear,oven,c05,0975_cop_s02_c05_oven_10_n04111531_6863.png
subject-02,1,976,0.862848997116089,cat,bird,c03,0976_cop_s02_c03_bird_10_n02025239_660.png
subject-02,1,977,0.728590965270996,chair,chair,c50,0977_cop_s02_c50_chair_10_n04099969_48172.png
subject-02,1,978,0.778328895568848,bottle,dog,c03,0978_cop_s02_c03_dog_10_n02113712_4486.png
subject-02,1,979,0.746393918991089,elephant,elephant,c30,0979_cop_s02_c30_elephant_10_n02504458_3225.png
subject-02,1,980,0.687991142272949,airplane,airplane,c100,0980_cop_s02_c100_airplane_10_n02690373_736.png
subject-02,1,981,1.15394902229309,clock,clock,c100,0981_cop_s02_c100_clock_10_n03196217_8618.png
subject-02,1,982,0.893550872802734,bird,elephant,c10,0982_cop_s02_c10_elephant_10_n02504013_4654.png
subject-02,1,983,0.843631982803345,truck,elephant,c01,0983_cop_s02_c01_elephant_10_n02504013_7351.png
subject-02,1,984,0.527284145355225,cat,cat,c50,0984_cop_s02_c50_cat_10_n02123045_1274.png
subject-02,1,985,1.06523895263672,clock,clock,c100,0985_cop_s02_c100_clock_10_n04548280_1053.png
subject-02,1,986,0.889062881469727,bicycle,oven,c15,0986_cop_s02_c15_oven_10_n04111531_6094.png
subject-02,1,987,0.863082885742188,boat,knife,c05,0987_cop_s02_c05_knife_10_n03041632_13509.png
subject-02,1,988,0.758502006530762,clock,clock,c15,0988_cop_s02_c15_clock_10_n02708093_5429.png
subject-02,1,989,0.926436901092529,airplane,truck,c03,0989_cop_s02_c03_truck_10_n03417042_751.png
subject-02,1,990,1.12820911407471,chair,knife,c100,0990_cop_s02_c100_knife_10_n03041632_1143.png
subject-02,1,991,0.80394983291626,oven,oven,c01,0991_cop_s02_c01_oven_10_n04111531_14690.png
subject-02,1,992,0.557885885238647,cat,elephant,c03,0992_cop_s02_c03_elephant_10_n02504458_1328.png
subject-02,1,993,0.595781803131104,car,keyboard,c01,0993_cop_s02_c01_keyboard_10_n04505470_4950.png
subject-02,1,994,0.529504060745239,bear,elephant,c03,0994_cop_s02_c03_elephant_10_n02504013_3634.png
subject-02,1,995,0.707381010055542,bicycle,clock,c01,0995_cop_s02_c01_clock_10_n02708093_3484.png
subject-02,1,996,0.8350510597229,truck,bicycle,c03,0996_cop_s02_c03_bicycle_10_n02835271_7969.png
subject-02,1,997,0.738926887512207,keyboard,knife,c30,0997_cop_s02_c30_knife_10_n03041632_4808.png
subject-02,1,998,1.37878584861755,bear,bear,c10,0998_cop_s02_c10_bear_10_n02133161_12045.png
subject-02,1,999,1.00652408599854,truck,clock,c03,0999_cop_s02_c03_clock_10_n03196217_5079.png
subject-02,1,1000,0.776642084121704,knife,bicycle,c01,1000_cop_s02_c01_bicycle_10_n03792782_19053.png
subject-02,1,1001,1.25062894821167,bicycle,boat,c50,1001_cop_s02_c50_boat_10_n03662601_20110.png
subject-02,1,1002,0.53593111038208,boat,dog,c01,1002_cop_s02_c01_dog_10_n02111500_8079.png
subject-02,1,1003,0.773928880691528,car,bottle,c01,1003_cop_s02_c01_bottle_10_n04557648_11142.png
subject-02,1,1004,0.467956066131592,airplane,chair,c03,1004_cop_s02_c03_chair_10_n04099969_3804.png
subject-02,1,1005,0.495475053787231,cat,clock,c05,1005_cop_s02_c05_clock_10_n02708093_3750.png
subject-02,1,1006,0.773178100585938,car,truck,c30,1006_cop_s02_c30_truck_10_n03796401_3012.png
subject-02,1,1007,0.911366939544678,chair,chair,c30,1007_cop_s02_c30_chair_10_n04099969_9891.png
subject-02,1,1008,0.594856977462769,keyboard,keyboard,c30,1008_cop_s02_c30_keyboard_10_n03085013_20462.png
subject-02,1,1009,1.0710608959198,car,knife,c05,1009_cop_s02_c05_knife_10_n03041632_18859.png
subject-02,1,1010,0.976457834243774,bear,bear,c30,1010_cop_s02_c30_bear_10_n02134418_76.png
subject-02,1,1011,0.640680074691772,chair,chair,c30,1011_cop_s02_c30_chair_10_n02791124_3850.png
subject-02,1,1012,0.822038888931274,car,airplane,c03,1012_cop_s02_c03_airplane_10_n02690373_10203.png
subject-02,1,1013,0.685874223709106,bird,oven,c03,1013_cop_s02_c03_oven_10_n04111531_7619.png
subject-02,1,1014,0.778094053268433,chair,chair,c05,1014_cop_s02_c05_chair_10_n03376595_8953.png
subject-02,1,1015,0.629580974578857,dog,chair,c01,1015_cop_s02_c01_chair_10_n04099969_10266.png
subject-02,1,1016,0.791446924209595,knife,cat,c01,1016_cop_s02_c01_cat_10_n02124075_13792.png
subject-02,1,1017,0.815299987792969,bear,bear,c100,1017_cop_s02_c100_bear_10_n02133161_741.png
subject-02,1,1018,0.634882926940918,airplane,airplane,c15,1018_cop_s02_c15_airplane_10_n02690373_10181.png
subject-02,1,1019,1.00690603256226,bottle,knife,c50,1019_cop_s02_c50_knife_10_n03041632_6557.png
subject-02,1,1020,0.822812080383301,keyboard,keyboard,c15,1020_cop_s02_c15_keyboard_10_n04505470_5161.png
subject-02,1,1021,1.29885292053223,chair,car,c10,1021_cop_s02_c10_car_10_n03100240_2108.png
subject-02,1,1022,1.18620800971985,oven,oven,c50,1022_cop_s02_c50_oven_10_n04111531_15852.png
subject-02,1,1023,0.948140144348145,boat,car,c03,1023_cop_s02_c03_car_10_n04285008_2460.png
subject-02,1,1024,0.603813171386719,keyboard,keyboard,c10,1024_cop_s02_c10_keyboard_10_n04505470_6638.png
subject-02,1,1025,0.803745985031128,dog,dog,c30,1025_cop_s02_c30_dog_10_n02093991_9672.png
subject-02,1,1026,0.501628875732422,bird,bird,c50,1026_cop_s02_c50_bird_10_n01592084_9643.png
subject-02,1,1027,1.03740882873535,car,bird,c05,1027_cop_s02_c05_bird_10_n02025239_3669.png
subject-02,1,1028,0.595149040222168,car,car,c15,1028_cop_s02_c15_car_10_n02814533_3117.png
subject-02,1,1029,0.528970956802368,airplane,airplane,c10,1029_cop_s02_c10_airplane_10_n02690373_4375.png
subject-02,1,1030,0.690723896026611,bird,bird,c50,1030_cop_s02_c50_bird_10_n01616318_603.png
subject-02,1,1031,0.538588047027588,airplane,airplane,c10,1031_cop_s02_c10_airplane_10_n02690373_7408.png
subject-02,1,1032,0.73888087272644,car,car,c30,1032_cop_s02_c30_car_10_n03100240_10440.png
subject-02,1,1033,0.900254011154175,bird,bear,c01,1033_cop_s02_c01_bear_10_n02132136_10428.png
subject-02,1,1034,0.764286994934082,bottle,bottle,c10,1034_cop_s02_c10_bottle_10_n02823428_2504.png
subject-02,1,1035,0.693796157836914,bottle,airplane,c01,1035_cop_s02_c01_airplane_10_n02690373_5917.png
subject-02,1,1036,0.699620008468628,airplane,airplane,c05,1036_cop_s02_c05_airplane_10_n02690373_8746.png
