subj,session,trial,rt,object_response,category,condition,imagename
bagnet33,1,1,NaN,knife,knife,c30,0001_cop_dnn_c30_knife_10_n03041632_7380.png
bagnet33,1,2,NaN,bicycle,bicycle,c100,0002_cop_dnn_c100_bicycle_10_n03792782_5966.png
bagnet33,1,3,NaN,airplane,bird,c01,0003_cop_dnn_c01_bird_10_n01601694_10802.png
bagnet33,1,4,NaN,airplane,airplane,c05,0004_cop_dnn_c05_airplane_10_n02690373_9759.png
bagnet33,1,5,NaN,knife,car,c03,0005_cop_dnn_c03_car_10_n02814533_2236.png
bagnet33,1,6,NaN,chair,chair,c30,0006_cop_dnn_c30_chair_10_n02791124_7207.png
bagnet33,1,7,NaN,oven,oven,c50,0007_cop_dnn_c50_oven_10_n04111531_7064.png
bagnet33,1,8,NaN,knife,bird,c15,0008_cop_dnn_c15_bird_10_n01532829_2263.png
bagnet33,1,9,NaN,bicycle,bicycle,c50,0009_cop_dnn_c50_bicycle_10_n02835271_3383.png
bagnet33,1,10,NaN,airplane,bicycle,c03,0010_cop_dnn_c03_bicycle_10_n03792782_27510.png
bagnet33,1,11,NaN,airplane,bottle,c03,0011_cop_dnn_c03_bottle_10_n04557648_10944.png
bagnet33,1,12,NaN,airplane,keyboard,c15,0012_cop_dnn_c15_keyboard_10_n03085013_20891.png
bagnet33,1,13,NaN,elephant,elephant,c30,0013_cop_dnn_c30_elephant_10_n02504458_3225.png
bagnet33,1,14,NaN,airplane,keyboard,c10,0014_cop_dnn_c10_keyboard_10_n04505470_6638.png
bagnet33,1,15,NaN,airplane,bird,c01,0015_cop_dnn_c01_bird_10_n01601694_11888.png
bagnet33,1,16,NaN,airplane,airplane,c03,0016_cop_dnn_c03_airplane_10_n02690373_8743.png
bagnet33,1,17,NaN,boat,boat,c10,0017_cop_dnn_c10_boat_10_n03344393_8869.png
bagnet33,1,18,NaN,airplane,bear,c01,0018_cop_dnn_c01_bear_10_n02132136_27682.png
bagnet33,1,19,NaN,chair,clock,c50,0019_cop_dnn_c50_clock_10_n02708093_7081.png
bagnet33,1,20,NaN,airplane,car,c10,0020_cop_dnn_c10_car_10_n03100240_12141.png
bagnet33,1,21,NaN,airplane,car,c15,0021_cop_dnn_c15_car_10_n02814533_19287.png
bagnet33,1,22,NaN,clock,bicycle,c03,0022_cop_dnn_c03_bicycle_10_n02835271_3841.png
bagnet33,1,23,NaN,clock,clock,c15,0023_cop_dnn_c15_clock_10_n02708093_6696.png
bagnet33,1,24,NaN,airplane,bird,c01,0024_cop_dnn_c01_bird_10_n01829413_6393.png
bagnet33,1,25,NaN,airplane,clock,c01,0025_cop_dnn_c01_clock_10_n02708093_3484.png
bagnet33,1,26,NaN,airplane,chair,c05,0026_cop_dnn_c05_chair_10_n04429376_55163.png
bagnet33,1,27,NaN,boat,boat,c100,0027_cop_dnn_c100_boat_10_n02951358_14528.png
bagnet33,1,28,NaN,airplane,chair,c01,0028_cop_dnn_c01_chair_10_n03376595_9603.png
bagnet33,1,29,NaN,knife,bottle,c03,0029_cop_dnn_c03_bottle_10_n03937543_1840.png
bagnet33,1,30,NaN,airplane,car,c01,0030_cop_dnn_c01_car_10_n02814533_32835.png
bagnet33,1,31,NaN,boat,bird,c15,0031_cop_dnn_c15_bird_10_n01860187_38598.png
bagnet33,1,32,NaN,airplane,airplane,c100,0032_cop_dnn_c100_airplane_10_n02690373_9322.png
bagnet33,1,33,NaN,airplane,bicycle,c01,0033_cop_dnn_c01_bicycle_10_n02835271_1505.png
bagnet33,1,34,NaN,bicycle,bicycle,c50,0034_cop_dnn_c50_bicycle_10_n03792782_11023.png
bagnet33,1,35,NaN,elephant,elephant,c50,0035_cop_dnn_c50_elephant_10_n02504458_4909.png
bagnet33,1,36,NaN,boat,boat,c100,0036_cop_dnn_c100_boat_10_n03344393_646.png
bagnet33,1,37,NaN,boat,boat,c10,0037_cop_dnn_c10_boat_10_n04612504_2472.png
bagnet33,1,38,NaN,airplane,keyboard,c03,0038_cop_dnn_c03_keyboard_10_n03085013_4673.png
bagnet33,1,39,NaN,elephant,elephant,c100,0039_cop_dnn_c100_elephant_10_n02504458_1138.png
bagnet33,1,40,NaN,car,car,c100,0040_cop_dnn_c100_car_10_n03100240_5569.png
bagnet33,1,41,NaN,chair,dog,c100,0041_cop_dnn_c100_dog_10_n02107312_7422.png
bagnet33,1,42,NaN,bear,bear,c15,0042_cop_dnn_c15_bear_10_n02134084_24140.png
bagnet33,1,43,NaN,bottle,bottle,c100,0043_cop_dnn_c100_bottle_10_n04560804_14130.png
bagnet33,1,44,NaN,cat,cat,c30,0044_cop_dnn_c30_cat_10_n02124075_11970.png
bagnet33,1,45,NaN,airplane,dog,c03,0045_cop_dnn_c03_dog_10_n02093991_247.png
bagnet33,1,46,NaN,keyboard,keyboard,c100,0046_cop_dnn_c100_keyboard_10_n04505470_375.png
bagnet33,1,47,NaN,bear,bear,c100,0047_cop_dnn_c100_bear_10_n02134418_4372.png
bagnet33,1,48,NaN,airplane,boat,c01,0048_cop_dnn_c01_boat_10_n03344393_2838.png
bagnet33,1,49,NaN,clock,bicycle,c05,0049_cop_dnn_c05_bicycle_10_n02835271_4935.png
bagnet33,1,50,NaN,airplane,airplane,c50,0050_cop_dnn_c50_airplane_10_n02690373_5382.png
bagnet33,1,51,NaN,bottle,bottle,c100,0051_cop_dnn_c100_bottle_10_n03937543_2123.png
bagnet33,1,52,NaN,dog,dog,c30,0052_cop_dnn_c30_dog_10_n02097474_5234.png
bagnet33,1,53,NaN,bottle,bottle,c100,0053_cop_dnn_c100_bottle_10_n02823428_6050.png
bagnet33,1,54,NaN,bottle,clock,c15,0054_cop_dnn_c15_clock_10_n02708093_3743.png
bagnet33,1,55,NaN,airplane,knife,c03,0055_cop_dnn_c03_knife_10_n03041632_55083.png
bagnet33,1,56,NaN,knife,knife,c50,0056_cop_dnn_c50_knife_10_n03041632_41310.png
bagnet33,1,57,NaN,airplane,knife,c03,0057_cop_dnn_c03_knife_10_n03041632_99799.png
bagnet33,1,58,NaN,dog,dog,c15,0058_cop_dnn_c15_dog_10_n02094114_8231.png
bagnet33,1,59,NaN,airplane,chair,c01,0059_cop_dnn_c01_chair_10_n03376595_6173.png
bagnet33,1,60,NaN,airplane,oven,c05,0060_cop_dnn_c05_oven_10_n04111531_9297.png
bagnet33,1,61,NaN,airplane,car,c10,0061_cop_dnn_c10_car_10_n03100240_24420.png
bagnet33,1,62,NaN,elephant,elephant,c100,0062_cop_dnn_c100_elephant_10_n02504013_2340.png
bagnet33,1,63,NaN,knife,bicycle,c05,0063_cop_dnn_c05_bicycle_10_n02835271_10104.png
bagnet33,1,64,NaN,bottle,bicycle,c15,0064_cop_dnn_c15_bicycle_10_n03792782_7165.png
bagnet33,1,65,NaN,clock,knife,c10,0065_cop_dnn_c10_knife_10_n03041632_14817.png
bagnet33,1,66,NaN,clock,clock,c15,0066_cop_dnn_c15_clock_10_n02708093_118.png
bagnet33,1,67,NaN,airplane,airplane,c10,0067_cop_dnn_c10_airplane_10_n02690373_4298.png
bagnet33,1,68,NaN,knife,knife,c100,0068_cop_dnn_c100_knife_10_n03041632_50034.png
bagnet33,1,69,NaN,knife,chair,c03,0069_cop_dnn_c03_chair_10_n02791124_1333.png
bagnet33,1,70,NaN,airplane,clock,c01,0070_cop_dnn_c01_clock_10_n02708093_2318.png
bagnet33,1,71,NaN,airplane,elephant,c01,0071_cop_dnn_c01_elephant_10_n02504013_3864.png
bagnet33,1,72,NaN,chair,chair,c10,0072_cop_dnn_c10_chair_10_n04429376_56624.png
bagnet33,1,73,NaN,airplane,airplane,c30,0073_cop_dnn_c30_airplane_10_n02690373_7004.png
bagnet33,1,74,NaN,knife,oven,c30,0074_cop_dnn_c30_oven_10_n04111531_9692.png
bagnet33,1,75,NaN,airplane,truck,c50,0075_cop_dnn_c50_truck_10_n03796401_296.png
bagnet33,1,76,NaN,airplane,airplane,c15,0076_cop_dnn_c15_airplane_10_n02690373_1837.png
bagnet33,1,77,NaN,airplane,airplane,c03,0077_cop_dnn_c03_airplane_10_n02690373_10203.png
bagnet33,1,78,NaN,airplane,boat,c03,0078_cop_dnn_c03_boat_10_n02951358_34234.png
bagnet33,1,79,NaN,bicycle,bicycle,c100,0079_cop_dnn_c100_bicycle_10_n02835271_2885.png
bagnet33,1,80,NaN,airplane,airplane,c30,0080_cop_dnn_c30_airplane_10_n02690373_5247.png
bagnet33,1,81,NaN,clock,clock,c50,0081_cop_dnn_c50_clock_10_n02708093_596.png
bagnet33,1,82,NaN,airplane,chair,c01,0082_cop_dnn_c01_chair_10_n03376595_1364.png
bagnet33,1,83,NaN,airplane,cat,c03,0083_cop_dnn_c03_cat_10_n02124075_12430.png
bagnet33,1,84,NaN,knife,cat,c05,0084_cop_dnn_c05_cat_10_n02123159_5487.png
bagnet33,1,85,NaN,bicycle,bicycle,c50,0085_cop_dnn_c50_bicycle_10_n03792782_17571.png
bagnet33,1,86,NaN,cat,cat,c50,0086_cop_dnn_c50_cat_10_n02123159_6132.png
bagnet33,1,87,NaN,airplane,bottle,c05,0087_cop_dnn_c05_bottle_10_n03937543_2873.png
bagnet33,1,88,NaN,bottle,keyboard,c15,0088_cop_dnn_c15_keyboard_10_n04505470_1236.png
bagnet33,1,89,NaN,airplane,airplane,c01,0089_cop_dnn_c01_airplane_10_n02690373_4243.png
bagnet33,1,90,NaN,oven,oven,c30,0090_cop_dnn_c30_oven_10_n04111531_467.png
bagnet33,1,91,NaN,airplane,cat,c03,0091_cop_dnn_c03_cat_10_n02123394_2632.png
bagnet33,1,92,NaN,clock,chair,c15,0092_cop_dnn_c15_chair_10_n02791124_5268.png
bagnet33,1,93,NaN,bottle,knife,c100,0093_cop_dnn_c100_knife_10_n03041632_1143.png
bagnet33,1,94,NaN,chair,chair,c10,0094_cop_dnn_c10_chair_10_n02791124_1018.png
bagnet33,1,95,NaN,clock,bicycle,c05,0095_cop_dnn_c05_bicycle_10_n03792782_8057.png
bagnet33,1,96,NaN,bear,bear,c30,0096_cop_dnn_c30_bear_10_n02132136_1338.png
bagnet33,1,97,NaN,clock,clock,c05,0097_cop_dnn_c05_clock_10_n02708093_4798.png
bagnet33,1,98,NaN,airplane,truck,c01,0098_cop_dnn_c01_truck_10_n03796401_15046.png
bagnet33,1,99,NaN,chair,knife,c50,0099_cop_dnn_c50_knife_10_n03041632_13612.png
bagnet33,1,100,NaN,chair,oven,c10,0100_cop_dnn_c10_oven_10_n04111531_1898.png
bagnet33,1,101,NaN,knife,truck,c03,0101_cop_dnn_c03_truck_10_n04467665_28988.png
bagnet33,1,102,NaN,airplane,airplane,c100,0102_cop_dnn_c100_airplane_10_n02690373_736.png
bagnet33,1,103,NaN,dog,dog,c50,0103_cop_dnn_c50_dog_10_n02111500_5154.png
bagnet33,1,104,NaN,chair,bear,c50,0104_cop_dnn_c50_bear_10_n02133161_13461.png
bagnet33,1,105,NaN,dog,dog,c15,0105_cop_dnn_c15_dog_10_n02102318_11746.png
bagnet33,1,106,NaN,airplane,boat,c50,0106_cop_dnn_c50_boat_10_n03662601_12226.png
bagnet33,1,107,NaN,knife,keyboard,c05,0107_cop_dnn_c05_keyboard_10_n04505470_3207.png
bagnet33,1,108,NaN,bicycle,bicycle,c30,0108_cop_dnn_c30_bicycle_10_n03792782_2628.png
bagnet33,1,109,NaN,knife,chair,c01,0109_cop_dnn_c01_chair_10_n02791124_3204.png
bagnet33,1,110,NaN,knife,bottle,c03,0110_cop_dnn_c03_bottle_10_n04560804_722.png
bagnet33,1,111,NaN,bicycle,bicycle,c30,0111_cop_dnn_c30_bicycle_10_n03792782_8847.png
bagnet33,1,112,NaN,bear,bear,c50,0112_cop_dnn_c50_bear_10_n02132136_1132.png
bagnet33,1,113,NaN,knife,knife,c50,0113_cop_dnn_c50_knife_10_n03041632_6557.png
bagnet33,1,114,NaN,knife,knife,c100,0114_cop_dnn_c100_knife_10_n03041632_35116.png
bagnet33,1,115,NaN,car,car,c15,0115_cop_dnn_c15_car_10_n02814533_3117.png
bagnet33,1,116,NaN,knife,bird,c15,0116_cop_dnn_c15_bird_10_n02009229_4224.png
bagnet33,1,117,NaN,chair,chair,c50,0117_cop_dnn_c50_chair_10_n03376595_9247.png
bagnet33,1,118,NaN,airplane,boat,c01,0118_cop_dnn_c01_boat_10_n03662601_5639.png
bagnet33,1,119,NaN,boat,bicycle,c10,0119_cop_dnn_c10_bicycle_10_n02835271_13437.png
bagnet33,1,120,NaN,clock,bicycle,c05,0120_cop_dnn_c05_bicycle_10_n03792782_18294.png
bagnet33,1,121,NaN,knife,boat,c03,0121_cop_dnn_c03_boat_10_n02951358_10488.png
bagnet33,1,122,NaN,airplane,bird,c50,0122_cop_dnn_c50_bird_10_n01829413_14594.png
bagnet33,1,123,NaN,clock,clock,c100,0123_cop_dnn_c100_clock_10_n03196217_9197.png
bagnet33,1,124,NaN,boat,boat,c15,0124_cop_dnn_c15_boat_10_n03662601_1667.png
bagnet33,1,125,NaN,dog,dog,c50,0125_cop_dnn_c50_dog_10_n02092339_6946.png
bagnet33,1,126,NaN,airplane,airplane,c05,0126_cop_dnn_c05_airplane_10_n02690373_1773.png
bagnet33,1,127,NaN,bicycle,elephant,c50,0127_cop_dnn_c50_elephant_10_n02504013_4278.png
bagnet33,1,128,NaN,bird,bird,c100,0128_cop_dnn_c100_bird_10_n02025239_10194.png
bagnet33,1,129,NaN,knife,oven,c15,0129_cop_dnn_c15_oven_10_n04111531_1977.png
bagnet33,1,130,NaN,clock,clock,c50,0130_cop_dnn_c50_clock_10_n02708093_616.png
bagnet33,1,131,NaN,knife,boat,c10,0131_cop_dnn_c10_boat_10_n04273569_10292.png
bagnet33,1,132,NaN,cat,cat,c50,0132_cop_dnn_c50_cat_10_n02123394_8592.png
bagnet33,1,133,NaN,bottle,knife,c10,0133_cop_dnn_c10_knife_10_n03041632_16020.png
bagnet33,1,134,NaN,cat,cat,c30,0134_cop_dnn_c30_cat_10_n02123394_5466.png
bagnet33,1,135,NaN,airplane,elephant,c01,0135_cop_dnn_c01_elephant_10_n02504013_7351.png
bagnet33,1,136,NaN,bottle,oven,c50,0136_cop_dnn_c50_oven_10_n04111531_22388.png
bagnet33,1,137,NaN,chair,chair,c100,0137_cop_dnn_c100_chair_10_n04429376_6308.png
bagnet33,1,138,NaN,airplane,car,c10,0138_cop_dnn_c10_car_10_n03100240_8443.png
bagnet33,1,139,NaN,car,car,c100,0139_cop_dnn_c100_car_10_n04285008_12446.png
bagnet33,1,140,NaN,airplane,keyboard,c01,0140_cop_dnn_c01_keyboard_10_n04505470_4440.png
bagnet33,1,141,NaN,car,car,c10,0141_cop_dnn_c10_car_10_n04285008_10073.png
bagnet33,1,142,NaN,airplane,bottle,c03,0142_cop_dnn_c03_bottle_10_n03983396_7378.png
bagnet33,1,143,NaN,chair,chair,c15,0143_cop_dnn_c15_chair_10_n02791124_5706.png
bagnet33,1,144,NaN,cat,cat,c15,0144_cop_dnn_c15_cat_10_n02123045_11224.png
bagnet33,1,145,NaN,knife,chair,c05,0145_cop_dnn_c05_chair_10_n03376595_8953.png
bagnet33,1,146,NaN,bicycle,bicycle,c50,0146_cop_dnn_c50_bicycle_10_n03792782_66048.png
bagnet33,1,147,NaN,knife,dog,c01,0147_cop_dnn_c01_dog_10_n02104365_1123.png
bagnet33,1,148,NaN,knife,clock,c05,0148_cop_dnn_c05_clock_10_n03196217_3605.png
bagnet33,1,149,NaN,knife,knife,c10,0149_cop_dnn_c10_knife_10_n03041632_14916.png
bagnet33,1,150,NaN,bear,bear,c10,0150_cop_dnn_c10_bear_10_n02132136_4101.png
bagnet33,1,151,NaN,knife,clock,c01,0151_cop_dnn_c01_clock_10_n02708093_7929.png
bagnet33,1,152,NaN,chair,chair,c50,0152_cop_dnn_c50_chair_10_n02791124_7630.png
bagnet33,1,153,NaN,airplane,clock,c05,0153_cop_dnn_c05_clock_10_n02708093_3750.png
bagnet33,1,154,NaN,knife,bird,c01,0154_cop_dnn_c01_bird_10_n02037110_12288.png
bagnet33,1,155,NaN,keyboard,keyboard,c05,0155_cop_dnn_c05_keyboard_10_n04505470_6080.png
bagnet33,1,156,NaN,keyboard,keyboard,c100,0156_cop_dnn_c100_keyboard_10_n03085013_19065.png
bagnet33,1,157,NaN,knife,cat,c10,0157_cop_dnn_c10_cat_10_n02123159_4856.png
bagnet33,1,158,NaN,knife,chair,c01,0158_cop_dnn_c01_chair_10_n04099969_6913.png
bagnet33,1,159,NaN,knife,knife,c30,0159_cop_dnn_c30_knife_10_n03041632_35764.png
bagnet33,1,160,NaN,truck,truck,c30,0160_cop_dnn_c30_truck_10_n03796401_3012.png
bagnet33,1,161,NaN,boat,elephant,c10,0161_cop_dnn_c10_elephant_10_n02504013_3821.png
bagnet33,1,162,NaN,truck,truck,c100,0162_cop_dnn_c100_truck_10_n03796401_3608.png
bagnet33,1,163,NaN,chair,chair,c15,0163_cop_dnn_c15_chair_10_n04099969_13811.png
bagnet33,1,164,NaN,bear,bear,c50,0164_cop_dnn_c50_bear_10_n02133161_4954.png
bagnet33,1,165,NaN,cat,dog,c15,0165_cop_dnn_c15_dog_10_n02085782_6792.png
bagnet33,1,166,NaN,knife,oven,c05,0166_cop_dnn_c05_oven_10_n04111531_22886.png
bagnet33,1,167,NaN,knife,dog,c05,0167_cop_dnn_c05_dog_10_n02091831_510.png
bagnet33,1,168,NaN,bear,bear,c15,0168_cop_dnn_c15_bear_10_n02132136_11339.png
bagnet33,1,169,NaN,keyboard,bottle,c15,0169_cop_dnn_c15_bottle_10_n04557648_2709.png
bagnet33,1,170,NaN,airplane,keyboard,c03,0170_cop_dnn_c03_keyboard_10_n03085013_21447.png
bagnet33,1,171,NaN,airplane,airplane,c30,0171_cop_dnn_c30_airplane_10_n02690373_7676.png
bagnet33,1,172,NaN,dog,dog,c100,0172_cop_dnn_c100_dog_10_n02091831_4110.png
bagnet33,1,173,NaN,airplane,bird,c10,0173_cop_dnn_c10_bird_10_n02007558_16029.png
bagnet33,1,174,NaN,airplane,truck,c30,0174_cop_dnn_c30_truck_10_n03796401_15097.png
bagnet33,1,175,NaN,airplane,airplane,c30,0175_cop_dnn_c30_airplane_10_n02690373_7401.png
bagnet33,1,176,NaN,bottle,dog,c05,0176_cop_dnn_c05_dog_10_n02108422_4529.png
bagnet33,1,177,NaN,bear,bear,c10,0177_cop_dnn_c10_bear_10_n02132136_10514.png
bagnet33,1,178,NaN,knife,airplane,c03,0178_cop_dnn_c03_airplane_10_n02690373_5524.png
bagnet33,1,179,NaN,chair,chair,c100,0179_cop_dnn_c100_chair_10_n04429376_5965.png
bagnet33,1,180,NaN,airplane,airplane,c15,0180_cop_dnn_c15_airplane_10_n02690373_9712.png
bagnet33,1,181,NaN,airplane,boat,c30,0181_cop_dnn_c30_boat_10_n02951358_29825.png
bagnet33,1,182,NaN,airplane,keyboard,c03,0182_cop_dnn_c03_keyboard_10_n04505470_4887.png
bagnet33,1,183,NaN,knife,truck,c01,0183_cop_dnn_c01_truck_10_n04467665_32090.png
bagnet33,1,184,NaN,bottle,chair,c05,0184_cop_dnn_c05_chair_10_n02791124_4296.png
bagnet33,1,185,NaN,boat,boat,c30,0185_cop_dnn_c30_boat_10_n04612504_14669.png
bagnet33,1,186,NaN,airplane,airplane,c03,0186_cop_dnn_c03_airplane_10_n02690373_891.png
bagnet33,1,187,NaN,clock,clock,c100,0187_cop_dnn_c100_clock_10_n04548280_7539.png
bagnet33,1,188,NaN,bear,bear,c30,0188_cop_dnn_c30_bear_10_n02134418_4717.png
bagnet33,1,189,NaN,knife,bird,c03,0189_cop_dnn_c03_bird_10_n02002724_13195.png
bagnet33,1,190,NaN,bottle,bottle,c10,0190_cop_dnn_c10_bottle_10_n03937543_2494.png
bagnet33,1,191,NaN,clock,clock,c30,0191_cop_dnn_c30_clock_10_n03196217_2307.png
bagnet33,1,192,NaN,clock,clock,c15,0192_cop_dnn_c15_clock_10_n04548280_17907.png
bagnet33,1,193,NaN,knife,chair,c03,0193_cop_dnn_c03_chair_10_n03376595_6540.png
bagnet33,1,194,NaN,cat,cat,c30,0194_cop_dnn_c30_cat_10_n02123045_1484.png
bagnet33,1,195,NaN,airplane,knife,c03,0195_cop_dnn_c03_knife_10_n03041632_89912.png
bagnet33,1,196,NaN,bottle,bottle,c05,0196_cop_dnn_c05_bottle_10_n04591713_6975.png
bagnet33,1,197,NaN,bird,bird,c50,0197_cop_dnn_c50_bird_10_n01860187_810.png
bagnet33,1,198,NaN,airplane,oven,c03,0198_cop_dnn_c03_oven_10_n04111531_5967.png
bagnet33,1,199,NaN,boat,boat,c15,0199_cop_dnn_c15_boat_10_n04612504_18954.png
bagnet33,1,200,NaN,clock,bicycle,c10,0200_cop_dnn_c10_bicycle_10_n03792782_68259.png
bagnet33,1,201,NaN,airplane,car,c03,0201_cop_dnn_c03_car_10_n04285008_296.png
bagnet33,1,202,NaN,airplane,airplane,c03,0202_cop_dnn_c03_airplane_10_n02690373_12929.png
bagnet33,1,203,NaN,knife,boat,c01,0203_cop_dnn_c01_boat_10_n03344393_8761.png
bagnet33,1,204,NaN,clock,clock,c30,0204_cop_dnn_c30_clock_10_n03196217_3877.png
bagnet33,1,205,NaN,chair,bear,c10,0205_cop_dnn_c10_bear_10_n02134084_1346.png
bagnet33,1,206,NaN,airplane,knife,c03,0206_cop_dnn_c03_knife_10_n03041632_48151.png
bagnet33,1,207,NaN,airplane,airplane,c50,0207_cop_dnn_c50_airplane_10_n02690373_3589.png
bagnet33,1,208,NaN,clock,bottle,c50,0208_cop_dnn_c50_bottle_10_n04560804_2942.png
bagnet33,1,209,NaN,clock,keyboard,c03,0209_cop_dnn_c03_keyboard_10_n04505470_5022.png
bagnet33,1,210,NaN,dog,dog,c10,0210_cop_dnn_c10_dog_10_n02096294_1043.png
bagnet33,1,211,NaN,airplane,airplane,c50,0211_cop_dnn_c50_airplane_10_n02690373_1350.png
bagnet33,1,212,NaN,knife,chair,c03,0212_cop_dnn_c03_chair_10_n04099969_27865.png
bagnet33,1,213,NaN,knife,oven,c01,0213_cop_dnn_c01_oven_10_n04111531_22120.png
bagnet33,1,214,NaN,elephant,elephant,c50,0214_cop_dnn_c50_elephant_10_n02504458_5600.png
bagnet33,1,215,NaN,knife,cat,c03,0215_cop_dnn_c03_cat_10_n02123597_11138.png
bagnet33,1,216,NaN,bear,cat,c30,0216_cop_dnn_c30_cat_10_n02125311_5717.png
bagnet33,1,217,NaN,clock,chair,c15,0217_cop_dnn_c15_chair_10_n02791124_11404.png
bagnet33,1,218,NaN,cat,cat,c100,0218_cop_dnn_c100_cat_10_n02123394_2984.png
bagnet33,1,219,NaN,knife,dog,c10,0219_cop_dnn_c10_dog_10_n02087394_9693.png
bagnet33,1,220,NaN,knife,dog,c01,0220_cop_dnn_c01_dog_10_n02098105_2086.png
bagnet33,1,221,NaN,knife,cat,c10,0221_cop_dnn_c10_cat_10_n02123159_6932.png
bagnet33,1,222,NaN,knife,car,c15,0222_cop_dnn_c15_car_10_n04285008_8323.png
bagnet33,1,223,NaN,knife,truck,c01,0223_cop_dnn_c01_truck_10_n03796401_2226.png
bagnet33,1,224,NaN,airplane,bear,c05,0224_cop_dnn_c05_bear_10_n02134084_6223.png
bagnet33,1,225,NaN,knife,cat,c05,0225_cop_dnn_c05_cat_10_n02125311_22459.png
bagnet33,1,226,NaN,knife,bicycle,c10,0226_cop_dnn_c10_bicycle_10_n02835271_19143.png
bagnet33,1,227,NaN,airplane,cat,c10,0227_cop_dnn_c10_cat_10_n02123597_4357.png
bagnet33,1,228,NaN,airplane,boat,c03,0228_cop_dnn_c03_boat_10_n04273569_6180.png
bagnet33,1,229,NaN,airplane,airplane,c100,0229_cop_dnn_c100_airplane_10_n02690373_139.png
bagnet33,1,230,NaN,clock,bottle,c10,0230_cop_dnn_c10_bottle_10_n04557648_4165.png
bagnet33,1,231,NaN,bottle,bottle,c50,0231_cop_dnn_c50_bottle_10_n04560804_5756.png
bagnet33,1,232,NaN,truck,truck,c15,0232_cop_dnn_c15_truck_10_n04467665_39477.png
bagnet33,1,233,NaN,airplane,cat,c01,0233_cop_dnn_c01_cat_10_n02123159_386.png
bagnet33,1,234,NaN,bear,bear,c15,0234_cop_dnn_c15_bear_10_n02134084_4859.png
bagnet33,1,235,NaN,airplane,dog,c03,0235_cop_dnn_c03_dog_10_n02099429_1992.png
bagnet33,1,236,NaN,airplane,oven,c03,0236_cop_dnn_c03_oven_10_n04111531_584.png
bagnet33,1,237,NaN,knife,bottle,c05,0237_cop_dnn_c05_bottle_10_n04591713_4019.png
bagnet33,1,238,NaN,airplane,dog,c03,0238_cop_dnn_c03_dog_10_n02113712_4486.png
bagnet33,1,239,NaN,bottle,chair,c50,0239_cop_dnn_c50_chair_10_n03376595_13018.png
bagnet33,1,240,NaN,dog,oven,c50,0240_cop_dnn_c50_oven_10_n04111531_7421.png
bagnet33,1,241,NaN,knife,cat,c01,0241_cop_dnn_c01_cat_10_n02123045_10689.png
bagnet33,1,242,NaN,clock,clock,c05,0242_cop_dnn_c05_clock_10_n02708093_4391.png
bagnet33,1,243,NaN,clock,clock,c50,0243_cop_dnn_c50_clock_10_n02708093_3759.png
bagnet33,1,244,NaN,clock,elephant,c05,0244_cop_dnn_c05_elephant_10_n02504013_648.png
bagnet33,1,245,NaN,airplane,bottle,c01,0245_cop_dnn_c01_bottle_10_n04591713_1879.png
bagnet33,1,246,NaN,airplane,dog,c01,0246_cop_dnn_c01_dog_10_n02110627_20194.png
bagnet33,1,247,NaN,truck,truck,c50,0247_cop_dnn_c50_truck_10_n03796401_13298.png
bagnet33,1,248,NaN,chair,chair,c100,0248_cop_dnn_c100_chair_10_n03376595_7824.png
bagnet33,1,249,NaN,airplane,bear,c05,0249_cop_dnn_c05_bear_10_n02134418_6252.png
bagnet33,1,250,NaN,bird,bird,c50,0250_cop_dnn_c50_bird_10_n01855032_1815.png
bagnet33,1,251,NaN,car,car,c100,0251_cop_dnn_c100_car_10_n03100240_6773.png
bagnet33,1,252,NaN,knife,keyboard,c03,0252_cop_dnn_c03_keyboard_10_n03085013_22438.png
bagnet33,1,253,NaN,knife,keyboard,c01,0253_cop_dnn_c01_keyboard_10_n04505470_4950.png
bagnet33,1,254,NaN,airplane,truck,c03,0254_cop_dnn_c03_truck_10_n04467665_22358.png
bagnet33,1,255,NaN,airplane,truck,c15,0255_cop_dnn_c15_truck_10_n04467665_67969.png
bagnet33,1,256,NaN,clock,elephant,c10,0256_cop_dnn_c10_elephant_10_n02504013_2128.png
bagnet33,1,257,NaN,airplane,car,c30,0257_cop_dnn_c30_car_10_n03100240_3499.png
bagnet33,1,258,NaN,bear,bear,c50,0258_cop_dnn_c50_bear_10_n02134084_7250.png
bagnet33,1,259,NaN,bicycle,bicycle,c15,0259_cop_dnn_c15_bicycle_10_n03792782_43279.png
bagnet33,1,260,NaN,cat,cat,c50,0260_cop_dnn_c50_cat_10_n02123045_1274.png
bagnet33,1,261,NaN,oven,oven,c100,0261_cop_dnn_c100_oven_10_n04111531_6567.png
bagnet33,1,262,NaN,knife,knife,c100,0262_cop_dnn_c100_knife_10_n03041632_86338.png
bagnet33,1,263,NaN,bottle,chair,c15,0263_cop_dnn_c15_chair_10_n02791124_9757.png
bagnet33,1,264,NaN,knife,knife,c15,0264_cop_dnn_c15_knife_10_n03041632_45090.png
bagnet33,1,265,NaN,airplane,bicycle,c01,0265_cop_dnn_c01_bicycle_10_n02835271_1436.png
bagnet33,1,266,NaN,airplane,bird,c03,0266_cop_dnn_c03_bird_10_n01798484_8189.png
bagnet33,1,267,NaN,knife,bird,c15,0267_cop_dnn_c15_bird_10_n01819313_1282.png
bagnet33,1,268,NaN,bottle,bottle,c100,0268_cop_dnn_c100_bottle_10_n03983396_11519.png
bagnet33,1,269,NaN,knife,boat,c05,0269_cop_dnn_c05_boat_10_n03344393_7735.png
bagnet33,1,270,NaN,knife,bottle,c05,0270_cop_dnn_c05_bottle_10_n04560804_21795.png
bagnet33,1,271,NaN,chair,chair,c30,0271_cop_dnn_c30_chair_10_n02791124_4109.png
bagnet33,1,272,NaN,knife,keyboard,c03,0272_cop_dnn_c03_keyboard_10_n04505470_9663.png
bagnet33,1,273,NaN,airplane,knife,c15,0273_cop_dnn_c15_knife_10_n03041632_27709.png
bagnet33,1,274,NaN,airplane,airplane,c50,0274_cop_dnn_c50_airplane_10_n02690373_8539.png
bagnet33,1,275,NaN,bear,bear,c15,0275_cop_dnn_c15_bear_10_n02134418_2175.png
bagnet33,1,276,NaN,elephant,elephant,c50,0276_cop_dnn_c50_elephant_10_n02504458_2875.png
bagnet33,1,277,NaN,airplane,chair,c03,0277_cop_dnn_c03_chair_10_n02791124_5868.png
bagnet33,1,278,NaN,cat,cat,c10,0278_cop_dnn_c10_cat_10_n02123597_488.png
bagnet33,1,279,NaN,chair,oven,c30,0279_cop_dnn_c30_oven_10_n04111531_6500.png
bagnet33,1,280,NaN,bicycle,bicycle,c15,0280_cop_dnn_c15_bicycle_10_n03792782_13002.png
bagnet33,1,281,NaN,knife,clock,c05,0281_cop_dnn_c05_clock_10_n03196217_10641.png
bagnet33,1,282,NaN,airplane,bicycle,c15,0282_cop_dnn_c15_bicycle_10_n03792782_20193.png
bagnet33,1,283,NaN,clock,truck,c05,0283_cop_dnn_c05_truck_10_n03417042_13806.png
bagnet33,1,284,NaN,airplane,truck,c05,0284_cop_dnn_c05_truck_10_n04467665_70237.png
bagnet33,1,285,NaN,airplane,truck,c01,0285_cop_dnn_c01_truck_10_n04467665_3720.png
bagnet33,1,286,NaN,elephant,bear,c10,0286_cop_dnn_c10_bear_10_n02132136_8975.png
bagnet33,1,287,NaN,knife,knife,c05,0287_cop_dnn_c05_knife_10_n03041632_18859.png
bagnet33,1,288,NaN,elephant,bear,c50,0288_cop_dnn_c50_bear_10_n02132136_29760.png
bagnet33,1,289,NaN,airplane,boat,c05,0289_cop_dnn_c05_boat_10_n04273569_6586.png
bagnet33,1,290,NaN,bottle,bottle,c05,0290_cop_dnn_c05_bottle_10_n03983396_11137.png
bagnet33,1,291,NaN,knife,clock,c10,0291_cop_dnn_c10_clock_10_n03196217_4232.png
bagnet33,1,292,NaN,knife,clock,c01,0292_cop_dnn_c01_clock_10_n04548280_1325.png
bagnet33,1,293,NaN,airplane,airplane,c100,0293_cop_dnn_c100_airplane_10_n02690373_2268.png
bagnet33,1,294,NaN,clock,bicycle,c10,0294_cop_dnn_c10_bicycle_10_n03792782_14557.png
bagnet33,1,295,NaN,knife,cat,c01,0295_cop_dnn_c01_cat_10_n02124075_13792.png
bagnet33,1,296,NaN,airplane,dog,c01,0296_cop_dnn_c01_dog_10_n02110185_14953.png
bagnet33,1,297,NaN,boat,bottle,c15,0297_cop_dnn_c15_bottle_10_n04557648_1634.png
bagnet33,1,298,NaN,bicycle,bicycle,c50,0298_cop_dnn_c50_bicycle_10_n02835271_1701.png
bagnet33,1,299,NaN,airplane,boat,c05,0299_cop_dnn_c05_boat_10_n04273569_7312.png
bagnet33,1,300,NaN,bird,bird,c100,0300_cop_dnn_c100_bird_10_n01616318_5417.png
bagnet33,1,301,NaN,cat,cat,c15,0301_cop_dnn_c15_cat_10_n02123045_12200.png
bagnet33,1,302,NaN,boat,dog,c30,0302_cop_dnn_c30_dog_10_n02102480_8264.png
bagnet33,1,303,NaN,bicycle,bicycle,c30,0303_cop_dnn_c30_bicycle_10_n03792782_5426.png
bagnet33,1,304,NaN,airplane,clock,c05,0304_cop_dnn_c05_clock_10_n02708093_8038.png
bagnet33,1,305,NaN,airplane,bicycle,c30,0305_cop_dnn_c30_bicycle_10_n02835271_2764.png
bagnet33,1,306,NaN,knife,knife,c50,0306_cop_dnn_c50_knife_10_n03041632_39836.png
bagnet33,1,307,NaN,airplane,bicycle,c01,0307_cop_dnn_c01_bicycle_10_n03792782_19040.png
bagnet33,1,308,NaN,airplane,cat,c01,0308_cop_dnn_c01_cat_10_n02125311_28331.png
bagnet33,1,309,NaN,knife,knife,c01,0309_cop_dnn_c01_knife_10_n03041632_18126.png
bagnet33,1,310,NaN,bicycle,bicycle,c30,0310_cop_dnn_c30_bicycle_10_n03792782_19253.png
bagnet33,1,311,NaN,airplane,bottle,c01,0311_cop_dnn_c01_bottle_10_n03983396_751.png
bagnet33,1,312,NaN,airplane,car,c15,0312_cop_dnn_c15_car_10_n04285008_628.png
bagnet33,1,313,NaN,clock,boat,c15,0313_cop_dnn_c15_boat_10_n03662601_3011.png
bagnet33,1,314,NaN,bottle,bottle,c10,0314_cop_dnn_c10_bottle_10_n04557648_2904.png
bagnet33,1,315,NaN,boat,bird,c10,0315_cop_dnn_c10_bird_10_n02002556_9804.png
bagnet33,1,316,NaN,airplane,truck,c05,0316_cop_dnn_c05_truck_10_n04467665_8955.png
bagnet33,1,317,NaN,airplane,boat,c03,0317_cop_dnn_c03_boat_10_n04612504_15061.png
bagnet33,1,318,NaN,airplane,bird,c05,0318_cop_dnn_c05_bird_10_n02002556_1437.png
bagnet33,1,319,NaN,airplane,truck,c50,0319_cop_dnn_c50_truck_10_n03417042_10993.png
bagnet33,1,320,NaN,airplane,chair,c10,0320_cop_dnn_c10_chair_10_n02791124_880.png
bagnet33,1,321,NaN,bicycle,bicycle,c50,0321_cop_dnn_c50_bicycle_10_n03792782_4826.png
bagnet33,1,322,NaN,airplane,chair,c03,0322_cop_dnn_c03_chair_10_n04099969_3804.png
bagnet33,1,323,NaN,bottle,bottle,c10,0323_cop_dnn_c10_bottle_10_n02823428_2504.png
bagnet33,1,324,NaN,cat,cat,c10,0324_cop_dnn_c10_cat_10_n02124075_9716.png
bagnet33,1,325,NaN,airplane,knife,c01,0325_cop_dnn_c01_knife_10_n03041632_81630.png
bagnet33,1,326,NaN,bottle,bottle,c30,0326_cop_dnn_c30_bottle_10_n04591713_457.png
bagnet33,1,327,NaN,boat,elephant,c30,0327_cop_dnn_c30_elephant_10_n02504458_5337.png
bagnet33,1,328,NaN,clock,clock,c15,0328_cop_dnn_c15_clock_10_n02708093_5429.png
bagnet33,1,329,NaN,oven,oven,c100,0329_cop_dnn_c100_oven_10_n04111531_9411.png
bagnet33,1,330,NaN,knife,knife,c01,0330_cop_dnn_c01_knife_10_n03041632_2338.png
bagnet33,1,331,NaN,cat,cat,c100,0331_cop_dnn_c100_cat_10_n02123394_2755.png
bagnet33,1,332,NaN,airplane,elephant,c05,0332_cop_dnn_c05_elephant_10_n02504458_10243.png
bagnet33,1,333,NaN,clock,oven,c15,0333_cop_dnn_c15_oven_10_n04111531_1752.png
bagnet33,1,334,NaN,airplane,bird,c05,0334_cop_dnn_c05_bird_10_n02037110_6736.png
bagnet33,1,335,NaN,airplane,airplane,c10,0335_cop_dnn_c10_airplane_10_n02690373_8804.png
bagnet33,1,336,NaN,elephant,elephant,c100,0336_cop_dnn_c100_elephant_10_n02504458_12217.png
bagnet33,1,337,NaN,clock,knife,c15,0337_cop_dnn_c15_knife_10_n03041632_84012.png
bagnet33,1,338,NaN,dog,dog,c50,0338_cop_dnn_c50_dog_10_n02093991_6192.png
bagnet33,1,339,NaN,bird,bird,c50,0339_cop_dnn_c50_bird_10_n02027492_6499.png
bagnet33,1,340,NaN,knife,knife,c10,0340_cop_dnn_c10_knife_10_n03041632_46185.png
bagnet33,1,341,NaN,knife,bear,c30,0341_cop_dnn_c30_bear_10_n02134084_14775.png
bagnet33,1,342,NaN,airplane,truck,c30,0342_cop_dnn_c30_truck_10_n03417042_5346.png
bagnet33,1,343,NaN,dog,dog,c30,0343_cop_dnn_c30_dog_10_n02093991_9672.png
bagnet33,1,344,NaN,elephant,elephant,c100,0344_cop_dnn_c100_elephant_10_n02504458_2031.png
bagnet33,1,345,NaN,airplane,bird,c03,0345_cop_dnn_c03_bird_10_n02025239_660.png
bagnet33,1,346,NaN,airplane,elephant,c01,0346_cop_dnn_c01_elephant_10_n02504458_4244.png
bagnet33,1,347,NaN,knife,elephant,c30,0347_cop_dnn_c30_elephant_10_n02504013_7539.png
bagnet33,1,348,NaN,clock,bird,c03,0348_cop_dnn_c03_bird_10_n02002724_5876.png
bagnet33,1,349,NaN,bird,bird,c10,0349_cop_dnn_c10_bird_10_n01532829_560.png
bagnet33,1,350,NaN,boat,boat,c30,0350_cop_dnn_c30_boat_10_n04273569_1709.png
bagnet33,1,351,NaN,bicycle,bicycle,c50,0351_cop_dnn_c50_bicycle_10_n02835271_7958.png
bagnet33,1,352,NaN,boat,bear,c30,0352_cop_dnn_c30_bear_10_n02133161_12157.png
bagnet33,1,353,NaN,knife,chair,c01,0353_cop_dnn_c01_chair_10_n04099969_4577.png
bagnet33,1,354,NaN,airplane,bicycle,c01,0354_cop_dnn_c01_bicycle_10_n02835271_10283.png
bagnet33,1,355,NaN,truck,truck,c100,0355_cop_dnn_c100_truck_10_n03417042_23815.png
bagnet33,1,356,NaN,airplane,bear,c03,0356_cop_dnn_c03_bear_10_n02133161_1059.png
bagnet33,1,357,NaN,airplane,chair,c01,0357_cop_dnn_c01_chair_10_n02791124_5173.png
bagnet33,1,358,NaN,bottle,bottle,c30,0358_cop_dnn_c30_bottle_10_n03983396_5545.png
bagnet33,1,359,NaN,airplane,airplane,c01,0359_cop_dnn_c01_airplane_10_n02690373_1797.png
bagnet33,1,360,NaN,knife,oven,c05,0360_cop_dnn_c05_oven_10_n04111531_6628.png
bagnet33,1,361,NaN,knife,elephant,c10,0361_cop_dnn_c10_elephant_10_n02504458_7817.png
bagnet33,1,362,NaN,knife,knife,c50,0362_cop_dnn_c50_knife_10_n03041632_4714.png
bagnet33,1,363,NaN,knife,bear,c03,0363_cop_dnn_c03_bear_10_n02134084_169.png
bagnet33,1,364,NaN,bird,bird,c15,0364_cop_dnn_c15_bird_10_n02013706_8336.png
bagnet33,1,365,NaN,bottle,bottle,c15,0365_cop_dnn_c15_bottle_10_n04579145_6880.png
bagnet33,1,366,NaN,knife,dog,c05,0366_cop_dnn_c05_dog_10_n02105641_416.png
bagnet33,1,367,NaN,airplane,airplane,c10,0367_cop_dnn_c10_airplane_10_n02690373_6549.png
bagnet33,1,368,NaN,airplane,clock,c01,0368_cop_dnn_c01_clock_10_n04548280_2374.png
bagnet33,1,369,NaN,bottle,bottle,c30,0369_cop_dnn_c30_bottle_10_n03983396_6287.png
bagnet33,1,370,NaN,airplane,dog,c01,0370_cop_dnn_c01_dog_10_n02090622_1126.png
bagnet33,1,371,NaN,truck,truck,c50,0371_cop_dnn_c50_truck_10_n03796401_1681.png
bagnet33,1,372,NaN,elephant,elephant,c30,0372_cop_dnn_c30_elephant_10_n02504013_5537.png
bagnet33,1,373,NaN,knife,keyboard,c05,0373_cop_dnn_c05_keyboard_10_n03085013_12399.png
bagnet33,1,374,NaN,bottle,oven,c15,0374_cop_dnn_c15_oven_10_n04111531_6094.png
bagnet33,1,375,NaN,knife,airplane,c03,0375_cop_dnn_c03_airplane_10_n02690373_13604.png
bagnet33,1,376,NaN,bear,bear,c100,0376_cop_dnn_c100_bear_10_n02134084_16084.png
bagnet33,1,377,NaN,knife,boat,c01,0377_cop_dnn_c01_boat_10_n04273569_15906.png
bagnet33,1,378,NaN,airplane,dog,c05,0378_cop_dnn_c05_dog_10_n02105162_8899.png
bagnet33,1,379,NaN,knife,oven,c03,0379_cop_dnn_c03_oven_10_n04111531_7619.png
bagnet33,1,380,NaN,clock,elephant,c05,0380_cop_dnn_c05_elephant_10_n02504458_1816.png
bagnet33,1,381,NaN,oven,cat,c30,0381_cop_dnn_c30_cat_10_n02123045_3575.png
bagnet33,1,382,NaN,airplane,truck,c01,0382_cop_dnn_c01_truck_10_n03417042_908.png
bagnet33,1,383,NaN,airplane,boat,c03,0383_cop_dnn_c03_boat_10_n03344393_4213.png
bagnet33,1,384,NaN,airplane,knife,c01,0384_cop_dnn_c01_knife_10_n03041632_31483.png
bagnet33,1,385,NaN,knife,bottle,c01,0385_cop_dnn_c01_bottle_10_n03937543_986.png
bagnet33,1,386,NaN,airplane,truck,c15,0386_cop_dnn_c15_truck_10_n03796401_7381.png
bagnet33,1,387,NaN,airplane,dog,c03,0387_cop_dnn_c03_dog_10_n02094433_9787.png
bagnet33,1,388,NaN,bottle,bird,c30,0388_cop_dnn_c30_bird_10_n02011460_11838.png
bagnet33,1,389,NaN,cat,cat,c30,0389_cop_dnn_c30_cat_10_n02123597_29513.png
bagnet33,1,390,NaN,bottle,chair,c10,0390_cop_dnn_c10_chair_10_n04429376_5337.png
bagnet33,1,391,NaN,knife,knife,c03,0391_cop_dnn_c03_knife_10_n03041632_4260.png
bagnet33,1,392,NaN,airplane,keyboard,c10,0392_cop_dnn_c10_keyboard_10_n04505470_4061.png
bagnet33,1,393,NaN,boat,boat,c15,0393_cop_dnn_c15_boat_10_n03344393_6467.png
bagnet33,1,394,NaN,bicycle,bicycle,c100,0394_cop_dnn_c100_bicycle_10_n03792782_11297.png
bagnet33,1,395,NaN,airplane,bicycle,c03,0395_cop_dnn_c03_bicycle_10_n03792782_8357.png
bagnet33,1,396,NaN,bottle,dog,c10,0396_cop_dnn_c10_dog_10_n02108422_2739.png
bagnet33,1,397,NaN,airplane,bear,c03,0397_cop_dnn_c03_bear_10_n02134084_6840.png
bagnet33,1,398,NaN,elephant,bear,c30,0398_cop_dnn_c30_bear_10_n02133161_5365.png
bagnet33,1,399,NaN,bottle,bottle,c30,0399_cop_dnn_c30_bottle_10_n04560804_1010.png
bagnet33,1,400,NaN,clock,clock,c10,0400_cop_dnn_c10_clock_10_n04548280_183.png
bagnet33,1,401,NaN,clock,keyboard,c100,0401_cop_dnn_c100_keyboard_10_n03085013_21534.png
bagnet33,1,402,NaN,keyboard,keyboard,c50,0402_cop_dnn_c50_keyboard_10_n03085013_24111.png
bagnet33,1,403,NaN,knife,knife,c15,0403_cop_dnn_c15_knife_10_n03041632_28009.png
bagnet33,1,404,NaN,cat,cat,c50,0404_cop_dnn_c50_cat_10_n02123159_7647.png
bagnet33,1,405,NaN,airplane,bottle,c01,0405_cop_dnn_c01_bottle_10_n02823428_8696.png
bagnet33,1,406,NaN,clock,elephant,c15,0406_cop_dnn_c15_elephant_10_n02504458_8923.png
bagnet33,1,407,NaN,airplane,bear,c01,0407_cop_dnn_c01_bear_10_n02134084_5031.png
bagnet33,1,408,NaN,elephant,dog,c50,0408_cop_dnn_c50_dog_10_n02097209_1658.png
bagnet33,1,409,NaN,knife,dog,c05,0409_cop_dnn_c05_dog_10_n02099849_6384.png
bagnet33,1,410,NaN,elephant,elephant,c15,0410_cop_dnn_c15_elephant_10_n02504013_3459.png
bagnet33,1,411,NaN,knife,knife,c03,0411_cop_dnn_c03_knife_10_n03041632_36390.png
bagnet33,1,412,NaN,knife,knife,c100,0412_cop_dnn_c100_knife_10_n03041632_10263.png
bagnet33,1,413,NaN,clock,cat,c03,0413_cop_dnn_c03_cat_10_n02123045_840.png
bagnet33,1,414,NaN,knife,clock,c05,0414_cop_dnn_c05_clock_10_n04548280_4758.png
bagnet33,1,415,NaN,elephant,bear,c50,0415_cop_dnn_c50_bear_10_n02133161_1247.png
bagnet33,1,416,NaN,airplane,airplane,c10,0416_cop_dnn_c10_airplane_10_n02690373_6716.png
bagnet33,1,417,NaN,keyboard,keyboard,c30,0417_cop_dnn_c30_keyboard_10_n04505470_4893.png
bagnet33,1,418,NaN,chair,chair,c30,0418_cop_dnn_c30_chair_10_n04099969_34525.png
bagnet33,1,419,NaN,knife,airplane,c01,0419_cop_dnn_c01_airplane_10_n02690373_4793.png
bagnet33,1,420,NaN,knife,knife,c15,0420_cop_dnn_c15_knife_10_n03041632_4787.png
bagnet33,1,421,NaN,airplane,boat,c05,0421_cop_dnn_c05_boat_10_n04273569_20587.png
bagnet33,1,422,NaN,airplane,bicycle,c03,0422_cop_dnn_c03_bicycle_10_n03792782_4844.png
bagnet33,1,423,NaN,airplane,cat,c01,0423_cop_dnn_c01_cat_10_n02123045_6066.png
bagnet33,1,424,NaN,boat,boat,c30,0424_cop_dnn_c30_boat_10_n04273569_17045.png
bagnet33,1,425,NaN,keyboard,keyboard,c100,0425_cop_dnn_c100_keyboard_10_n04505470_5068.png
bagnet33,1,426,NaN,airplane,airplane,c10,0426_cop_dnn_c10_airplane_10_n02690373_2724.png
bagnet33,1,427,NaN,boat,boat,c10,0427_cop_dnn_c10_boat_10_n03662601_4844.png
bagnet33,1,428,NaN,chair,chair,c100,0428_cop_dnn_c100_chair_10_n04099969_3929.png
bagnet33,1,429,NaN,truck,oven,c10,0429_cop_dnn_c10_oven_10_n04111531_9026.png
bagnet33,1,430,NaN,knife,knife,c15,0430_cop_dnn_c15_knife_10_n03041632_51225.png
bagnet33,1,431,NaN,airplane,boat,c10,0431_cop_dnn_c10_boat_10_n03344393_6638.png
bagnet33,1,432,NaN,knife,knife,c30,0432_cop_dnn_c30_knife_10_n03041632_4590.png
bagnet33,1,433,NaN,knife,clock,c03,0433_cop_dnn_c03_clock_10_n02708093_3761.png
bagnet33,1,434,NaN,knife,car,c03,0434_cop_dnn_c03_car_10_n04285008_3193.png
bagnet33,1,435,NaN,keyboard,keyboard,c50,0435_cop_dnn_c50_keyboard_10_n03085013_661.png
bagnet33,1,436,NaN,airplane,bottle,c03,0436_cop_dnn_c03_bottle_10_n04557648_2355.png
bagnet33,1,437,NaN,chair,dog,c30,0437_cop_dnn_c30_dog_10_n02107312_860.png
bagnet33,1,438,NaN,boat,boat,c100,0438_cop_dnn_c100_boat_10_n02951358_1541.png
bagnet33,1,439,NaN,airplane,boat,c15,0439_cop_dnn_c15_boat_10_n02951358_4972.png
bagnet33,1,440,NaN,bear,bear,c15,0440_cop_dnn_c15_bear_10_n02132136_6352.png
bagnet33,1,441,NaN,airplane,knife,c05,0441_cop_dnn_c05_knife_10_n03041632_27022.png
bagnet33,1,442,NaN,airplane,airplane,c15,0442_cop_dnn_c15_airplane_10_n02690373_10399.png
bagnet33,1,443,NaN,chair,keyboard,c30,0443_cop_dnn_c30_keyboard_10_n04505470_4803.png
bagnet33,1,444,NaN,knife,bottle,c03,0444_cop_dnn_c03_bottle_10_n03937543_4916.png
bagnet33,1,445,NaN,knife,dog,c10,0445_cop_dnn_c10_dog_10_n02092339_2268.png
bagnet33,1,446,NaN,cat,cat,c100,0446_cop_dnn_c100_cat_10_n02123394_2034.png
bagnet33,1,447,NaN,airplane,keyboard,c01,0447_cop_dnn_c01_keyboard_10_n03085013_24442.png
bagnet33,1,448,NaN,airplane,bicycle,c03,0448_cop_dnn_c03_bicycle_10_n03792782_12908.png
bagnet33,1,449,NaN,cat,cat,c50,0449_cop_dnn_c50_cat_10_n02124075_10241.png
bagnet33,1,450,NaN,airplane,keyboard,c03,0450_cop_dnn_c03_keyboard_10_n03085013_29941.png
bagnet33,1,451,NaN,airplane,car,c05,0451_cop_dnn_c05_car_10_n03100240_5718.png
bagnet33,1,452,NaN,airplane,bear,c01,0452_cop_dnn_c01_bear_10_n02133161_789.png
bagnet33,1,453,NaN,chair,chair,c30,0453_cop_dnn_c30_chair_10_n04099969_9891.png
bagnet33,1,454,NaN,airplane,knife,c01,0454_cop_dnn_c01_knife_10_n03041632_8666.png
bagnet33,1,455,NaN,knife,car,c10,0455_cop_dnn_c10_car_10_n03100240_52.png
bagnet33,1,456,NaN,bird,bird,c10,0456_cop_dnn_c10_bird_10_n02007558_45529.png
bagnet33,1,457,NaN,airplane,airplane,c15,0457_cop_dnn_c15_airplane_10_n02690373_1933.png
bagnet33,1,458,NaN,airplane,elephant,c03,0458_cop_dnn_c03_elephant_10_n02504013_1879.png
bagnet33,1,459,NaN,airplane,car,c10,0459_cop_dnn_c10_car_10_n03100240_3373.png
bagnet33,1,460,NaN,bird,bicycle,c15,0460_cop_dnn_c15_bicycle_10_n03792782_7331.png
bagnet33,1,461,NaN,chair,chair,c100,0461_cop_dnn_c100_chair_10_n03376595_11049.png
bagnet33,1,462,NaN,knife,knife,c50,0462_cop_dnn_c50_knife_10_n03041632_37274.png
bagnet33,1,463,NaN,bottle,bottle,c15,0463_cop_dnn_c15_bottle_10_n02823428_780.png
bagnet33,1,464,NaN,knife,cat,c05,0464_cop_dnn_c05_cat_10_n02123045_390.png
bagnet33,1,465,NaN,bird,bird,c30,0465_cop_dnn_c30_bird_10_n01796340_10024.png
bagnet33,1,466,NaN,knife,knife,c05,0466_cop_dnn_c05_knife_10_n03041632_13509.png
bagnet33,1,467,NaN,airplane,bird,c05,0467_cop_dnn_c05_bird_10_n01534433_14198.png
bagnet33,1,468,NaN,chair,chair,c100,0468_cop_dnn_c100_chair_10_n04099969_2502.png
bagnet33,1,469,NaN,cat,cat,c05,0469_cop_dnn_c05_cat_10_n02123045_15474.png
bagnet33,1,470,NaN,clock,clock,c30,0470_cop_dnn_c30_clock_10_n02708093_442.png
bagnet33,1,471,NaN,boat,boat,c100,0471_cop_dnn_c100_boat_10_n02951358_12663.png
bagnet33,1,472,NaN,knife,cat,c05,0472_cop_dnn_c05_cat_10_n02125311_37322.png
bagnet33,1,473,NaN,bicycle,bird,c100,0473_cop_dnn_c100_bird_10_n01558993_5185.png
bagnet33,1,474,NaN,elephant,elephant,c100,0474_cop_dnn_c100_elephant_10_n02504013_7248.png
bagnet33,1,475,NaN,knife,bottle,c01,0475_cop_dnn_c01_bottle_10_n02823428_4245.png
bagnet33,1,476,NaN,chair,chair,c10,0476_cop_dnn_c10_chair_10_n04099969_8993.png
bagnet33,1,477,NaN,dog,dog,c30,0477_cop_dnn_c30_dog_10_n02101388_8775.png
bagnet33,1,478,NaN,airplane,car,c01,0478_cop_dnn_c01_car_10_n02814533_3590.png
bagnet33,1,479,NaN,knife,elephant,c05,0479_cop_dnn_c05_elephant_10_n02504458_6018.png
bagnet33,1,480,NaN,keyboard,keyboard,c100,0480_cop_dnn_c100_keyboard_10_n03085013_11332.png
bagnet33,1,481,NaN,clock,oven,c05,0481_cop_dnn_c05_oven_10_n04111531_6863.png
bagnet33,1,482,NaN,airplane,airplane,c50,0482_cop_dnn_c50_airplane_10_n02690373_2675.png
bagnet33,1,483,NaN,airplane,dog,c01,0483_cop_dnn_c01_dog_10_n02106550_660.png
bagnet33,1,484,NaN,knife,knife,c15,0484_cop_dnn_c15_knife_10_n03041632_11700.png
bagnet33,1,485,NaN,bird,bird,c15,0485_cop_dnn_c15_bird_10_n02009229_6149.png
bagnet33,1,486,NaN,clock,clock,c30,0486_cop_dnn_c30_clock_10_n03196217_3780.png
bagnet33,1,487,NaN,bird,bird,c100,0487_cop_dnn_c100_bird_10_n01530575_34173.png
bagnet33,1,488,NaN,bottle,bottle,c100,0488_cop_dnn_c100_bottle_10_n03983396_17803.png
bagnet33,1,489,NaN,knife,oven,c05,0489_cop_dnn_c05_oven_10_n04111531_2156.png
bagnet33,1,490,NaN,elephant,elephant,c10,0490_cop_dnn_c10_elephant_10_n02504013_14948.png
bagnet33,1,491,NaN,airplane,boat,c01,0491_cop_dnn_c01_boat_10_n04273569_3112.png
bagnet33,1,492,NaN,bird,bird,c50,0492_cop_dnn_c50_bird_10_n01560419_6583.png
bagnet33,1,493,NaN,keyboard,keyboard,c50,0493_cop_dnn_c50_keyboard_10_n03085013_19161.png
bagnet33,1,494,NaN,knife,bird,c05,0494_cop_dnn_c05_bird_10_n01616318_57023.png
bagnet33,1,495,NaN,truck,truck,c50,0495_cop_dnn_c50_truck_10_n04467665_69176.png
bagnet33,1,496,NaN,car,car,c50,0496_cop_dnn_c50_car_10_n03100240_4971.png
bagnet33,1,497,NaN,airplane,oven,c01,0497_cop_dnn_c01_oven_10_n04111531_4901.png
bagnet33,1,498,NaN,bear,bear,c30,0498_cop_dnn_c30_bear_10_n02133161_4091.png
bagnet33,1,499,NaN,airplane,cat,c03,0499_cop_dnn_c03_cat_10_n02123394_4164.png
bagnet33,1,500,NaN,airplane,bird,c03,0500_cop_dnn_c03_bird_10_n02017213_689.png
bagnet33,1,501,NaN,chair,dog,c100,0501_cop_dnn_c100_dog_10_n02109047_14207.png
bagnet33,1,502,NaN,knife,elephant,c05,0502_cop_dnn_c05_elephant_10_n02504013_8347.png
bagnet33,1,503,NaN,bottle,bottle,c30,0503_cop_dnn_c30_bottle_10_n04591713_1652.png
bagnet33,1,504,NaN,knife,oven,c15,0504_cop_dnn_c15_oven_10_n04111531_22403.png
bagnet33,1,505,NaN,airplane,airplane,c100,0505_cop_dnn_c100_airplane_10_n02690373_6046.png
bagnet33,1,506,NaN,bear,bear,c15,0506_cop_dnn_c15_bear_10_n02134084_1689.png
bagnet33,1,507,NaN,oven,oven,c30,0507_cop_dnn_c30_oven_10_n04111531_14269.png
bagnet33,1,508,NaN,cat,cat,c100,0508_cop_dnn_c100_cat_10_n02123597_9444.png
bagnet33,1,509,NaN,bear,bear,c10,0509_cop_dnn_c10_bear_10_n02134418_128.png
bagnet33,1,510,NaN,airplane,airplane,c30,0510_cop_dnn_c30_airplane_10_n02690373_8789.png
bagnet33,1,511,NaN,airplane,bottle,c01,0511_cop_dnn_c01_bottle_10_n03937543_10092.png
bagnet33,1,512,NaN,knife,clock,c03,0512_cop_dnn_c03_clock_10_n02708093_7257.png
bagnet33,1,513,NaN,bear,bear,c100,0513_cop_dnn_c100_bear_10_n02134084_21207.png
bagnet33,1,514,NaN,knife,bird,c05,0514_cop_dnn_c05_bird_10_n01797886_12811.png
bagnet33,1,515,NaN,airplane,oven,c01,0515_cop_dnn_c01_oven_10_n04111531_21248.png
bagnet33,1,516,NaN,knife,dog,c15,0516_cop_dnn_c15_dog_10_n02090379_5574.png
bagnet33,1,517,NaN,airplane,car,c15,0517_cop_dnn_c15_car_10_n04285008_8443.png
bagnet33,1,518,NaN,car,car,c100,0518_cop_dnn_c100_car_10_n03100240_15647.png
bagnet33,1,519,NaN,chair,chair,c50,0519_cop_dnn_c50_chair_10_n02791124_5824.png
bagnet33,1,520,NaN,airplane,bear,c05,0520_cop_dnn_c05_bear_10_n02133161_9949.png
bagnet33,1,521,NaN,airplane,elephant,c03,0521_cop_dnn_c03_elephant_10_n02504458_5320.png
bagnet33,1,522,NaN,airplane,keyboard,c01,0522_cop_dnn_c01_keyboard_10_n04505470_1904.png
bagnet33,1,523,NaN,oven,oven,c100,0523_cop_dnn_c100_oven_10_n04111531_4685.png
bagnet33,1,524,NaN,airplane,truck,c05,0524_cop_dnn_c05_truck_10_n03417042_2230.png
bagnet33,1,525,NaN,knife,bottle,c15,0525_cop_dnn_c15_bottle_10_n04591713_6842.png
bagnet33,1,526,NaN,boat,boat,c50,0526_cop_dnn_c50_boat_10_n02951358_8285.png
bagnet33,1,527,NaN,knife,knife,c01,0527_cop_dnn_c01_knife_10_n03041632_48675.png
bagnet33,1,528,NaN,airplane,oven,c01,0528_cop_dnn_c01_oven_10_n04111531_14435.png
bagnet33,1,529,NaN,cat,cat,c50,0529_cop_dnn_c50_cat_10_n02123159_8273.png
bagnet33,1,530,NaN,bird,bird,c50,0530_cop_dnn_c50_bird_10_n01614925_1908.png
bagnet33,1,531,NaN,knife,knife,c05,0531_cop_dnn_c05_knife_10_n03041632_96345.png
bagnet33,1,532,NaN,knife,knife,c10,0532_cop_dnn_c10_knife_10_n03041632_31037.png
bagnet33,1,533,NaN,airplane,airplane,c50,0533_cop_dnn_c50_airplane_10_n02690373_1436.png
bagnet33,1,534,NaN,chair,chair,c100,0534_cop_dnn_c100_chair_10_n04099969_28072.png
bagnet33,1,535,NaN,knife,boat,c01,0535_cop_dnn_c01_boat_10_n04612504_19983.png
bagnet33,1,536,NaN,clock,oven,c15,0536_cop_dnn_c15_oven_10_n04111531_8255.png
bagnet33,1,537,NaN,boat,bear,c15,0537_cop_dnn_c15_bear_10_n02132136_1574.png
bagnet33,1,538,NaN,boat,boat,c100,0538_cop_dnn_c100_boat_10_n04273569_24747.png
bagnet33,1,539,NaN,dog,dog,c30,0539_cop_dnn_c30_dog_10_n02113799_18413.png
bagnet33,1,540,NaN,boat,boat,c15,0540_cop_dnn_c15_boat_10_n04273569_28333.png
bagnet33,1,541,NaN,airplane,bird,c01,0541_cop_dnn_c01_bird_10_n02017213_2183.png
bagnet33,1,542,NaN,boat,boat,c50,0542_cop_dnn_c50_boat_10_n04273569_26139.png
bagnet33,1,543,NaN,knife,knife,c03,0543_cop_dnn_c03_knife_10_n03041632_29684.png
bagnet33,1,544,NaN,boat,boat,c100,0544_cop_dnn_c100_boat_10_n02951358_3087.png
bagnet33,1,545,NaN,keyboard,keyboard,c15,0545_cop_dnn_c15_keyboard_10_n03085013_13615.png
bagnet33,1,546,NaN,knife,oven,c03,0546_cop_dnn_c03_oven_10_n04111531_1778.png
bagnet33,1,547,NaN,airplane,dog,c03,0547_cop_dnn_c03_dog_10_n02097474_9129.png
bagnet33,1,548,NaN,bird,bird,c30,0548_cop_dnn_c30_bird_10_n02013706_19220.png
bagnet33,1,549,NaN,clock,clock,c100,0549_cop_dnn_c100_clock_10_n03196217_7199.png
bagnet33,1,550,NaN,bear,bear,c50,0550_cop_dnn_c50_bear_10_n02132136_27823.png
bagnet33,1,551,NaN,knife,boat,c03,0551_cop_dnn_c03_boat_10_n03662601_6462.png
bagnet33,1,552,NaN,airplane,knife,c15,0552_cop_dnn_c15_knife_10_n03041632_11773.png
bagnet33,1,553,NaN,airplane,clock,c01,0553_cop_dnn_c01_clock_10_n02708093_7998.png
bagnet33,1,554,NaN,elephant,elephant,c30,0554_cop_dnn_c30_elephant_10_n02504458_3409.png
bagnet33,1,555,NaN,knife,bottle,c01,0555_cop_dnn_c01_bottle_10_n04560804_24166.png
bagnet33,1,556,NaN,cat,cat,c15,0556_cop_dnn_c15_cat_10_n02125311_17613.png
bagnet33,1,557,NaN,knife,bicycle,c05,0557_cop_dnn_c05_bicycle_10_n03792782_5284.png
bagnet33,1,558,NaN,airplane,oven,c10,0558_cop_dnn_c10_oven_10_n04111531_13006.png
bagnet33,1,559,NaN,knife,oven,c10,0559_cop_dnn_c10_oven_10_n04111531_8309.png
bagnet33,1,560,NaN,clock,clock,c10,0560_cop_dnn_c10_clock_10_n04548280_8390.png
bagnet33,1,561,NaN,truck,truck,c50,0561_cop_dnn_c50_truck_10_n04467665_7110.png
bagnet33,1,562,NaN,airplane,clock,c10,0562_cop_dnn_c10_clock_10_n03196217_8020.png
bagnet33,1,563,NaN,elephant,elephant,c100,0563_cop_dnn_c100_elephant_10_n02504458_7955.png
bagnet33,1,564,NaN,airplane,elephant,c01,0564_cop_dnn_c01_elephant_10_n02504458_1022.png
bagnet33,1,565,NaN,clock,clock,c100,0565_cop_dnn_c100_clock_10_n04548280_2383.png
bagnet33,1,566,NaN,knife,bird,c50,0566_cop_dnn_c50_bird_10_n02002724_7019.png
bagnet33,1,567,NaN,cat,cat,c100,0567_cop_dnn_c100_cat_10_n02125311_1127.png
bagnet33,1,568,NaN,knife,bicycle,c05,0568_cop_dnn_c05_bicycle_10_n02835271_6481.png
bagnet33,1,569,NaN,car,car,c15,0569_cop_dnn_c15_car_10_n04285008_5208.png
bagnet33,1,570,NaN,oven,oven,c50,0570_cop_dnn_c50_oven_10_n04111531_8658.png
bagnet33,1,571,NaN,knife,bottle,c05,0571_cop_dnn_c05_bottle_10_n04579145_2910.png
bagnet33,1,572,NaN,airplane,truck,c01,0572_cop_dnn_c01_truck_10_n04467665_22414.png
bagnet33,1,573,NaN,knife,elephant,c15,0573_cop_dnn_c15_elephant_10_n02504013_5439.png
bagnet33,1,574,NaN,cat,cat,c10,0574_cop_dnn_c10_cat_10_n02123159_5945.png
bagnet33,1,575,NaN,bottle,bottle,c10,0575_cop_dnn_c10_bottle_10_n04557648_2426.png
bagnet33,1,576,NaN,clock,bicycle,c05,0576_cop_dnn_c05_bicycle_10_n03792782_38641.png
bagnet33,1,577,NaN,knife,dog,c30,0577_cop_dnn_c30_dog_10_n02110958_15843.png
bagnet33,1,578,NaN,keyboard,keyboard,c15,0578_cop_dnn_c15_keyboard_10_n04505470_5161.png
bagnet33,1,579,NaN,airplane,airplane,c30,0579_cop_dnn_c30_airplane_10_n02690373_8350.png
bagnet33,1,580,NaN,airplane,bicycle,c05,0580_cop_dnn_c05_bicycle_10_n03792782_10129.png
bagnet33,1,581,NaN,car,car,c100,0581_cop_dnn_c100_car_10_n02814533_26369.png
bagnet33,1,582,NaN,chair,oven,c10,0582_cop_dnn_c10_oven_10_n04111531_10077.png
bagnet33,1,583,NaN,airplane,oven,c01,0583_cop_dnn_c01_oven_10_n04111531_12702.png
bagnet33,1,584,NaN,clock,clock,c100,0584_cop_dnn_c100_clock_10_n03196217_8618.png
bagnet33,1,585,NaN,bottle,bottle,c10,0585_cop_dnn_c10_bottle_10_n03983396_4227.png
bagnet33,1,586,NaN,bottle,bottle,c30,0586_cop_dnn_c30_bottle_10_n03983396_9090.png
bagnet33,1,587,NaN,bear,bear,c100,0587_cop_dnn_c100_bear_10_n02133161_223.png
bagnet33,1,588,NaN,keyboard,keyboard,c50,0588_cop_dnn_c50_keyboard_10_n04505470_1047.png
bagnet33,1,589,NaN,airplane,elephant,c03,0589_cop_dnn_c03_elephant_10_n02504013_7467.png
bagnet33,1,590,NaN,elephant,elephant,c30,0590_cop_dnn_c30_elephant_10_n02504013_476.png
bagnet33,1,591,NaN,chair,chair,c100,0591_cop_dnn_c100_chair_10_n02791124_12707.png
bagnet33,1,592,NaN,airplane,bird,c01,0592_cop_dnn_c01_bird_10_n01537544_22049.png
bagnet33,1,593,NaN,knife,bicycle,c05,0593_cop_dnn_c05_bicycle_10_n02835271_4220.png
bagnet33,1,594,NaN,boat,truck,c10,0594_cop_dnn_c10_truck_10_n03417042_7530.png
bagnet33,1,595,NaN,airplane,bear,c03,0595_cop_dnn_c03_bear_10_n02134418_12457.png
bagnet33,1,596,NaN,bottle,bottle,c50,0596_cop_dnn_c50_bottle_10_n04557648_10265.png
bagnet33,1,597,NaN,airplane,clock,c15,0597_cop_dnn_c15_clock_10_n02708093_2025.png
bagnet33,1,598,NaN,chair,chair,c15,0598_cop_dnn_c15_chair_10_n03376595_1961.png
bagnet33,1,599,NaN,chair,bear,c05,0599_cop_dnn_c05_bear_10_n02134084_67.png
bagnet33,1,600,NaN,cat,cat,c50,0600_cop_dnn_c50_cat_10_n02123045_455.png
bagnet33,1,601,NaN,truck,car,c10,0601_cop_dnn_c10_car_10_n03100240_13929.png
bagnet33,1,602,NaN,airplane,elephant,c10,0602_cop_dnn_c10_elephant_10_n02504458_4997.png
bagnet33,1,603,NaN,airplane,airplane,c10,0603_cop_dnn_c10_airplane_10_n02690373_5344.png
bagnet33,1,604,NaN,knife,oven,c01,0604_cop_dnn_c01_oven_10_n04111531_797.png
bagnet33,1,605,NaN,boat,boat,c30,0605_cop_dnn_c30_boat_10_n04273569_3085.png
bagnet33,1,606,NaN,oven,oven,c100,0606_cop_dnn_c100_oven_10_n04111531_9113.png
bagnet33,1,607,NaN,boat,boat,c03,0607_cop_dnn_c03_boat_10_n03662601_18803.png
bagnet33,1,608,NaN,airplane,truck,c03,0608_cop_dnn_c03_truck_10_n04467665_30581.png
bagnet33,1,609,NaN,elephant,elephant,c30,0609_cop_dnn_c30_elephant_10_n02504013_5237.png
bagnet33,1,610,NaN,keyboard,keyboard,c100,0610_cop_dnn_c100_keyboard_10_n03085013_12175.png
bagnet33,1,611,NaN,chair,chair,c30,0611_cop_dnn_c30_chair_10_n02791124_5401.png
bagnet33,1,612,NaN,boat,boat,c50,0612_cop_dnn_c50_boat_10_n02951358_22332.png
bagnet33,1,613,NaN,airplane,knife,c03,0613_cop_dnn_c03_knife_10_n03041632_11932.png
bagnet33,1,614,NaN,cat,cat,c30,0614_cop_dnn_c30_cat_10_n02123159_5257.png
bagnet33,1,615,NaN,bottle,bottle,c50,0615_cop_dnn_c50_bottle_10_n03983396_105.png
bagnet33,1,616,NaN,boat,boat,c50,0616_cop_dnn_c50_boat_10_n04612504_11939.png
bagnet33,1,617,NaN,boat,boat,c30,0617_cop_dnn_c30_boat_10_n03662601_5575.png
bagnet33,1,618,NaN,knife,cat,c05,0618_cop_dnn_c05_cat_10_n02123159_6590.png
bagnet33,1,619,NaN,bear,bear,c50,0619_cop_dnn_c50_bear_10_n02134084_21462.png
bagnet33,1,620,NaN,knife,cat,c05,0620_cop_dnn_c05_cat_10_n02125311_46330.png
bagnet33,1,621,NaN,knife,cat,c01,0621_cop_dnn_c01_cat_10_n02123394_4714.png
bagnet33,1,622,NaN,knife,knife,c30,0622_cop_dnn_c30_knife_10_n03041632_1671.png
bagnet33,1,623,NaN,truck,truck,c50,0623_cop_dnn_c50_truck_10_n04467665_30901.png
bagnet33,1,624,NaN,dog,dog,c100,0624_cop_dnn_c100_dog_10_n02104029_4704.png
bagnet33,1,625,NaN,keyboard,keyboard,c15,0625_cop_dnn_c15_keyboard_10_n03085013_3665.png
bagnet33,1,626,NaN,airplane,bird,c01,0626_cop_dnn_c01_bird_10_n01820546_1616.png
bagnet33,1,627,NaN,airplane,keyboard,c30,0627_cop_dnn_c30_keyboard_10_n04505470_8754.png
bagnet33,1,628,NaN,airplane,oven,c05,0628_cop_dnn_c05_oven_10_n04111531_8688.png
bagnet33,1,629,NaN,knife,oven,c10,0629_cop_dnn_c10_oven_10_n04111531_13862.png
bagnet33,1,630,NaN,knife,truck,c03,0630_cop_dnn_c03_truck_10_n04467665_9266.png
bagnet33,1,631,NaN,chair,chair,c30,0631_cop_dnn_c30_chair_10_n03376595_1024.png
bagnet33,1,632,NaN,bottle,bottle,c30,0632_cop_dnn_c30_bottle_10_n02823428_4468.png
bagnet33,1,633,NaN,airplane,truck,c15,0633_cop_dnn_c15_truck_10_n03796401_4154.png
bagnet33,1,634,NaN,dog,dog,c50,0634_cop_dnn_c50_dog_10_n02087046_4421.png
bagnet33,1,635,NaN,airplane,car,c05,0635_cop_dnn_c05_car_10_n03100240_9011.png
bagnet33,1,636,NaN,knife,bird,c15,0636_cop_dnn_c15_bird_10_n02011460_2417.png
bagnet33,1,637,NaN,bottle,bottle,c100,0637_cop_dnn_c100_bottle_10_n04557648_988.png
bagnet33,1,638,NaN,knife,cat,c05,0638_cop_dnn_c05_cat_10_n02123159_5205.png
bagnet33,1,639,NaN,boat,oven,c15,0639_cop_dnn_c15_oven_10_n04111531_23215.png
bagnet33,1,640,NaN,knife,truck,c05,0640_cop_dnn_c05_truck_10_n03796401_20641.png
bagnet33,1,641,NaN,airplane,boat,c15,0641_cop_dnn_c15_boat_10_n03662601_16412.png
bagnet33,1,642,NaN,airplane,airplane,c15,0642_cop_dnn_c15_airplane_10_n02690373_1952.png
bagnet33,1,643,NaN,airplane,dog,c05,0643_cop_dnn_c05_dog_10_n02086079_37199.png
bagnet33,1,644,NaN,airplane,airplane,c10,0644_cop_dnn_c10_airplane_10_n02690373_4375.png
bagnet33,1,645,NaN,airplane,bird,c15,0645_cop_dnn_c15_bird_10_n01592084_4764.png
bagnet33,1,646,NaN,knife,knife,c30,0646_cop_dnn_c30_knife_10_n03041632_44269.png
bagnet33,1,647,NaN,elephant,elephant,c30,0647_cop_dnn_c30_elephant_10_n02504013_1258.png
bagnet33,1,648,NaN,airplane,airplane,c30,0648_cop_dnn_c30_airplane_10_n02690373_6138.png
bagnet33,1,649,NaN,airplane,chair,c03,0649_cop_dnn_c03_chair_10_n04099969_9713.png
bagnet33,1,650,NaN,airplane,bicycle,c01,0650_cop_dnn_c01_bicycle_10_n02835271_8212.png
bagnet33,1,651,NaN,keyboard,keyboard,c50,0651_cop_dnn_c50_keyboard_10_n03085013_14279.png
bagnet33,1,652,NaN,knife,bottle,c01,0652_cop_dnn_c01_bottle_10_n04591713_5364.png
bagnet33,1,653,NaN,knife,bird,c15,0653_cop_dnn_c15_bird_10_n01819313_4045.png
bagnet33,1,654,NaN,knife,bird,c10,0654_cop_dnn_c10_bird_10_n02009229_263.png
bagnet33,1,655,NaN,cat,cat,c30,0655_cop_dnn_c30_cat_10_n02123394_2285.png
bagnet33,1,656,NaN,knife,clock,c05,0656_cop_dnn_c05_clock_10_n04548280_2559.png
bagnet33,1,657,NaN,airplane,elephant,c01,0657_cop_dnn_c01_elephant_10_n02504458_4137.png
bagnet33,1,658,NaN,knife,knife,c01,0658_cop_dnn_c01_knife_10_n03041632_206.png
bagnet33,1,659,NaN,airplane,truck,c10,0659_cop_dnn_c10_truck_10_n03417042_5604.png
bagnet33,1,660,NaN,bottle,bottle,c15,0660_cop_dnn_c15_bottle_10_n03983396_1629.png
bagnet33,1,661,NaN,airplane,keyboard,c10,0661_cop_dnn_c10_keyboard_10_n03085013_16359.png
bagnet33,1,662,NaN,airplane,oven,c15,0662_cop_dnn_c15_oven_10_n04111531_8305.png
bagnet33,1,663,NaN,knife,truck,c03,0663_cop_dnn_c03_truck_10_n04467665_276.png
bagnet33,1,664,NaN,airplane,car,c03,0664_cop_dnn_c03_car_10_n04285008_7950.png
bagnet33,1,665,NaN,knife,dog,c30,0665_cop_dnn_c30_dog_10_n02108422_293.png
bagnet33,1,666,NaN,clock,bear,c15,0666_cop_dnn_c15_bear_10_n02132136_2451.png
bagnet33,1,667,NaN,car,car,c30,0667_cop_dnn_c30_car_10_n03100240_17245.png
bagnet33,1,668,NaN,knife,knife,c05,0668_cop_dnn_c05_knife_10_n03041632_29886.png
bagnet33,1,669,NaN,airplane,truck,c50,0669_cop_dnn_c50_truck_10_n03417042_3952.png
bagnet33,1,670,NaN,airplane,truck,c01,0670_cop_dnn_c01_truck_10_n03417042_17645.png
bagnet33,1,671,NaN,oven,oven,c100,0671_cop_dnn_c100_oven_10_n04111531_23264.png
bagnet33,1,672,NaN,elephant,elephant,c50,0672_cop_dnn_c50_elephant_10_n02504458_4580.png
bagnet33,1,673,NaN,airplane,cat,c01,0673_cop_dnn_c01_cat_10_n02123597_8052.png
bagnet33,1,674,NaN,bear,bear,c100,0674_cop_dnn_c100_bear_10_n02134418_1218.png
bagnet33,1,675,NaN,airplane,boat,c01,0675_cop_dnn_c01_boat_10_n04273569_661.png
bagnet33,1,676,NaN,knife,airplane,c01,0676_cop_dnn_c01_airplane_10_n02690373_5266.png
bagnet33,1,677,NaN,bottle,keyboard,c15,0677_cop_dnn_c15_keyboard_10_n04505470_4761.png
bagnet33,1,678,NaN,knife,oven,c10,0678_cop_dnn_c10_oven_10_n04111531_14279.png
bagnet33,1,679,NaN,clock,clock,c50,0679_cop_dnn_c50_clock_10_n03196217_3006.png
bagnet33,1,680,NaN,elephant,elephant,c15,0680_cop_dnn_c15_elephant_10_n02504458_2607.png
bagnet33,1,681,NaN,truck,truck,c100,0681_cop_dnn_c100_truck_10_n03417042_3338.png
bagnet33,1,682,NaN,car,car,c30,0682_cop_dnn_c30_car_10_n02814533_5183.png
bagnet33,1,683,NaN,truck,truck,c100,0683_cop_dnn_c100_truck_10_n03417042_7365.png
bagnet33,1,684,NaN,knife,knife,c100,0684_cop_dnn_c100_knife_10_n03041632_29037.png
bagnet33,1,685,NaN,car,car,c15,0685_cop_dnn_c15_car_10_n03100240_10096.png
bagnet33,1,686,NaN,bottle,keyboard,c05,0686_cop_dnn_c05_keyboard_10_n04505470_1929.png
bagnet33,1,687,NaN,airplane,chair,c01,0687_cop_dnn_c01_chair_10_n04099969_10266.png
bagnet33,1,688,NaN,airplane,car,c01,0688_cop_dnn_c01_car_10_n02814533_83665.png
bagnet33,1,689,NaN,airplane,truck,c03,0689_cop_dnn_c03_truck_10_n03417042_751.png
bagnet33,1,690,NaN,knife,keyboard,c05,0690_cop_dnn_c05_keyboard_10_n03085013_2227.png
bagnet33,1,691,NaN,car,car,c50,0691_cop_dnn_c50_car_10_n03100240_2528.png
bagnet33,1,692,NaN,bottle,bottle,c50,0692_cop_dnn_c50_bottle_10_n03937543_8197.png
bagnet33,1,693,NaN,boat,boat,c30,0693_cop_dnn_c30_boat_10_n04273569_10099.png
bagnet33,1,694,NaN,airplane,knife,c03,0694_cop_dnn_c03_knife_10_n03041632_25479.png
bagnet33,1,695,NaN,airplane,oven,c03,0695_cop_dnn_c03_oven_10_n04111531_13795.png
bagnet33,1,696,NaN,knife,bear,c05,0696_cop_dnn_c05_bear_10_n02132136_22835.png
bagnet33,1,697,NaN,bottle,dog,c15,0697_cop_dnn_c15_dog_10_n02090379_4952.png
bagnet33,1,698,NaN,airplane,boat,c03,0698_cop_dnn_c03_boat_10_n02951358_29817.png
bagnet33,1,699,NaN,airplane,airplane,c10,0699_cop_dnn_c10_airplane_10_n02690373_4115.png
bagnet33,1,700,NaN,car,car,c100,0700_cop_dnn_c100_car_10_n03100240_13707.png
bagnet33,1,701,NaN,keyboard,keyboard,c50,0701_cop_dnn_c50_keyboard_10_n04505470_3117.png
bagnet33,1,702,NaN,airplane,truck,c15,0702_cop_dnn_c15_truck_10_n04467665_66065.png
bagnet33,1,703,NaN,keyboard,keyboard,c10,0703_cop_dnn_c10_keyboard_10_n03085013_8325.png
bagnet33,1,704,NaN,knife,truck,c03,0704_cop_dnn_c03_truck_10_n04467665_52595.png
bagnet33,1,705,NaN,bicycle,bicycle,c100,0705_cop_dnn_c100_bicycle_10_n03792782_15557.png
bagnet33,1,706,NaN,knife,knife,c05,0706_cop_dnn_c05_knife_10_n03041632_34676.png
bagnet33,1,707,NaN,airplane,airplane,c05,0707_cop_dnn_c05_airplane_10_n02690373_5729.png
bagnet33,1,708,NaN,boat,boat,c100,0708_cop_dnn_c100_boat_10_n03662601_11901.png
bagnet33,1,709,NaN,bicycle,bicycle,c30,0709_cop_dnn_c30_bicycle_10_n03792782_10526.png
bagnet33,1,710,NaN,airplane,truck,c10,0710_cop_dnn_c10_truck_10_n04467665_53339.png
bagnet33,1,711,NaN,boat,boat,c100,0711_cop_dnn_c100_boat_10_n04273569_12214.png
bagnet33,1,712,NaN,bottle,bottle,c05,0712_cop_dnn_c05_bottle_10_n04591713_105.png
bagnet33,1,713,NaN,airplane,car,c01,0713_cop_dnn_c01_car_10_n04285008_7325.png
bagnet33,1,714,NaN,airplane,clock,c03,0714_cop_dnn_c03_clock_10_n04548280_4582.png
bagnet33,1,715,NaN,knife,oven,c30,0715_cop_dnn_c30_oven_10_n04111531_8963.png
bagnet33,1,716,NaN,knife,chair,c01,0716_cop_dnn_c01_chair_10_n03376595_16059.png
bagnet33,1,717,NaN,chair,knife,c30,0717_cop_dnn_c30_knife_10_n03041632_92637.png
bagnet33,1,718,NaN,knife,bottle,c01,0718_cop_dnn_c01_bottle_10_n04591713_1126.png
bagnet33,1,719,NaN,airplane,keyboard,c01,0719_cop_dnn_c01_keyboard_10_n04505470_4400.png
bagnet33,1,720,NaN,knife,keyboard,c10,0720_cop_dnn_c10_keyboard_10_n03085013_30073.png
bagnet33,1,721,NaN,bird,bird,c100,0721_cop_dnn_c100_bird_10_n01818515_2594.png
bagnet33,1,722,NaN,bear,bear,c50,0722_cop_dnn_c50_bear_10_n02132136_19512.png
bagnet33,1,723,NaN,airplane,airplane,c50,0723_cop_dnn_c50_airplane_10_n02690373_4964.png
bagnet33,1,724,NaN,airplane,oven,c03,0724_cop_dnn_c03_oven_10_n04111531_14611.png
bagnet33,1,725,NaN,knife,knife,c05,0725_cop_dnn_c05_knife_10_n03041632_9302.png
bagnet33,1,726,NaN,bottle,bottle,c15,0726_cop_dnn_c15_bottle_10_n04557648_6060.png
bagnet33,1,727,NaN,dog,dog,c50,0727_cop_dnn_c50_dog_10_n02105056_951.png
bagnet33,1,728,NaN,truck,truck,c100,0728_cop_dnn_c100_truck_10_n04467665_52762.png
bagnet33,1,729,NaN,cat,cat,c15,0729_cop_dnn_c15_cat_10_n02123159_7607.png
bagnet33,1,730,NaN,airplane,truck,c100,0730_cop_dnn_c100_truck_10_n03417042_4420.png
bagnet33,1,731,NaN,bicycle,bicycle,c100,0731_cop_dnn_c100_bicycle_10_n03792782_4474.png
bagnet33,1,732,NaN,knife,bird,c10,0732_cop_dnn_c10_bird_10_n02018207_9697.png
bagnet33,1,733,NaN,knife,bird,c30,0733_cop_dnn_c30_bird_10_n02007558_2518.png
bagnet33,1,734,NaN,knife,keyboard,c05,0734_cop_dnn_c05_keyboard_10_n03085013_1824.png
bagnet33,1,735,NaN,bird,bird,c05,0735_cop_dnn_c05_bird_10_n02027492_3072.png
bagnet33,1,736,NaN,bottle,car,c10,0736_cop_dnn_c10_car_10_n03100240_2108.png
bagnet33,1,737,NaN,airplane,truck,c10,0737_cop_dnn_c10_truck_10_n03417042_14261.png
bagnet33,1,738,NaN,chair,chair,c10,0738_cop_dnn_c10_chair_10_n04429376_30621.png
bagnet33,1,739,NaN,airplane,airplane,c50,0739_cop_dnn_c50_airplane_10_n02690373_4649.png
bagnet33,1,740,NaN,knife,clock,c03,0740_cop_dnn_c03_clock_10_n02708093_1546.png
bagnet33,1,741,NaN,elephant,elephant,c100,0741_cop_dnn_c100_elephant_10_n02504458_5561.png
bagnet33,1,742,NaN,knife,dog,c10,0742_cop_dnn_c10_dog_10_n02093428_592.png
bagnet33,1,743,NaN,airplane,bird,c03,0743_cop_dnn_c03_bird_10_n01855672_14214.png
bagnet33,1,744,NaN,bottle,bottle,c50,0744_cop_dnn_c50_bottle_10_n03983396_11506.png
bagnet33,1,745,NaN,knife,keyboard,c03,0745_cop_dnn_c03_keyboard_10_n04505470_4797.png
bagnet33,1,746,NaN,cat,cat,c50,0746_cop_dnn_c50_cat_10_n02124075_20891.png
bagnet33,1,747,NaN,boat,boat,c50,0747_cop_dnn_c50_boat_10_n03344393_4243.png
bagnet33,1,748,NaN,boat,bear,c10,0748_cop_dnn_c10_bear_10_n02133161_12045.png
bagnet33,1,749,NaN,airplane,bird,c03,0749_cop_dnn_c03_bird_10_n02011460_2886.png
bagnet33,1,750,NaN,airplane,bear,c05,0750_cop_dnn_c05_bear_10_n02134084_13014.png
bagnet33,1,751,NaN,airplane,bird,c30,0751_cop_dnn_c30_bird_10_n01534433_3428.png
bagnet33,1,752,NaN,car,car,c30,0752_cop_dnn_c30_car_10_n02814533_5147.png
bagnet33,1,753,NaN,knife,knife,c30,0753_cop_dnn_c30_knife_10_n03041632_4808.png
bagnet33,1,754,NaN,airplane,elephant,c05,0754_cop_dnn_c05_elephant_10_n02504013_7005.png
bagnet33,1,755,NaN,knife,oven,c03,0755_cop_dnn_c03_oven_10_n04111531_1798.png
bagnet33,1,756,NaN,airplane,truck,c10,0756_cop_dnn_c10_truck_10_n03796401_3158.png
bagnet33,1,757,NaN,cat,cat,c100,0757_cop_dnn_c100_cat_10_n02125311_21377.png
bagnet33,1,758,NaN,airplane,clock,c01,0758_cop_dnn_c01_clock_10_n02708093_6957.png
bagnet33,1,759,NaN,knife,airplane,c01,0759_cop_dnn_c01_airplane_10_n02690373_13613.png
bagnet33,1,760,NaN,cat,cat,c100,0760_cop_dnn_c100_cat_10_n02123045_9845.png
bagnet33,1,761,NaN,bicycle,bicycle,c15,0761_cop_dnn_c15_bicycle_10_n02835271_8059.png
bagnet33,1,762,NaN,knife,keyboard,c01,0762_cop_dnn_c01_keyboard_10_n03085013_23005.png
bagnet33,1,763,NaN,oven,oven,c100,0763_cop_dnn_c100_oven_10_n04111531_5991.png
bagnet33,1,764,NaN,airplane,truck,c05,0764_cop_dnn_c05_truck_10_n04467665_11609.png
bagnet33,1,765,NaN,airplane,airplane,c30,0765_cop_dnn_c30_airplane_10_n02690373_5146.png
bagnet33,1,766,NaN,knife,knife,c50,0766_cop_dnn_c50_knife_10_n03041632_27575.png
bagnet33,1,767,NaN,knife,bird,c10,0767_cop_dnn_c10_bird_10_n01622779_1961.png
bagnet33,1,768,NaN,airplane,boat,c03,0768_cop_dnn_c03_boat_10_n02951358_15072.png
bagnet33,1,769,NaN,airplane,airplane,c30,0769_cop_dnn_c30_airplane_10_n02690373_12984.png
bagnet33,1,770,NaN,oven,oven,c50,0770_cop_dnn_c50_oven_10_n04111531_5126.png
bagnet33,1,771,NaN,airplane,bird,c03,0771_cop_dnn_c03_bird_10_n01860187_728.png
bagnet33,1,772,NaN,airplane,clock,c10,0772_cop_dnn_c10_clock_10_n02708093_149.png
bagnet33,1,773,NaN,clock,clock,c30,0773_cop_dnn_c30_clock_10_n03196217_6814.png
bagnet33,1,774,NaN,keyboard,keyboard,c50,0774_cop_dnn_c50_keyboard_10_n03085013_18907.png
bagnet33,1,775,NaN,clock,bicycle,c03,0775_cop_dnn_c03_bicycle_10_n02835271_7355.png
bagnet33,1,776,NaN,truck,truck,c15,0776_cop_dnn_c15_truck_10_n03796401_14189.png
bagnet33,1,777,NaN,knife,clock,c05,0777_cop_dnn_c05_clock_10_n02708093_1559.png
bagnet33,1,778,NaN,knife,bottle,c03,0778_cop_dnn_c03_bottle_10_n04560804_13157.png
bagnet33,1,779,NaN,airplane,elephant,c01,0779_cop_dnn_c01_elephant_10_n02504458_4864.png
bagnet33,1,780,NaN,airplane,clock,c05,0780_cop_dnn_c05_clock_10_n03196217_127.png
bagnet33,1,781,NaN,airplane,airplane,c05,0781_cop_dnn_c05_airplane_10_n02690373_4108.png
bagnet33,1,782,NaN,airplane,truck,c10,0782_cop_dnn_c10_truck_10_n04467665_2505.png
bagnet33,1,783,NaN,airplane,car,c05,0783_cop_dnn_c05_car_10_n03100240_159.png
bagnet33,1,784,NaN,cat,dog,c100,0784_cop_dnn_c100_dog_10_n02090622_4585.png
bagnet33,1,785,NaN,airplane,bottle,c10,0785_cop_dnn_c10_bottle_10_n03937543_2336.png
bagnet33,1,786,NaN,truck,clock,c50,0786_cop_dnn_c50_clock_10_n02708093_404.png
bagnet33,1,787,NaN,knife,car,c03,0787_cop_dnn_c03_car_10_n04285008_1453.png
bagnet33,1,788,NaN,car,car,c50,0788_cop_dnn_c50_car_10_n03100240_2985.png
bagnet33,1,789,NaN,knife,bird,c01,0789_cop_dnn_c01_bird_10_n02013706_3748.png
bagnet33,1,790,NaN,clock,elephant,c15,0790_cop_dnn_c15_elephant_10_n02504458_4010.png
bagnet33,1,791,NaN,car,car,c100,0791_cop_dnn_c100_car_10_n02814533_37548.png
bagnet33,1,792,NaN,airplane,keyboard,c10,0792_cop_dnn_c10_keyboard_10_n04505470_1692.png
bagnet33,1,793,NaN,bottle,bottle,c50,0793_cop_dnn_c50_bottle_10_n04591713_5607.png
bagnet33,1,794,NaN,truck,truck,c15,0794_cop_dnn_c15_truck_10_n04467665_1015.png
bagnet33,1,795,NaN,clock,knife,c10,0795_cop_dnn_c10_knife_10_n03041632_13108.png
bagnet33,1,796,NaN,truck,truck,c100,0796_cop_dnn_c100_truck_10_n03796401_8100.png
bagnet33,1,797,NaN,knife,clock,c03,0797_cop_dnn_c03_clock_10_n04548280_4286.png
bagnet33,1,798,NaN,airplane,car,c03,0798_cop_dnn_c03_car_10_n02814533_33602.png
bagnet33,1,799,NaN,airplane,bicycle,c10,0799_cop_dnn_c10_bicycle_10_n03792782_7182.png
bagnet33,1,800,NaN,knife,airplane,c01,0800_cop_dnn_c01_airplane_10_n02690373_5106.png
bagnet33,1,801,NaN,airplane,boat,c50,0801_cop_dnn_c50_boat_10_n03662601_20110.png
bagnet33,1,802,NaN,knife,bear,c10,0802_cop_dnn_c10_bear_10_n02133161_546.png
bagnet33,1,803,NaN,elephant,elephant,c30,0803_cop_dnn_c30_elephant_10_n02504458_5055.png
bagnet33,1,804,NaN,truck,truck,c100,0804_cop_dnn_c100_truck_10_n04467665_4239.png
bagnet33,1,805,NaN,knife,car,c05,0805_cop_dnn_c05_car_10_n02814533_872.png
bagnet33,1,806,NaN,oven,oven,c30,0806_cop_dnn_c30_oven_10_n04111531_1970.png
bagnet33,1,807,NaN,truck,truck,c30,0807_cop_dnn_c30_truck_10_n03796401_7699.png
bagnet33,1,808,NaN,oven,oven,c50,0808_cop_dnn_c50_oven_10_n04111531_23046.png
bagnet33,1,809,NaN,clock,clock,c50,0809_cop_dnn_c50_clock_10_n03196217_4526.png
bagnet33,1,810,NaN,airplane,truck,c10,0810_cop_dnn_c10_truck_10_n03796401_2060.png
bagnet33,1,811,NaN,knife,bottle,c03,0811_cop_dnn_c03_bottle_10_n04560804_15840.png
bagnet33,1,812,NaN,airplane,elephant,c03,0812_cop_dnn_c03_elephant_10_n02504013_3028.png
bagnet33,1,813,NaN,keyboard,keyboard,c50,0813_cop_dnn_c50_keyboard_10_n03085013_20682.png
bagnet33,1,814,NaN,knife,knife,c05,0814_cop_dnn_c05_knife_10_n03041632_37618.png
bagnet33,1,815,NaN,airplane,elephant,c05,0815_cop_dnn_c05_elephant_10_n02504013_8162.png
bagnet33,1,816,NaN,keyboard,keyboard,c30,0816_cop_dnn_c30_keyboard_10_n03085013_21399.png
bagnet33,1,817,NaN,bottle,bottle,c30,0817_cop_dnn_c30_bottle_10_n04560804_11350.png
bagnet33,1,818,NaN,airplane,truck,c05,0818_cop_dnn_c05_truck_10_n03796401_3509.png
bagnet33,1,819,NaN,airplane,bear,c01,0819_cop_dnn_c01_bear_10_n02134418_4114.png
bagnet33,1,820,NaN,chair,keyboard,c15,0820_cop_dnn_c15_keyboard_10_n03085013_23008.png
bagnet33,1,821,NaN,bottle,bottle,c50,0821_cop_dnn_c50_bottle_10_n03937543_4425.png
bagnet33,1,822,NaN,airplane,airplane,c05,0822_cop_dnn_c05_airplane_10_n02690373_8650.png
bagnet33,1,823,NaN,cat,cat,c50,0823_cop_dnn_c50_cat_10_n02123597_13272.png
bagnet33,1,824,NaN,truck,truck,c100,0824_cop_dnn_c100_truck_10_n04467665_27096.png
bagnet33,1,825,NaN,oven,knife,c100,0825_cop_dnn_c100_knife_10_n03041632_23968.png
bagnet33,1,826,NaN,airplane,airplane,c01,0826_cop_dnn_c01_airplane_10_n02690373_8883.png
bagnet33,1,827,NaN,airplane,bear,c01,0827_cop_dnn_c01_bear_10_n02133161_16808.png
bagnet33,1,828,NaN,dog,dog,c50,0828_cop_dnn_c50_dog_10_n02102177_5341.png
bagnet33,1,829,NaN,knife,elephant,c10,0829_cop_dnn_c10_elephant_10_n02504458_7359.png
bagnet33,1,830,NaN,clock,clock,c30,0830_cop_dnn_c30_clock_10_n04548280_1960.png
bagnet33,1,831,NaN,knife,dog,c05,0831_cop_dnn_c05_dog_10_n02111129_2245.png
bagnet33,1,832,NaN,oven,oven,c30,0832_cop_dnn_c30_oven_10_n04111531_1442.png
bagnet33,1,833,NaN,chair,chair,c05,0833_cop_dnn_c05_chair_10_n02791124_4519.png
bagnet33,1,834,NaN,airplane,cat,c05,0834_cop_dnn_c05_cat_10_n02123597_13769.png
bagnet33,1,835,NaN,airplane,car,c05,0835_cop_dnn_c05_car_10_n03100240_3208.png
bagnet33,1,836,NaN,oven,oven,c100,0836_cop_dnn_c100_oven_10_n04111531_887.png
bagnet33,1,837,NaN,bottle,bottle,c05,0837_cop_dnn_c05_bottle_10_n04557648_4168.png
bagnet33,1,838,NaN,bicycle,bicycle,c10,0838_cop_dnn_c10_bicycle_10_n02835271_3529.png
bagnet33,1,839,NaN,bicycle,bicycle,c100,0839_cop_dnn_c100_bicycle_10_n03792782_19937.png
bagnet33,1,840,NaN,airplane,bird,c30,0840_cop_dnn_c30_bird_10_n01592084_1228.png
bagnet33,1,841,NaN,boat,boat,c50,0841_cop_dnn_c50_boat_10_n03344393_629.png
bagnet33,1,842,NaN,boat,boat,c30,0842_cop_dnn_c30_boat_10_n03662601_3823.png
bagnet33,1,843,NaN,airplane,airplane,c01,0843_cop_dnn_c01_airplane_10_n02690373_5917.png
bagnet33,1,844,NaN,airplane,bear,c05,0844_cop_dnn_c05_bear_10_n02133161_313.png
bagnet33,1,845,NaN,airplane,bear,c01,0845_cop_dnn_c01_bear_10_n02133161_9134.png
bagnet33,1,846,NaN,dog,dog,c50,0846_cop_dnn_c50_dog_10_n02113023_4391.png
bagnet33,1,847,NaN,knife,bird,c50,0847_cop_dnn_c50_bird_10_n01616318_603.png
bagnet33,1,848,NaN,airplane,airplane,c10,0848_cop_dnn_c10_airplane_10_n02690373_7408.png
bagnet33,1,849,NaN,boat,boat,c15,0849_cop_dnn_c15_boat_10_n02951358_10912.png
bagnet33,1,850,NaN,knife,cat,c01,0850_cop_dnn_c01_cat_10_n02123394_7700.png
bagnet33,1,851,NaN,airplane,bear,c01,0851_cop_dnn_c01_bear_10_n02134084_4477.png
bagnet33,1,852,NaN,airplane,bicycle,c01,0852_cop_dnn_c01_bicycle_10_n02835271_5437.png
bagnet33,1,853,NaN,elephant,elephant,c10,0853_cop_dnn_c10_elephant_10_n02504013_1833.png
bagnet33,1,854,NaN,knife,oven,c30,0854_cop_dnn_c30_oven_10_n04111531_695.png
bagnet33,1,855,NaN,clock,clock,c50,0855_cop_dnn_c50_clock_10_n02708093_2043.png
bagnet33,1,856,NaN,bicycle,bicycle,c30,0856_cop_dnn_c30_bicycle_10_n03792782_20190.png
bagnet33,1,857,NaN,bird,bird,c100,0857_cop_dnn_c100_bird_10_n02028035_15091.png
bagnet33,1,858,NaN,knife,bicycle,c03,0858_cop_dnn_c03_bicycle_10_n02835271_3832.png
bagnet33,1,859,NaN,car,car,c30,0859_cop_dnn_c30_car_10_n03100240_10440.png
bagnet33,1,860,NaN,bear,bear,c15,0860_cop_dnn_c15_bear_10_n02132136_2791.png
bagnet33,1,861,NaN,bicycle,bicycle,c10,0861_cop_dnn_c10_bicycle_10_n02835271_2553.png
bagnet33,1,862,NaN,clock,clock,c30,0862_cop_dnn_c30_clock_10_n02708093_4976.png
bagnet33,1,863,NaN,knife,bird,c15,0863_cop_dnn_c15_bird_10_n02027492_4900.png
bagnet33,1,864,NaN,oven,oven,c100,0864_cop_dnn_c100_oven_10_n04111531_6536.png
bagnet33,1,865,NaN,car,car,c50,0865_cop_dnn_c50_car_10_n02814533_71838.png
bagnet33,1,866,NaN,dog,dog,c100,0866_cop_dnn_c100_dog_10_n02100583_26422.png
bagnet33,1,867,NaN,knife,chair,c03,0867_cop_dnn_c03_chair_10_n04429376_31331.png
bagnet33,1,868,NaN,airplane,car,c15,0868_cop_dnn_c15_car_10_n03100240_11107.png
bagnet33,1,869,NaN,oven,oven,c50,0869_cop_dnn_c50_oven_10_n04111531_452.png
bagnet33,1,870,NaN,bottle,bottle,c15,0870_cop_dnn_c15_bottle_10_n04557648_5967.png
bagnet33,1,871,NaN,chair,chair,c30,0871_cop_dnn_c30_chair_10_n02791124_3370.png
bagnet33,1,872,NaN,airplane,boat,c01,0872_cop_dnn_c01_boat_10_n04273569_1288.png
bagnet33,1,873,NaN,keyboard,keyboard,c30,0873_cop_dnn_c30_keyboard_10_n04505470_709.png
bagnet33,1,874,NaN,bicycle,dog,c50,0874_cop_dnn_c50_dog_10_n02092002_1139.png
bagnet33,1,875,NaN,keyboard,keyboard,c100,0875_cop_dnn_c100_keyboard_10_n04505470_9395.png
bagnet33,1,876,NaN,clock,clock,c03,0876_cop_dnn_c03_clock_10_n04548280_750.png
bagnet33,1,877,NaN,airplane,boat,c10,0877_cop_dnn_c10_boat_10_n03344393_14897.png
bagnet33,1,878,NaN,knife,bird,c05,0878_cop_dnn_c05_bird_10_n02056570_13462.png
bagnet33,1,879,NaN,knife,keyboard,c10,0879_cop_dnn_c10_keyboard_10_n03085013_19630.png
bagnet33,1,880,NaN,bicycle,bicycle,c50,0880_cop_dnn_c50_bicycle_10_n02835271_5751.png
bagnet33,1,881,NaN,airplane,car,c01,0881_cop_dnn_c01_car_10_n03100240_3289.png
bagnet33,1,882,NaN,airplane,truck,c15,0882_cop_dnn_c15_truck_10_n04467665_80098.png
bagnet33,1,883,NaN,clock,clock,c100,0883_cop_dnn_c100_clock_10_n04548280_5773.png
bagnet33,1,884,NaN,elephant,elephant,c15,0884_cop_dnn_c15_elephant_10_n02504013_1028.png
bagnet33,1,885,NaN,bear,bear,c30,0885_cop_dnn_c30_bear_10_n02134418_76.png
bagnet33,1,886,NaN,knife,dog,c03,0886_cop_dnn_c03_dog_10_n02088632_747.png
bagnet33,1,887,NaN,airplane,bicycle,c01,0887_cop_dnn_c01_bicycle_10_n02835271_10741.png
bagnet33,1,888,NaN,elephant,elephant,c50,0888_cop_dnn_c50_elephant_10_n02504458_3182.png
bagnet33,1,889,NaN,truck,truck,c100,0889_cop_dnn_c100_truck_10_n04467665_52409.png
bagnet33,1,890,NaN,bottle,bottle,c50,0890_cop_dnn_c50_bottle_10_n04591713_3284.png
bagnet33,1,891,NaN,knife,boat,c05,0891_cop_dnn_c05_boat_10_n02951358_15858.png
bagnet33,1,892,NaN,elephant,elephant,c50,0892_cop_dnn_c50_elephant_10_n02504458_3684.png
bagnet33,1,893,NaN,chair,oven,c50,0893_cop_dnn_c50_oven_10_n04111531_15852.png
bagnet33,1,894,NaN,knife,cat,c30,0894_cop_dnn_c30_cat_10_n02124075_10155.png
bagnet33,1,895,NaN,airplane,airplane,c30,0895_cop_dnn_c30_airplane_10_n02690373_8876.png
bagnet33,1,896,NaN,airplane,airplane,c100,0896_cop_dnn_c100_airplane_10_n02690373_5007.png
bagnet33,1,897,NaN,dog,dog,c15,0897_cop_dnn_c15_dog_10_n02097658_5000.png
bagnet33,1,898,NaN,airplane,bear,c01,0898_cop_dnn_c01_bear_10_n02132136_10428.png
bagnet33,1,899,NaN,knife,chair,c05,0899_cop_dnn_c05_chair_10_n04099969_3686.png
bagnet33,1,900,NaN,bicycle,dog,c30,0900_cop_dnn_c30_dog_10_n02102480_3679.png
bagnet33,1,901,NaN,airplane,car,c10,0901_cop_dnn_c10_car_10_n02814533_1480.png
bagnet33,1,902,NaN,clock,clock,c100,0902_cop_dnn_c100_clock_10_n02708093_579.png
bagnet33,1,903,NaN,knife,truck,c03,0903_cop_dnn_c03_truck_10_n03796401_23550.png
bagnet33,1,904,NaN,car,car,c100,0904_cop_dnn_c100_car_10_n02814533_35760.png
bagnet33,1,905,NaN,knife,cat,c03,0905_cop_dnn_c03_cat_10_n02124075_12797.png
bagnet33,1,906,NaN,airplane,keyboard,c30,0906_cop_dnn_c30_keyboard_10_n03085013_18945.png
bagnet33,1,907,NaN,airplane,airplane,c15,0907_cop_dnn_c15_airplane_10_n02690373_379.png
bagnet33,1,908,NaN,knife,oven,c30,0908_cop_dnn_c30_oven_10_n04111531_4331.png
bagnet33,1,909,NaN,airplane,truck,c01,0909_cop_dnn_c01_truck_10_n04467665_13193.png
bagnet33,1,910,NaN,bear,bear,c10,0910_cop_dnn_c10_bear_10_n02132136_26027.png
bagnet33,1,911,NaN,bicycle,bicycle,c50,0911_cop_dnn_c50_bicycle_10_n03792782_15138.png
bagnet33,1,912,NaN,knife,knife,c10,0912_cop_dnn_c10_knife_10_n03041632_11741.png
bagnet33,1,913,NaN,bottle,bottle,c10,0913_cop_dnn_c10_bottle_10_n02823428_721.png
bagnet33,1,914,NaN,bear,bear,c100,0914_cop_dnn_c100_bear_10_n02134084_19791.png
bagnet33,1,915,NaN,bear,bird,c10,0915_cop_dnn_c10_bird_10_n01622779_684.png
bagnet33,1,916,NaN,airplane,truck,c01,0916_cop_dnn_c01_truck_10_n03417042_23038.png
bagnet33,1,917,NaN,airplane,bear,c03,0917_cop_dnn_c03_bear_10_n02133161_968.png
bagnet33,1,918,NaN,airplane,elephant,c01,0918_cop_dnn_c01_elephant_10_n02504458_5483.png
bagnet33,1,919,NaN,chair,oven,c15,0919_cop_dnn_c15_oven_10_n04111531_4549.png
bagnet33,1,920,NaN,airplane,boat,c10,0920_cop_dnn_c10_boat_10_n03344393_5511.png
bagnet33,1,921,NaN,airplane,clock,c01,0921_cop_dnn_c01_clock_10_n04548280_2343.png
bagnet33,1,922,NaN,car,clock,c100,0922_cop_dnn_c100_clock_10_n03196217_1275.png
bagnet33,1,923,NaN,dog,bear,c50,0923_cop_dnn_c50_bear_10_n02133161_5904.png
bagnet33,1,924,NaN,knife,clock,c03,0924_cop_dnn_c03_clock_10_n03196217_5079.png
bagnet33,1,925,NaN,bird,bird,c100,0925_cop_dnn_c100_bird_10_n01797886_465.png
bagnet33,1,926,NaN,knife,chair,c10,0926_cop_dnn_c10_chair_10_n04099969_10458.png
bagnet33,1,927,NaN,airplane,airplane,c15,0927_cop_dnn_c15_airplane_10_n02690373_10181.png
bagnet33,1,928,NaN,knife,knife,c01,0928_cop_dnn_c01_knife_10_n03041632_36235.png
bagnet33,1,929,NaN,bird,bird,c50,0929_cop_dnn_c50_bird_10_n02033041_6046.png
bagnet33,1,930,NaN,boat,bicycle,c100,0930_cop_dnn_c100_bicycle_10_n03792782_1363.png
bagnet33,1,931,NaN,dog,dog,c100,0931_cop_dnn_c100_dog_10_n02102177_988.png
bagnet33,1,932,NaN,airplane,keyboard,c03,0932_cop_dnn_c03_keyboard_10_n03085013_24306.png
bagnet33,1,933,NaN,knife,oven,c01,0933_cop_dnn_c01_oven_10_n04111531_9963.png
bagnet33,1,934,NaN,oven,bird,c30,0934_cop_dnn_c30_bird_10_n01843383_296.png
bagnet33,1,935,NaN,keyboard,keyboard,c100,0935_cop_dnn_c100_keyboard_10_n04505470_3825.png
bagnet33,1,936,NaN,airplane,clock,c50,0936_cop_dnn_c50_clock_10_n02708093_6835.png
bagnet33,1,937,NaN,chair,chair,c50,0937_cop_dnn_c50_chair_10_n04099969_25664.png
bagnet33,1,938,NaN,knife,knife,c01,0938_cop_dnn_c01_knife_10_n03041632_50332.png
bagnet33,1,939,NaN,clock,keyboard,c50,0939_cop_dnn_c50_keyboard_10_n04505470_9331.png
bagnet33,1,940,NaN,knife,truck,c05,0940_cop_dnn_c05_truck_10_n03417042_19958.png
bagnet33,1,941,NaN,knife,clock,c03,0941_cop_dnn_c03_clock_10_n04548280_3161.png
bagnet33,1,942,NaN,clock,clock,c10,0942_cop_dnn_c10_clock_10_n03196217_1814.png
bagnet33,1,943,NaN,bird,bird,c100,0943_cop_dnn_c100_bird_10_n02027492_10246.png
bagnet33,1,944,NaN,clock,chair,c05,0944_cop_dnn_c05_chair_10_n02791124_1737.png
bagnet33,1,945,NaN,boat,boat,c100,0945_cop_dnn_c100_boat_10_n03344393_1131.png
bagnet33,1,946,NaN,airplane,elephant,c01,0946_cop_dnn_c01_elephant_10_n02504458_7207.png
bagnet33,1,947,NaN,airplane,boat,c10,0947_cop_dnn_c10_boat_10_n03344393_4485.png
bagnet33,1,948,NaN,airplane,airplane,c05,0948_cop_dnn_c05_airplane_10_n02690373_2607.png
bagnet33,1,949,NaN,knife,bottle,c05,0949_cop_dnn_c05_bottle_10_n03937543_6014.png
bagnet33,1,950,NaN,airplane,elephant,c01,0950_cop_dnn_c01_elephant_10_n02504013_3599.png
bagnet33,1,951,NaN,knife,cat,c15,0951_cop_dnn_c15_cat_10_n02123159_6624.png
bagnet33,1,952,NaN,airplane,airplane,c100,0952_cop_dnn_c100_airplane_10_n02690373_13078.png
bagnet33,1,953,NaN,airplane,boat,c03,0953_cop_dnn_c03_boat_10_n03344393_2676.png
bagnet33,1,954,NaN,knife,bicycle,c10,0954_cop_dnn_c10_bicycle_10_n02835271_12764.png
bagnet33,1,955,NaN,keyboard,keyboard,c100,0955_cop_dnn_c100_keyboard_10_n04505470_361.png
bagnet33,1,956,NaN,knife,keyboard,c30,0956_cop_dnn_c30_keyboard_10_n03085013_2272.png
bagnet33,1,957,NaN,airplane,cat,c03,0957_cop_dnn_c03_cat_10_n02123597_1965.png
bagnet33,1,958,NaN,boat,bird,c10,0958_cop_dnn_c10_bird_10_n01820546_2924.png
bagnet33,1,959,NaN,bicycle,bicycle,c15,0959_cop_dnn_c15_bicycle_10_n03792782_5557.png
bagnet33,1,960,NaN,boat,boat,c10,0960_cop_dnn_c10_boat_10_n04273569_14373.png
bagnet33,1,961,NaN,clock,clock,c15,0961_cop_dnn_c15_clock_10_n04548280_5519.png
bagnet33,1,962,NaN,cat,cat,c10,0962_cop_dnn_c10_cat_10_n02125311_32129.png
bagnet33,1,963,NaN,knife,car,c03,0963_cop_dnn_c03_car_10_n04285008_8213.png
bagnet33,1,964,NaN,car,car,c50,0964_cop_dnn_c50_car_10_n04285008_507.png
bagnet33,1,965,NaN,airplane,dog,c01,0965_cop_dnn_c01_dog_10_n02091134_3701.png
bagnet33,1,966,NaN,airplane,boat,c05,0966_cop_dnn_c05_boat_10_n04612504_17854.png
bagnet33,1,967,NaN,boat,elephant,c10,0967_cop_dnn_c10_elephant_10_n02504013_4654.png
bagnet33,1,968,NaN,airplane,dog,c03,0968_cop_dnn_c03_dog_10_n02102480_7875.png
bagnet33,1,969,NaN,airplane,elephant,c05,0969_cop_dnn_c05_elephant_10_n02504013_7633.png
bagnet33,1,970,NaN,airplane,airplane,c50,0970_cop_dnn_c50_airplane_10_n02690373_2544.png
bagnet33,1,971,NaN,airplane,airplane,c15,0971_cop_dnn_c15_airplane_10_n02690373_4728.png
bagnet33,1,972,NaN,clock,clock,c10,0972_cop_dnn_c10_clock_10_n02708093_8340.png
bagnet33,1,973,NaN,bottle,bottle,c100,0973_cop_dnn_c100_bottle_10_n04560804_23390.png
bagnet33,1,974,NaN,knife,keyboard,c01,0974_cop_dnn_c01_keyboard_10_n04505470_26.png
bagnet33,1,975,NaN,elephant,elephant,c15,0975_cop_dnn_c15_elephant_10_n02504013_2479.png
bagnet33,1,976,NaN,airplane,car,c03,0976_cop_dnn_c03_car_10_n02814533_87871.png
bagnet33,1,977,NaN,chair,bottle,c30,0977_cop_dnn_c30_bottle_10_n04579145_466.png
bagnet33,1,978,NaN,airplane,bird,c05,0978_cop_dnn_c05_bird_10_n01616318_2700.png
bagnet33,1,979,NaN,airplane,elephant,c10,0979_cop_dnn_c10_elephant_10_n02504013_1970.png
bagnet33,1,980,NaN,elephant,elephant,c50,0980_cop_dnn_c50_elephant_10_n02504458_209.png
bagnet33,1,981,NaN,airplane,truck,c05,0981_cop_dnn_c05_truck_10_n03796401_21407.png
bagnet33,1,982,NaN,keyboard,keyboard,c15,0982_cop_dnn_c15_keyboard_10_n04505470_5057.png
bagnet33,1,983,NaN,knife,cat,c01,0983_cop_dnn_c01_cat_10_n02123597_23389.png
bagnet33,1,984,NaN,keyboard,keyboard,c10,0984_cop_dnn_c10_keyboard_10_n04505470_4374.png
bagnet33,1,985,NaN,boat,bear,c10,0985_cop_dnn_c10_bear_10_n02133161_15177.png
bagnet33,1,986,NaN,keyboard,cat,c10,0986_cop_dnn_c10_cat_10_n02123597_7248.png
bagnet33,1,987,NaN,knife,keyboard,c05,0987_cop_dnn_c05_keyboard_10_n04505470_8822.png
bagnet33,1,988,NaN,cat,cat,c15,0988_cop_dnn_c15_cat_10_n02123045_5200.png
bagnet33,1,989,NaN,boat,bird,c30,0989_cop_dnn_c30_bird_10_n01855032_7567.png
bagnet33,1,990,NaN,dog,dog,c30,0990_cop_dnn_c30_dog_10_n02094258_1334.png
bagnet33,1,991,NaN,airplane,bear,c03,0991_cop_dnn_c03_bear_10_n02133161_10024.png
bagnet33,1,992,NaN,airplane,boat,c01,0992_cop_dnn_c01_boat_10_n03344393_8143.png
bagnet33,1,993,NaN,bicycle,bicycle,c15,0993_cop_dnn_c15_bicycle_10_n02835271_5193.png
bagnet33,1,994,NaN,bear,bear,c30,0994_cop_dnn_c30_bear_10_n02132136_4157.png
bagnet33,1,995,NaN,truck,truck,c50,0995_cop_dnn_c50_truck_10_n04467665_23173.png
bagnet33,1,996,NaN,boat,boat,c10,0996_cop_dnn_c10_boat_10_n04612504_17514.png
bagnet33,1,997,NaN,airplane,bicycle,c10,0997_cop_dnn_c10_bicycle_10_n03792782_77949.png
bagnet33,1,998,NaN,knife,chair,c05,0998_cop_dnn_c05_chair_10_n02791124_1371.png
bagnet33,1,999,NaN,oven,oven,c50,0999_cop_dnn_c50_oven_10_n04111531_4963.png
bagnet33,1,1000,NaN,chair,oven,c05,1000_cop_dnn_c05_oven_10_n04111531_2201.png
bagnet33,1,1001,NaN,airplane,clock,c01,1001_cop_dnn_c01_clock_10_n02708093_2710.png
bagnet33,1,1002,NaN,knife,knife,c100,1002_cop_dnn_c100_knife_10_n03041632_4044.png
bagnet33,1,1003,NaN,bear,bear,c100,1003_cop_dnn_c100_bear_10_n02133161_741.png
bagnet33,1,1004,NaN,knife,knife,c03,1004_cop_dnn_c03_knife_10_n03041632_31932.png
bagnet33,1,1005,NaN,airplane,car,c01,1005_cop_dnn_c01_car_10_n03100240_3205.png
bagnet33,1,1006,NaN,airplane,elephant,c03,1006_cop_dnn_c03_elephant_10_n02504458_6972.png
bagnet33,1,1007,NaN,airplane,dog,c01,1007_cop_dnn_c01_dog_10_n02111500_8079.png
bagnet33,1,1008,NaN,airplane,truck,c30,1008_cop_dnn_c30_truck_10_n03417042_3659.png
bagnet33,1,1009,NaN,airplane,dog,c03,1009_cop_dnn_c03_dog_10_n02091467_9499.png
bagnet33,1,1010,NaN,car,car,c100,1010_cop_dnn_c100_car_10_n03100240_1443.png
bagnet33,1,1011,NaN,airplane,keyboard,c01,1011_cop_dnn_c01_keyboard_10_n04505470_2787.png
bagnet33,1,1012,NaN,bear,bear,c100,1012_cop_dnn_c100_bear_10_n02134084_1207.png
bagnet33,1,1013,NaN,clock,bicycle,c03,1013_cop_dnn_c03_bicycle_10_n03792782_818.png
bagnet33,1,1014,NaN,knife,car,c05,1014_cop_dnn_c05_car_10_n04285008_12539.png
bagnet33,1,1015,NaN,chair,chair,c50,1015_cop_dnn_c50_chair_10_n03376595_4669.png
bagnet33,1,1016,NaN,airplane,bear,c15,1016_cop_dnn_c15_bear_10_n02134418_1259.png
bagnet33,1,1017,NaN,car,car,c100,1017_cop_dnn_c100_car_10_n03100240_1794.png
bagnet33,1,1018,NaN,knife,bear,c01,1018_cop_dnn_c01_bear_10_n02134084_6113.png
bagnet33,1,1019,NaN,elephant,elephant,c100,1019_cop_dnn_c100_elephant_10_n02504458_99.png
bagnet33,1,1020,NaN,keyboard,keyboard,c100,1020_cop_dnn_c100_keyboard_10_n03085013_2808.png
bagnet33,1,1021,NaN,keyboard,keyboard,c10,1021_cop_dnn_c10_keyboard_10_n03085013_18649.png
bagnet33,1,1022,NaN,clock,chair,c15,1022_cop_dnn_c15_chair_10_n04429376_43275.png
bagnet33,1,1023,NaN,keyboard,bottle,c15,1023_cop_dnn_c15_bottle_10_n03937543_3726.png
bagnet33,1,1024,NaN,chair,chair,c100,1024_cop_dnn_c100_chair_10_n04429376_10597.png
bagnet33,1,1025,NaN,knife,clock,c01,1025_cop_dnn_c01_clock_10_n02708093_2574.png
bagnet33,1,1026,NaN,dog,dog,c100,1026_cop_dnn_c100_dog_10_n02107908_3490.png
bagnet33,1,1027,NaN,knife,cat,c03,1027_cop_dnn_c03_cat_10_n02124075_2751.png
bagnet33,1,1028,NaN,chair,chair,c15,1028_cop_dnn_c15_chair_10_n03376595_9482.png
bagnet33,1,1029,NaN,knife,bird,c03,1029_cop_dnn_c03_bird_10_n02006656_2496.png
bagnet33,1,1030,NaN,boat,dog,c10,1030_cop_dnn_c10_dog_10_n02109961_14816.png
bagnet33,1,1031,NaN,bicycle,bicycle,c100,1031_cop_dnn_c100_bicycle_10_n03792782_1586.png
bagnet33,1,1032,NaN,knife,chair,c03,1032_cop_dnn_c03_chair_10_n04099969_3536.png
bagnet33,1,1033,NaN,car,car,c50,1033_cop_dnn_c50_car_10_n04285008_12662.png
bagnet33,1,1034,NaN,chair,dog,c100,1034_cop_dnn_c100_dog_10_n02090622_5881.png
bagnet33,1,1035,NaN,airplane,bear,c05,1035_cop_dnn_c05_bear_10_n02134418_3579.png
bagnet33,1,1036,NaN,bicycle,bicycle,c15,1036_cop_dnn_c15_bicycle_10_n03792782_14642.png
bagnet33,1,1037,NaN,bottle,dog,c15,1037_cop_dnn_c15_dog_10_n02108000_4202.png
bagnet33,1,1038,NaN,knife,elephant,c10,1038_cop_dnn_c10_elephant_10_n02504458_6470.png
bagnet33,1,1039,NaN,knife,oven,c01,1039_cop_dnn_c01_oven_10_n04111531_5102.png
bagnet33,1,1040,NaN,knife,dog,c15,1040_cop_dnn_c15_dog_10_n02091032_3390.png
bagnet33,1,1041,NaN,dog,dog,c100,1041_cop_dnn_c100_dog_10_n02101556_2504.png
bagnet33,1,1042,NaN,knife,truck,c03,1042_cop_dnn_c03_truck_10_n03796401_28635.png
bagnet33,1,1043,NaN,airplane,truck,c10,1043_cop_dnn_c10_truck_10_n03417042_9829.png
bagnet33,1,1044,NaN,airplane,bicycle,c01,1044_cop_dnn_c01_bicycle_10_n02835271_10839.png
bagnet33,1,1045,NaN,boat,boat,c05,1045_cop_dnn_c05_boat_10_n04612504_8407.png
bagnet33,1,1046,NaN,keyboard,keyboard,c30,1046_cop_dnn_c30_keyboard_10_n03085013_21050.png
bagnet33,1,1047,NaN,airplane,elephant,c03,1047_cop_dnn_c03_elephant_10_n02504013_6426.png
bagnet33,1,1048,NaN,airplane,car,c03,1048_cop_dnn_c03_car_10_n04285008_11922.png
bagnet33,1,1049,NaN,airplane,airplane,c03,1049_cop_dnn_c03_airplane_10_n02690373_6621.png
bagnet33,1,1050,NaN,airplane,car,c05,1050_cop_dnn_c05_car_10_n02814533_4491.png
bagnet33,1,1051,NaN,airplane,keyboard,c15,1051_cop_dnn_c15_keyboard_10_n04505470_6115.png
bagnet33,1,1052,NaN,bottle,bottle,c15,1052_cop_dnn_c15_bottle_10_n03983396_5559.png
bagnet33,1,1053,NaN,airplane,cat,c05,1053_cop_dnn_c05_cat_10_n02123394_8524.png
bagnet33,1,1054,NaN,airplane,truck,c01,1054_cop_dnn_c01_truck_10_n03796401_21335.png
bagnet33,1,1055,NaN,airplane,bear,c03,1055_cop_dnn_c03_bear_10_n02134084_3345.png
bagnet33,1,1056,NaN,knife,keyboard,c05,1056_cop_dnn_c05_keyboard_10_n03085013_30899.png
bagnet33,1,1057,NaN,knife,oven,c03,1057_cop_dnn_c03_oven_10_n04111531_5659.png
bagnet33,1,1058,NaN,knife,oven,c05,1058_cop_dnn_c05_oven_10_n04111531_2923.png
bagnet33,1,1059,NaN,airplane,truck,c05,1059_cop_dnn_c05_truck_10_n03417042_708.png
bagnet33,1,1060,NaN,knife,clock,c15,1060_cop_dnn_c15_clock_10_n04548280_5087.png
bagnet33,1,1061,NaN,airplane,car,c01,1061_cop_dnn_c01_car_10_n02814533_89472.png
bagnet33,1,1062,NaN,boat,boat,c30,1062_cop_dnn_c30_boat_10_n03344393_4583.png
bagnet33,1,1063,NaN,cat,cat,c100,1063_cop_dnn_c100_cat_10_n02123597_16831.png
bagnet33,1,1064,NaN,airplane,dog,c03,1064_cop_dnn_c03_dog_10_n02096437_6849.png
bagnet33,1,1065,NaN,knife,dog,c10,1065_cop_dnn_c10_dog_10_n02108422_9533.png
bagnet33,1,1066,NaN,knife,elephant,c15,1066_cop_dnn_c15_elephant_10_n02504458_1891.png
bagnet33,1,1067,NaN,airplane,airplane,c05,1067_cop_dnn_c05_airplane_10_n02690373_8746.png
bagnet33,1,1068,NaN,oven,oven,c100,1068_cop_dnn_c100_oven_10_n04111531_14095.png
bagnet33,1,1069,NaN,knife,cat,c10,1069_cop_dnn_c10_cat_10_n02124075_1576.png
bagnet33,1,1070,NaN,bottle,bottle,c100,1070_cop_dnn_c100_bottle_10_n02823428_10933.png
bagnet33,1,1071,NaN,truck,truck,c30,1071_cop_dnn_c30_truck_10_n03417042_26885.png
bagnet33,1,1072,NaN,cat,cat,c100,1072_cop_dnn_c100_cat_10_n02123045_9583.png
bagnet33,1,1073,NaN,knife,elephant,c05,1073_cop_dnn_c05_elephant_10_n02504458_1496.png
bagnet33,1,1074,NaN,airplane,bicycle,c03,1074_cop_dnn_c03_bicycle_10_n02835271_7969.png
bagnet33,1,1075,NaN,knife,bottle,c03,1075_cop_dnn_c03_bottle_10_n04579145_2298.png
bagnet33,1,1076,NaN,knife,oven,c10,1076_cop_dnn_c10_oven_10_n04111531_6128.png
bagnet33,1,1077,NaN,bicycle,truck,c10,1077_cop_dnn_c10_truck_10_n04467665_57085.png
bagnet33,1,1078,NaN,knife,chair,c01,1078_cop_dnn_c01_chair_10_n02791124_2773.png
bagnet33,1,1079,NaN,airplane,bear,c03,1079_cop_dnn_c03_bear_10_n02133161_14164.png
bagnet33,1,1080,NaN,knife,chair,c03,1080_cop_dnn_c03_chair_10_n04099969_2610.png
bagnet33,1,1081,NaN,airplane,airplane,c100,1081_cop_dnn_c100_airplane_10_n02690373_871.png
bagnet33,1,1082,NaN,airplane,car,c01,1082_cop_dnn_c01_car_10_n03100240_5825.png
bagnet33,1,1083,NaN,knife,cat,c30,1083_cop_dnn_c30_cat_10_n02123045_11032.png
bagnet33,1,1084,NaN,bird,bird,c50,1084_cop_dnn_c50_bird_10_n01592084_9643.png
bagnet33,1,1085,NaN,bear,bear,c100,1085_cop_dnn_c100_bear_10_n02132136_14778.png
bagnet33,1,1086,NaN,clock,bicycle,c03,1086_cop_dnn_c03_bicycle_10_n02835271_12405.png
bagnet33,1,1087,NaN,knife,bird,c03,1087_cop_dnn_c03_bird_10_n01592084_5936.png
bagnet33,1,1088,NaN,airplane,oven,c01,1088_cop_dnn_c01_oven_10_n04111531_14690.png
bagnet33,1,1089,NaN,clock,clock,c100,1089_cop_dnn_c100_clock_10_n03196217_4947.png
bagnet33,1,1090,NaN,knife,truck,c15,1090_cop_dnn_c15_truck_10_n03796401_20373.png
bagnet33,1,1091,NaN,airplane,dog,c01,1091_cop_dnn_c01_dog_10_n02107908_12294.png
bagnet33,1,1092,NaN,oven,oven,c50,1092_cop_dnn_c50_oven_10_n04111531_7106.png
bagnet33,1,1093,NaN,knife,knife,c100,1093_cop_dnn_c100_knife_10_n03041632_7279.png
bagnet33,1,1094,NaN,airplane,dog,c05,1094_cop_dnn_c05_dog_10_n02099601_22550.png
bagnet33,1,1095,NaN,keyboard,keyboard,c50,1095_cop_dnn_c50_keyboard_10_n03085013_6644.png
bagnet33,1,1096,NaN,knife,dog,c05,1096_cop_dnn_c05_dog_10_n02094433_5139.png
bagnet33,1,1097,NaN,boat,boat,c30,1097_cop_dnn_c30_boat_10_n03662601_3741.png
bagnet33,1,1098,NaN,knife,knife,c50,1098_cop_dnn_c50_knife_10_n03041632_24326.png
bagnet33,1,1099,NaN,car,car,c50,1099_cop_dnn_c50_car_10_n04285008_2483.png
bagnet33,1,1100,NaN,car,car,c30,1100_cop_dnn_c30_car_10_n02814533_18148.png
bagnet33,1,1101,NaN,clock,bird,c05,1101_cop_dnn_c05_bird_10_n01582220_4784.png
bagnet33,1,1102,NaN,airplane,bird,c10,1102_cop_dnn_c10_bird_10_n01843065_4020.png
bagnet33,1,1103,NaN,car,car,c30,1103_cop_dnn_c30_car_10_n04285008_11323.png
bagnet33,1,1104,NaN,car,car,c15,1104_cop_dnn_c15_car_10_n04285008_12909.png
bagnet33,1,1105,NaN,car,car,c30,1105_cop_dnn_c30_car_10_n03100240_11693.png
bagnet33,1,1106,NaN,airplane,knife,c10,1106_cop_dnn_c10_knife_10_n03041632_12242.png
bagnet33,1,1107,NaN,bicycle,bicycle,c100,1107_cop_dnn_c100_bicycle_10_n02835271_4887.png
bagnet33,1,1108,NaN,elephant,elephant,c50,1108_cop_dnn_c50_elephant_10_n02504013_6552.png
bagnet33,1,1109,NaN,chair,knife,c50,1109_cop_dnn_c50_knife_10_n03041632_1006.png
bagnet33,1,1110,NaN,airplane,boat,c05,1110_cop_dnn_c05_boat_10_n03344393_5636.png
bagnet33,1,1111,NaN,airplane,bottle,c05,1111_cop_dnn_c05_bottle_10_n04557648_3653.png
bagnet33,1,1112,NaN,chair,chair,c50,1112_cop_dnn_c50_chair_10_n03376595_12602.png
bagnet33,1,1113,NaN,knife,knife,c10,1113_cop_dnn_c10_knife_10_n03041632_10140.png
bagnet33,1,1114,NaN,knife,elephant,c03,1114_cop_dnn_c03_elephant_10_n02504013_3634.png
bagnet33,1,1115,NaN,chair,chair,c100,1115_cop_dnn_c100_chair_10_n04099969_1490.png
bagnet33,1,1116,NaN,airplane,truck,c10,1116_cop_dnn_c10_truck_10_n04467665_56815.png
bagnet33,1,1117,NaN,chair,chair,c15,1117_cop_dnn_c15_chair_10_n02791124_15853.png
bagnet33,1,1118,NaN,knife,cat,c03,1118_cop_dnn_c03_cat_10_n02124075_11759.png
bagnet33,1,1119,NaN,bird,bird,c100,1119_cop_dnn_c100_bird_10_n01819313_7109.png
bagnet33,1,1120,NaN,chair,chair,c30,1120_cop_dnn_c30_chair_10_n04429376_6242.png
bagnet33,1,1121,NaN,airplane,bird,c01,1121_cop_dnn_c01_bird_10_n02002724_627.png
bagnet33,1,1122,NaN,bird,bird,c100,1122_cop_dnn_c100_bird_10_n01855672_9451.png
bagnet33,1,1123,NaN,bottle,knife,c50,1123_cop_dnn_c50_knife_10_n03041632_15174.png
bagnet33,1,1124,NaN,airplane,keyboard,c01,1124_cop_dnn_c01_keyboard_10_n04505470_763.png
bagnet33,1,1125,NaN,knife,elephant,c03,1125_cop_dnn_c03_elephant_10_n02504013_3739.png
bagnet33,1,1126,NaN,keyboard,keyboard,c30,1126_cop_dnn_c30_keyboard_10_n03085013_24103.png
bagnet33,1,1127,NaN,knife,knife,c100,1127_cop_dnn_c100_knife_10_n03041632_3101.png
bagnet33,1,1128,NaN,knife,keyboard,c05,1128_cop_dnn_c05_keyboard_10_n03085013_2335.png
bagnet33,1,1129,NaN,knife,cat,c15,1129_cop_dnn_c15_cat_10_n02123045_20719.png
bagnet33,1,1130,NaN,knife,clock,c03,1130_cop_dnn_c03_clock_10_n03196217_813.png
bagnet33,1,1131,NaN,clock,clock,c10,1131_cop_dnn_c10_clock_10_n03196217_11471.png
bagnet33,1,1132,NaN,knife,elephant,c03,1132_cop_dnn_c03_elephant_10_n02504013_11033.png
bagnet33,1,1133,NaN,airplane,dog,c05,1133_cop_dnn_c05_dog_10_n02108551_3425.png
bagnet33,1,1134,NaN,knife,chair,c05,1134_cop_dnn_c05_chair_10_n02791124_5995.png
bagnet33,1,1135,NaN,bear,bear,c30,1135_cop_dnn_c30_bear_10_n02134084_10839.png
bagnet33,1,1136,NaN,cat,cat,c100,1136_cop_dnn_c100_cat_10_n02123597_6972.png
bagnet33,1,1137,NaN,knife,truck,c03,1137_cop_dnn_c03_truck_10_n03796401_4119.png
bagnet33,1,1138,NaN,airplane,knife,c05,1138_cop_dnn_c05_knife_10_n03041632_30602.png
bagnet33,1,1139,NaN,chair,chair,c50,1139_cop_dnn_c50_chair_10_n04429376_15534.png
bagnet33,1,1140,NaN,airplane,airplane,c50,1140_cop_dnn_c50_airplane_10_n02690373_911.png
bagnet33,1,1141,NaN,clock,clock,c30,1141_cop_dnn_c30_clock_10_n03196217_4537.png
bagnet33,1,1142,NaN,airplane,boat,c01,1142_cop_dnn_c01_boat_10_n02951358_20960.png
bagnet33,1,1143,NaN,airplane,airplane,c03,1143_cop_dnn_c03_airplane_10_n02690373_10006.png
bagnet33,1,1144,NaN,knife,cat,c15,1144_cop_dnn_c15_cat_10_n02124075_2392.png
bagnet33,1,1145,NaN,airplane,bicycle,c10,1145_cop_dnn_c10_bicycle_10_n02835271_9314.png
bagnet33,1,1146,NaN,airplane,bear,c05,1146_cop_dnn_c05_bear_10_n02132136_1726.png
bagnet33,1,1147,NaN,knife,airplane,c03,1147_cop_dnn_c03_airplane_10_n02690373_13318.png
bagnet33,1,1148,NaN,airplane,truck,c15,1148_cop_dnn_c15_truck_10_n03417042_8654.png
bagnet33,1,1149,NaN,keyboard,clock,c50,1149_cop_dnn_c50_clock_10_n03196217_3475.png
bagnet33,1,1150,NaN,airplane,car,c15,1150_cop_dnn_c15_car_10_n03100240_1856.png
bagnet33,1,1151,NaN,boat,elephant,c15,1151_cop_dnn_c15_elephant_10_n02504013_1792.png
bagnet33,1,1152,NaN,clock,clock,c30,1152_cop_dnn_c30_clock_10_n04548280_8646.png
bagnet33,1,1153,NaN,airplane,airplane,c100,1153_cop_dnn_c100_airplane_10_n02690373_9720.png
bagnet33,1,1154,NaN,truck,truck,c30,1154_cop_dnn_c30_truck_10_n03417042_265.png
bagnet33,1,1155,NaN,clock,bear,c03,1155_cop_dnn_c03_bear_10_n02132136_10309.png
bagnet33,1,1156,NaN,airplane,airplane,c01,1156_cop_dnn_c01_airplane_10_n02690373_13591.png
bagnet33,1,1157,NaN,knife,cat,c01,1157_cop_dnn_c01_cat_10_n02123045_7334.png
bagnet33,1,1158,NaN,airplane,airplane,c100,1158_cop_dnn_c100_airplane_10_n02690373_220.png
bagnet33,1,1159,NaN,clock,clock,c100,1159_cop_dnn_c100_clock_10_n04548280_1053.png
bagnet33,1,1160,NaN,airplane,chair,c05,1160_cop_dnn_c05_chair_10_n02791124_3531.png
bagnet33,1,1161,NaN,airplane,chair,c10,1161_cop_dnn_c10_chair_10_n04099969_4009.png
bagnet33,1,1162,NaN,bottle,bottle,c100,1162_cop_dnn_c100_bottle_10_n03983396_2182.png
bagnet33,1,1163,NaN,airplane,truck,c50,1163_cop_dnn_c50_truck_10_n03796401_10519.png
bagnet33,1,1164,NaN,knife,clock,c10,1164_cop_dnn_c10_clock_10_n03196217_1271.png
bagnet33,1,1165,NaN,knife,bottle,c10,1165_cop_dnn_c10_bottle_10_n04557648_818.png
bagnet33,1,1166,NaN,keyboard,keyboard,c10,1166_cop_dnn_c10_keyboard_10_n04505470_2421.png
bagnet33,1,1167,NaN,airplane,bottle,c01,1167_cop_dnn_c01_bottle_10_n04557648_11142.png
bagnet33,1,1168,NaN,bicycle,bicycle,c50,1168_cop_dnn_c50_bicycle_10_n02835271_25718.png
bagnet33,1,1169,NaN,airplane,truck,c30,1169_cop_dnn_c30_truck_10_n04467665_71074.png
bagnet33,1,1170,NaN,knife,knife,c10,1170_cop_dnn_c10_knife_10_n03041632_24646.png
bagnet33,1,1171,NaN,knife,airplane,c01,1171_cop_dnn_c01_airplane_10_n02690373_9869.png
bagnet33,1,1172,NaN,airplane,bicycle,c01,1172_cop_dnn_c01_bicycle_10_n03792782_19053.png
bagnet33,1,1173,NaN,bottle,bottle,c30,1173_cop_dnn_c30_bottle_10_n04591713_7476.png
bagnet33,1,1174,NaN,airplane,boat,c05,1174_cop_dnn_c05_boat_10_n03662601_4246.png
bagnet33,1,1175,NaN,airplane,truck,c30,1175_cop_dnn_c30_truck_10_n04467665_56527.png
bagnet33,1,1176,NaN,airplane,airplane,c05,1176_cop_dnn_c05_airplane_10_n02690373_4945.png
bagnet33,1,1177,NaN,knife,bottle,c03,1177_cop_dnn_c03_bottle_10_n03937543_5257.png
bagnet33,1,1178,NaN,keyboard,keyboard,c15,1178_cop_dnn_c15_keyboard_10_n04505470_725.png
bagnet33,1,1179,NaN,knife,knife,c01,1179_cop_dnn_c01_knife_10_n03041632_21590.png
bagnet33,1,1180,NaN,airplane,bear,c30,1180_cop_dnn_c30_bear_10_n02132136_915.png
bagnet33,1,1181,NaN,bear,cat,c15,1181_cop_dnn_c15_cat_10_n02125311_24985.png
bagnet33,1,1182,NaN,bird,bird,c30,1182_cop_dnn_c30_bird_10_n01514859_8317.png
bagnet33,1,1183,NaN,keyboard,keyboard,c30,1183_cop_dnn_c30_keyboard_10_n03085013_20462.png
bagnet33,1,1184,NaN,dog,bear,c100,1184_cop_dnn_c100_bear_10_n02132136_10833.png
bagnet33,1,1185,NaN,bicycle,bicycle,c100,1185_cop_dnn_c100_bicycle_10_n02835271_22549.png
bagnet33,1,1186,NaN,boat,boat,c100,1186_cop_dnn_c100_boat_10_n02951358_14624.png
bagnet33,1,1187,NaN,airplane,airplane,c10,1187_cop_dnn_c10_airplane_10_n02690373_9642.png
bagnet33,1,1188,NaN,elephant,elephant,c100,1188_cop_dnn_c100_elephant_10_n02504458_5652.png
bagnet33,1,1189,NaN,airplane,airplane,c15,1189_cop_dnn_c15_airplane_10_n02690373_4921.png
bagnet33,1,1190,NaN,knife,elephant,c05,1190_cop_dnn_c05_elephant_10_n02504458_6029.png
bagnet33,1,1191,NaN,knife,keyboard,c03,1191_cop_dnn_c03_keyboard_10_n04505470_432.png
bagnet33,1,1192,NaN,airplane,cat,c03,1192_cop_dnn_c03_cat_10_n02123597_14713.png
bagnet33,1,1193,NaN,airplane,elephant,c01,1193_cop_dnn_c01_elephant_10_n02504458_5331.png
bagnet33,1,1194,NaN,knife,car,c05,1194_cop_dnn_c05_car_10_n04285008_3891.png
bagnet33,1,1195,NaN,boat,boat,c50,1195_cop_dnn_c50_boat_10_n04273569_4380.png
bagnet33,1,1196,NaN,bicycle,bicycle,c30,1196_cop_dnn_c30_bicycle_10_n03792782_67167.png
bagnet33,1,1197,NaN,boat,boat,c05,1197_cop_dnn_c05_boat_10_n02951358_33807.png
bagnet33,1,1198,NaN,knife,knife,c05,1198_cop_dnn_c05_knife_10_n03041632_46112.png
bagnet33,1,1199,NaN,truck,oven,c05,1199_cop_dnn_c05_oven_10_n04111531_13822.png
bagnet33,1,1200,NaN,bottle,bottle,c10,1200_cop_dnn_c10_bottle_10_n04579145_784.png
bagnet33,1,1201,NaN,car,car,c30,1201_cop_dnn_c30_car_10_n04285008_12453.png
bagnet33,1,1202,NaN,chair,chair,c50,1202_cop_dnn_c50_chair_10_n02791124_2173.png
bagnet33,1,1203,NaN,airplane,bear,c03,1203_cop_dnn_c03_bear_10_n02134418_1102.png
bagnet33,1,1204,NaN,knife,keyboard,c01,1204_cop_dnn_c01_keyboard_10_n03085013_18674.png
bagnet33,1,1205,NaN,knife,chair,c03,1205_cop_dnn_c03_chair_10_n02791124_3245.png
bagnet33,1,1206,NaN,knife,dog,c10,1206_cop_dnn_c10_dog_10_n02111129_932.png
