subj,Session,trial,rt,object_response,category,condition,imagename
subject-04,1,1,0.821409940719604,bear,car,180,0001_ps_s04_180_car_10_n04285008_9080.png
subject-04,1,2,1.05927777290344,cat,bear,150,0002_ps_s04_150_bear_10_n02134418_10318.png
subject-04,1,3,0.901108026504517,bear,elephant,180,0003_ps_s04_180_elephant_10_n02504013_6984.png
subject-04,1,4,1.07290506362915,dog,bear,150,0004_ps_s04_150_bear_10_n02132136_7067.png
subject-04,1,5,1.03271007537842,oven,bird,150,0005_ps_s04_150_bird_10_n01828970_22.png
subject-04,1,6,1.33645486831665,clock,truck,60,0006_ps_s04_60_truck_10_n04467665_30461.png
subject-04,1,7,0.764762163162231,bicycle,bicycle,30,0007_ps_s04_30_bicycle_10_n02835271_12188.png
subject-04,1,8,1.27828907966614,bicycle,knife,180,0008_ps_s04_180_knife_10_n03041632_18859.png
subject-04,1,9,1.50005602836609,clock,boat,150,0009_ps_s04_150_boat_10_n02951358_11586.png
subject-04,1,10,1.10181498527527,car,car,90,0010_ps_s04_90_car_10_n04285008_203.png
subject-04,1,11,0.973618030548096,dog,dog,30,0011_ps_s04_30_dog_10_n02101388_5116.png
subject-04,1,12,0.895318031311035,bear,dog,180,0012_ps_s04_180_dog_10_n02091032_6523.png
subject-04,1,13,1.18310403823853,bird,cat,90,0013_ps_s04_90_cat_10_n02125311_36138.png
subject-04,1,14,1.03311514854431,knife,knife,60,0014_ps_s04_60_knife_10_n03041632_105081.png
subject-04,1,15,0.746856927871704,cat,cat,30,0015_ps_s04_30_cat_10_n02123159_677.png
subject-04,1,16,0.658630847930908,clock,clock,30,0016_ps_s04_30_clock_10_n02708093_51.png
subject-04,1,17,1.34633088111877,boat,truck,120,0017_ps_s04_120_truck_10_n03796401_9198.png
subject-04,1,18,0.690179824829102,elephant,elephant,0,0018_ps_s04_0_elephant_10_n02504013_20805.png
subject-04,1,19,0.846090078353882,keyboard,keyboard,180,0019_ps_s04_180_keyboard_10_n03085013_4298.png
subject-04,1,20,0.835885047912598,airplane,airplane,0,0020_ps_s04_0_airplane_10_n02690373_3899.png
subject-04,1,21,1.01368117332458,car,keyboard,180,0021_ps_s04_180_keyboard_10_n03085013_25675.png
subject-04,1,22,0.987517833709717,clock,oven,30,0022_ps_s04_30_oven_10_n04111531_2831.png
subject-04,1,23,1.35137295722961,truck,bear,150,0023_ps_s04_150_bear_10_n02133161_14317.png
subject-04,1,24,1.27097392082214,car,bird,150,0024_ps_s04_150_bird_10_n01855032_1306.png
subject-04,1,25,1.25127506256104,bear,dog,60,0025_ps_s04_60_dog_10_n02113712_5829.png
subject-04,1,26,0.528956174850464,clock,clock,0,0026_ps_s04_0_clock_10_n04548280_2170.png
subject-04,1,27,0.988392114639282,cat,oven,90,0027_ps_s04_90_oven_10_n04111531_5965.png
subject-04,1,28,1.09635210037231,bottle,bottle,150,0028_ps_s04_150_bottle_10_n03937543_71.png
subject-04,1,29,0.788609981536865,chair,cat,150,0029_ps_s04_150_cat_10_n02123159_615.png
subject-04,1,30,0.61203408241272,car,car,90,0030_ps_s04_90_car_10_n02814533_35102.png
subject-04,1,31,0.908294916152954,bird,bird,60,0031_ps_s04_60_bird_10_n01843383_10059.png
subject-04,1,32,0.795781850814819,chair,chair,0,0032_ps_s04_0_chair_10_n04099969_1028.png
subject-04,1,33,0.747638940811157,bottle,bottle,120,0033_ps_s04_120_bottle_10_n02823428_3111.png
subject-04,1,34,0.947303056716919,chair,chair,0,0034_ps_s04_0_chair_10_n02791124_2928.png
subject-04,1,35,0.869024038314819,keyboard,elephant,180,0035_ps_s04_180_elephant_10_n02504458_1929.png
subject-04,1,36,1.16880989074707,boat,bicycle,90,0036_ps_s04_90_bicycle_10_n03792782_5494.png
subject-04,1,37,1.47867798805237,chair,knife,90,0037_ps_s04_90_knife_10_n03041632_84086.png
subject-04,1,38,0.952489137649536,keyboard,keyboard,60,0038_ps_s04_60_keyboard_10_n04505470_5880.png
subject-04,1,39,1.45812392234802,clock,elephant,150,0039_ps_s04_150_elephant_10_n02504013_10920.png
subject-04,1,40,0.852119922637939,boat,truck,150,0040_ps_s04_150_truck_10_n04467665_48953.png
subject-04,1,41,0.680118083953857,car,car,60,0041_ps_s04_60_car_10_n04285008_11990.png
subject-04,1,42,0.862272977828979,truck,car,180,0042_ps_s04_180_car_10_n03100240_6750.png
subject-04,1,43,1.32556581497192,boat,boat,90,0043_ps_s04_90_boat_10_n02951358_30773.png
subject-04,1,44,1.02745890617371,oven,dog,180,0044_ps_s04_180_dog_10_n02105162_9615.png
subject-04,1,45,1.03312397003174,knife,bottle,180,0045_ps_s04_180_bottle_10_n04579145_1856.png
subject-04,1,46,1.09488987922668,car,car,30,0046_ps_s04_30_car_10_n03100240_6216.png
subject-04,1,47,0.878935098648071,car,knife,120,0047_ps_s04_120_knife_10_n03041632_36280.png
subject-04,1,48,0.904852151870728,car,car,90,0048_ps_s04_90_car_10_n04285008_3096.png
subject-04,1,49,0.862399816513062,keyboard,truck,150,0049_ps_s04_150_truck_10_n03417042_6250.png
subject-04,1,50,0.742357969284058,boat,bear,90,0050_ps_s04_90_bear_10_n02133161_8856.png
subject-04,1,51,1.18589091300964,bird,bird,60,0051_ps_s04_60_bird_10_n01622779_13896.png
subject-04,1,52,1.08976197242737,keyboard,truck,150,0052_ps_s04_150_truck_10_n03417042_6480.png
subject-04,1,53,1.02568006515503,airplane,airplane,60,0053_ps_s04_60_airplane_10_n02690373_9376.png
subject-04,1,54,1.01565504074097,bear,bear,0,0054_ps_s04_0_bear_10_n02134084_5314.png
subject-04,1,55,1.50013399124146,chair,chair,90,0055_ps_s04_90_chair_10_n03376595_14563.png
subject-04,1,56,0.759197950363159,clock,bear,120,0056_ps_s04_120_bear_10_n02133161_2270.png
subject-04,1,57,0.927036046981812,bicycle,knife,180,0057_ps_s04_180_knife_10_n03041632_5820.png
subject-04,1,58,1.24488091468811,elephant,elephant,60,0058_ps_s04_60_elephant_10_n02504013_7314.png
subject-04,1,59,0.930502891540527,cat,truck,120,0059_ps_s04_120_truck_10_n04467665_69970.png
subject-04,1,60,1.37874698638916,oven,boat,60,0060_ps_s04_60_boat_10_n04273569_1457.png
subject-04,1,61,0.962210893630981,elephant,elephant,90,0061_ps_s04_90_elephant_10_n02504013_2233.png
subject-04,1,62,0.812100887298584,truck,truck,90,0062_ps_s04_90_truck_10_n04467665_22731.png
subject-04,1,63,0.873759031295776,bear,bear,0,0063_ps_s04_0_bear_10_n02134418_2324.png
subject-04,1,64,0.78583812713623,dog,bicycle,180,0064_ps_s04_180_bicycle_10_n02835271_5554.png
subject-04,1,65,0.929559946060181,oven,oven,30,0065_ps_s04_30_oven_10_n04111531_2770.png
subject-04,1,66,1.14727902412415,bottle,chair,180,0066_ps_s04_180_chair_10_n02791124_3994.png
subject-04,1,67,1.50014114379883,knife,oven,60,0067_ps_s04_60_oven_10_n04111531_15912.png
subject-04,1,68,1.16699886322021,car,car,0,0068_ps_s04_0_car_10_n03100240_9982.png
subject-04,1,69,0.860833168029785,oven,car,150,0069_ps_s04_150_car_10_n04285008_13076.png
subject-04,1,70,0.894556999206543,bicycle,bicycle,0,0070_ps_s04_0_bicycle_10_n03792782_23912.png
subject-04,1,71,1.24229311943054,bear,bird,120,0071_ps_s04_120_bird_10_n02018207_6296.png
subject-04,1,72,0.9204261302948,cat,knife,180,0072_ps_s04_180_knife_10_n03041632_44212.png
subject-04,1,73,0.775876998901367,bird,bird,90,0073_ps_s04_90_bird_10_n02027492_211.png
subject-04,1,74,1.31372308731079,dog,bird,120,0074_ps_s04_120_bird_10_n02009229_5172.png
subject-04,1,75,0.803555011749268,bear,bear,30,0075_ps_s04_30_bear_10_n02134418_5664.png
subject-04,1,76,1.13129615783691,airplane,airplane,30,0076_ps_s04_30_airplane_10_n02690373_13324.png
subject-04,1,77,0.757285118103027,clock,clock,90,0077_ps_s04_90_clock_10_n02708093_6696.png
subject-04,1,78,0.786929130554199,oven,airplane,150,0078_ps_s04_150_airplane_10_n02690373_4070.png
subject-04,1,79,0.850754022598267,bear,bird,120,0079_ps_s04_120_bird_10_n01616318_4652.png
subject-04,1,80,1.05850386619568,dog,dog,0,0080_ps_s04_0_dog_10_n02101388_1383.png
subject-04,1,81,0.968026876449585,airplane,bear,180,0081_ps_s04_180_bear_10_n02132136_110.png
subject-04,1,82,1.5000147819519,knife,truck,90,0082_ps_s04_90_truck_10_n03796401_7104.png
subject-04,1,83,1.02403807640076,bird,dog,60,0083_ps_s04_60_dog_10_n02086240_7247.png
subject-04,1,84,1.0296528339386,truck,truck,0,0084_ps_s04_0_truck_10_n03417042_16038.png
subject-04,1,85,1.27731084823608,bicycle,knife,90,0085_ps_s04_90_knife_10_n03041632_89391.png
subject-04,1,86,NaN,na,knife,120,0086_ps_s04_120_knife_10_n03041632_13612.png
subject-04,1,87,1.23898386955261,bird,bird,0,0087_ps_s04_0_bird_10_n01817953_2257.png
subject-04,1,88,0.896720170974731,keyboard,clock,150,0088_ps_s04_150_clock_10_n04548280_8535.png
subject-04,1,89,1.12685704231262,dog,dog,30,0089_ps_s04_30_dog_10_n02093859_1001.png
subject-04,1,90,0.936462163925171,bicycle,bicycle,30,0090_ps_s04_30_bicycle_10_n03792782_42927.png
subject-04,1,91,0.790275096893311,clock,bottle,90,0091_ps_s04_90_bottle_10_n02823428_1602.png
subject-04,1,92,0.589936017990112,cat,cat,30,0092_ps_s04_30_cat_10_n02125311_46527.png
subject-04,1,93,0.827719211578369,car,truck,150,0093_ps_s04_150_truck_10_n03417042_1279.png
subject-04,1,94,0.974010944366455,airplane,airplane,0,0094_ps_s04_0_airplane_10_n02690373_4144.png
subject-04,1,95,0.89958381652832,cat,elephant,150,0095_ps_s04_150_elephant_10_n02504458_4348.png
subject-04,1,96,0.901298999786377,bicycle,bicycle,60,0096_ps_s04_60_bicycle_10_n02835271_20714.png
subject-04,1,97,1.14707207679749,bicycle,elephant,120,0097_ps_s04_120_elephant_10_n02504013_1908.png
subject-04,1,98,1.3206799030304,dog,dog,0,0098_ps_s04_0_dog_10_n02095314_261.png
subject-04,1,99,1.11469197273254,knife,elephant,90,0099_ps_s04_90_elephant_10_n02504013_8856.png
subject-04,1,100,0.918754100799561,cat,boat,180,0100_ps_s04_180_boat_10_n03344393_7114.png
subject-04,1,101,0.940423965454102,bird,bird,30,0101_ps_s04_30_bird_10_n01843065_2664.png
subject-04,1,102,NaN,na,knife,0,0102_ps_s04_0_knife_10_n03041632_62810.png
subject-04,1,103,1.03190493583679,bicycle,bottle,90,0103_ps_s04_90_bottle_10_n04557648_11847.png
subject-04,1,104,0.799791812896729,cat,cat,150,0104_ps_s04_150_cat_10_n02125311_20241.png
subject-04,1,105,0.633653879165649,clock,clock,120,0105_ps_s04_120_clock_10_n04548280_3968.png
subject-04,1,106,0.945419073104858,bicycle,bicycle,30,0106_ps_s04_30_bicycle_10_n02835271_2505.png
subject-04,1,107,0.871202945709229,airplane,airplane,90,0107_ps_s04_90_airplane_10_n02690373_1436.png
subject-04,1,108,0.907058954238892,dog,bear,180,0108_ps_s04_180_bear_10_n02132136_20883.png
subject-04,1,109,0.834801912307739,bottle,bottle,0,0109_ps_s04_0_bottle_10_n02823428_2481.png
subject-04,1,110,1.09469294548035,airplane,boat,120,0110_ps_s04_120_boat_10_n03662601_4541.png
subject-04,1,111,1.18678998947144,keyboard,keyboard,30,0111_ps_s04_30_keyboard_10_n04505470_494.png
subject-04,1,112,1.50012898445129,knife,knife,60,0112_ps_s04_60_knife_10_n03041632_20662.png
subject-04,1,113,1.02185010910034,boat,boat,180,0113_ps_s04_180_boat_10_n03344393_5566.png
subject-04,1,114,1.0978832244873,bicycle,dog,180,0114_ps_s04_180_dog_10_n02110063_869.png
subject-04,1,115,1.14377903938293,bird,bird,0,0115_ps_s04_0_bird_10_n02013706_3221.png
subject-04,1,116,0.851574897766113,car,clock,150,0116_ps_s04_150_clock_10_n04548280_3301.png
subject-04,1,117,0.959305763244629,truck,truck,60,0117_ps_s04_60_truck_10_n04467665_50648.png
subject-04,1,118,0.807080030441284,car,car,90,0118_ps_s04_90_car_10_n02814533_8499.png
subject-04,1,119,0.806946992874146,knife,knife,90,0119_ps_s04_90_knife_10_n03041632_12242.png
subject-04,1,120,0.624852895736694,bicycle,bicycle,30,0120_ps_s04_30_bicycle_10_n02835271_9860.png
subject-04,1,121,0.770721912384033,car,clock,150,0121_ps_s04_150_clock_10_n04548280_23221.png
subject-04,1,122,0.946449995040894,car,car,120,0122_ps_s04_120_car_10_n02814533_13533.png
subject-04,1,123,0.724514007568359,car,boat,180,0123_ps_s04_180_boat_10_n03662601_15915.png
subject-04,1,124,1.49999904632568,dog,dog,90,0124_ps_s04_90_dog_10_n02108551_14704.png
subject-04,1,125,0.881955862045288,dog,dog,60,0125_ps_s04_60_dog_10_n02106550_6424.png
subject-04,1,126,0.665457963943481,cat,dog,150,0126_ps_s04_150_dog_10_n02110063_3399.png
subject-04,1,127,1.40342307090759,bear,dog,120,0127_ps_s04_120_dog_10_n02104029_7335.png
subject-04,1,128,0.711235046386719,airplane,airplane,0,0128_ps_s04_0_airplane_10_n02690373_7355.png
subject-04,1,129,0.695348024368286,boat,boat,30,0129_ps_s04_30_boat_10_n04273569_16064.png
subject-04,1,130,0.835131168365479,bicycle,dog,120,0130_ps_s04_120_dog_10_n02099849_4250.png
subject-04,1,131,0.692653179168701,cat,cat,120,0131_ps_s04_120_cat_10_n02123045_567.png
subject-04,1,132,0.604417085647583,elephant,elephant,0,0132_ps_s04_0_elephant_10_n02504013_1953.png
subject-04,1,133,0.806290149688721,cat,car,180,0133_ps_s04_180_car_10_n02814533_8490.png
subject-04,1,134,0.690233945846558,keyboard,keyboard,30,0134_ps_s04_30_keyboard_10_n03085013_2842.png
subject-04,1,135,1.19828295707703,keyboard,keyboard,60,0135_ps_s04_60_keyboard_10_n03085013_6424.png
subject-04,1,136,0.733808994293213,elephant,elephant,60,0136_ps_s04_60_elephant_10_n02504013_299.png
subject-04,1,137,0.761482000350952,bicycle,bicycle,90,0137_ps_s04_90_bicycle_10_n02835271_5821.png
subject-04,1,138,1.16967797279358,bicycle,airplane,150,0138_ps_s04_150_airplane_10_n02690373_19353.png
subject-04,1,139,1.44736003875732,oven,oven,60,0139_ps_s04_60_oven_10_n04111531_6590.png
subject-04,1,140,0.791352987289429,bird,bird,60,0140_ps_s04_60_bird_10_n02056570_8536.png
subject-04,1,141,1.33691811561584,bear,bottle,150,0141_ps_s04_150_bottle_10_n03937543_964.png
subject-04,1,142,0.712793111801147,keyboard,keyboard,90,0142_ps_s04_90_keyboard_10_n03085013_20247.png
subject-04,1,143,0.808295965194702,cat,bird,90,0143_ps_s04_90_bird_10_n01819313_2770.png
subject-04,1,144,0.906483173370361,oven,bottle,150,0144_ps_s04_150_bottle_10_n04560804_26326.png
subject-04,1,145,0.85801100730896,bicycle,bicycle,30,0145_ps_s04_30_bicycle_10_n02835271_5886.png
subject-04,1,146,0.785911083221436,clock,oven,180,0146_ps_s04_180_oven_10_n04111531_6756.png
subject-04,1,147,1.02951002120972,car,oven,180,0147_ps_s04_180_oven_10_n04111531_9026.png
subject-04,1,148,0.771505832672119,car,car,90,0148_ps_s04_90_car_10_n03100240_6010.png
subject-04,1,149,0.887464046478271,chair,oven,150,0149_ps_s04_150_oven_10_n04111531_13486.png
subject-04,1,150,1.20504212379456,dog,dog,30,0150_ps_s04_30_dog_10_n02093647_1022.png
subject-04,1,151,1.39699006080627,keyboard,chair,30,0151_ps_s04_30_chair_10_n04099969_8401.png
subject-04,1,152,0.962687969207764,bear,bicycle,150,0152_ps_s04_150_bicycle_10_n03792782_27445.png
subject-04,1,153,1.50012993812561,dog,bird,0,0153_ps_s04_0_bird_10_n01530575_5222.png
subject-04,1,154,1.11448287963867,dog,dog,30,0154_ps_s04_30_dog_10_n02108915_1165.png
subject-04,1,155,0.892250061035156,cat,oven,150,0155_ps_s04_150_oven_10_n04111531_458.png
subject-04,1,156,0.776381969451904,car,bird,180,0156_ps_s04_180_bird_10_n01818515_11687.png
subject-04,1,157,0.802251100540161,cat,cat,60,0157_ps_s04_60_cat_10_n02124075_12059.png
subject-04,1,158,0.960005044937134,dog,knife,150,0158_ps_s04_150_knife_10_n03041632_7064.png
subject-04,1,159,1.09780502319336,airplane,cat,180,0159_ps_s04_180_cat_10_n02123394_6362.png
subject-04,1,160,1.0092921257019,dog,clock,150,0160_ps_s04_150_clock_10_n03196217_1153.png
subject-04,1,161,1.1705470085144,chair,elephant,30,0161_ps_s04_30_elephant_10_n02504458_8644.png
subject-04,1,162,0.736368179321289,cat,cat,150,0162_ps_s04_150_cat_10_n02124075_14020.png
subject-04,1,163,0.66022801399231,bear,bear,30,0163_ps_s04_30_bear_10_n02133161_959.png
subject-04,1,164,1.04440999031067,dog,clock,180,0164_ps_s04_180_clock_10_n04548280_2334.png
subject-04,1,165,1.35777902603149,cat,clock,0,0165_ps_s04_0_clock_10_n03196217_8020.png
subject-04,1,166,0.929721117019653,chair,chair,0,0166_ps_s04_0_chair_10_n02791124_16885.png
subject-04,1,167,1.07976198196411,car,cat,120,0167_ps_s04_120_cat_10_n02123045_12046.png
subject-04,1,168,1.01529312133789,cat,truck,150,0168_ps_s04_150_truck_10_n03796401_7261.png
subject-04,1,169,0.873105049133301,bear,bear,0,0169_ps_s04_0_bear_10_n02134418_2254.png
subject-04,1,170,1.11295509338379,airplane,oven,150,0170_ps_s04_150_oven_10_n04111531_4900.png
subject-04,1,171,0.820971012115479,cat,chair,150,0171_ps_s04_150_chair_10_n02791124_7987.png
subject-04,1,172,0.936637163162231,truck,truck,30,0172_ps_s04_30_truck_10_n04467665_7329.png
subject-04,1,173,1.25022006034851,airplane,airplane,60,0173_ps_s04_60_airplane_10_n02690373_10203.png
subject-04,1,174,0.986158132553101,truck,truck,0,0174_ps_s04_0_truck_10_n04467665_13231.png
subject-04,1,175,1.15206813812256,dog,elephant,180,0175_ps_s04_180_elephant_10_n02504013_17589.png
subject-04,1,176,1.30574297904968,bottle,clock,180,0176_ps_s04_180_clock_10_n02708093_2721.png
subject-04,1,177,0.701721906661987,car,car,60,0177_ps_s04_60_car_10_n03100240_13602.png
subject-04,1,178,0.869568109512329,cat,cat,90,0178_ps_s04_90_cat_10_n02124075_15001.png
subject-04,1,179,1.07925510406494,bear,oven,150,0179_ps_s04_150_oven_10_n04111531_5737.png
subject-04,1,180,0.971252918243408,dog,dog,0,0180_ps_s04_0_dog_10_n02111129_5463.png
subject-04,1,181,0.735084056854248,car,truck,120,0181_ps_s04_120_truck_10_n03417042_20962.png
subject-04,1,182,1.16473388671875,truck,truck,0,0182_ps_s04_0_truck_10_n03417042_3482.png
subject-04,1,183,0.740430116653442,truck,truck,30,0183_ps_s04_30_truck_10_n04467665_6523.png
subject-04,1,184,1.0723659992218,keyboard,keyboard,180,0184_ps_s04_180_keyboard_10_n03085013_1808.png
subject-04,1,185,1.30211591720581,chair,clock,30,0185_ps_s04_30_clock_10_n03196217_8034.png
subject-04,1,186,0.799909114837646,bird,bird,90,0186_ps_s04_90_bird_10_n01530575_35115.png
subject-04,1,187,1.1878809928894,cat,bear,30,0187_ps_s04_30_bear_10_n02133161_545.png
subject-04,1,188,0.975548982620239,car,bear,180,0188_ps_s04_180_bear_10_n02133161_832.png
subject-04,1,189,1.16534805297852,bear,chair,180,0189_ps_s04_180_chair_10_n03376595_8377.png
subject-04,1,190,1.30103087425232,bicycle,clock,180,0190_ps_s04_180_clock_10_n03196217_6257.png
subject-04,1,191,1.2888970375061,elephant,dog,150,0191_ps_s04_150_dog_10_n02096585_271.png
subject-04,1,192,0.726737022399902,oven,bottle,180,0192_ps_s04_180_bottle_10_n04557648_3637.png
subject-04,1,193,0.760550975799561,bicycle,bicycle,60,0193_ps_s04_60_bicycle_10_n03792782_31010.png
subject-04,1,194,1.04430389404297,car,oven,120,0194_ps_s04_120_oven_10_n04111531_4322.png
subject-04,1,195,1.14046096801758,bear,bear,120,0195_ps_s04_120_bear_10_n02134084_825.png
subject-04,1,196,0.829797029495239,cat,cat,120,0196_ps_s04_120_cat_10_n02123597_7297.png
subject-04,1,197,0.781723022460938,knife,knife,30,0197_ps_s04_30_knife_10_n03041632_15444.png
subject-04,1,198,0.787633180618286,elephant,elephant,60,0198_ps_s04_60_elephant_10_n02504458_8141.png
subject-04,1,199,0.737436056137085,car,car,30,0199_ps_s04_30_car_10_n02814533_40344.png
subject-04,1,200,0.663305997848511,truck,keyboard,120,0200_ps_s04_120_keyboard_10_n04505470_8386.png
subject-04,1,201,0.667023897171021,keyboard,keyboard,30,0201_ps_s04_30_keyboard_10_n03085013_25066.png
subject-04,1,202,1.28110313415527,chair,bottle,0,0202_ps_s04_0_bottle_10_n03983396_23471.png
subject-04,1,203,1.17056488990784,dog,cat,180,0203_ps_s04_180_cat_10_n02124075_14363.png
subject-04,1,204,1.36844706535339,airplane,airplane,30,0204_ps_s04_30_airplane_10_n02690373_19107.png
subject-04,1,205,0.756700038909912,elephant,elephant,90,0205_ps_s04_90_elephant_10_n02504013_15805.png
subject-04,1,206,0.576126098632812,cat,cat,120,0206_ps_s04_120_cat_10_n02123045_8336.png
subject-04,1,207,0.765945196151733,truck,car,90,0207_ps_s04_90_car_10_n03100240_24001.png
subject-04,1,208,1.13772392272949,cat,dog,90,0208_ps_s04_90_dog_10_n02085782_4522.png
subject-04,1,209,1.30781078338623,keyboard,keyboard,120,0209_ps_s04_120_keyboard_10_n04505470_2909.png
subject-04,1,210,1.0672972202301,truck,truck,90,0210_ps_s04_90_truck_10_n03417042_10243.png
subject-04,1,211,1.02125215530396,cat,truck,120,0211_ps_s04_120_truck_10_n03796401_7518.png
subject-04,1,212,1.10909605026245,bottle,bottle,30,0212_ps_s04_30_bottle_10_n04579145_3769.png
subject-04,1,213,1.07475590705872,bear,dog,180,0213_ps_s04_180_dog_10_n02106166_134.png
subject-04,1,214,1.50015711784363,dog,dog,0,0214_ps_s04_0_dog_10_n02107574_1277.png
subject-04,1,215,0.796555995941162,cat,elephant,120,0215_ps_s04_120_elephant_10_n02504458_9213.png
subject-04,1,216,0.860242128372192,oven,chair,120,0216_ps_s04_120_chair_10_n03376595_4362.png
subject-04,1,217,1.07438993453979,bicycle,oven,180,0217_ps_s04_180_oven_10_n04111531_8330.png
subject-04,1,218,1.11786508560181,chair,chair,30,0218_ps_s04_30_chair_10_n02791124_1292.png
subject-04,1,219,0.789783000946045,keyboard,keyboard,60,0219_ps_s04_60_keyboard_10_n03085013_21490.png
subject-04,1,220,0.725448846817017,bicycle,bicycle,30,0220_ps_s04_30_bicycle_10_n02835271_807.png
subject-04,1,221,0.717298984527588,cat,clock,150,0221_ps_s04_150_clock_10_n04548280_8398.png
subject-04,1,222,1.02705693244934,oven,oven,30,0222_ps_s04_30_oven_10_n04111531_22834.png
subject-04,1,223,0.664720058441162,car,cat,150,0223_ps_s04_150_cat_10_n02123394_270.png
subject-04,1,224,1.13506603240967,knife,chair,120,0224_ps_s04_120_chair_10_n04429376_16869.png
subject-04,1,225,1.22232103347778,bottle,oven,0,0225_ps_s04_0_oven_10_n04111531_21404.png
subject-04,1,226,1.22268199920654,chair,chair,60,0226_ps_s04_60_chair_10_n02791124_6237.png
subject-04,1,227,0.774173021316528,car,bear,150,0227_ps_s04_150_bear_10_n02133161_4820.png
subject-04,1,228,0.962085008621216,clock,chair,60,0228_ps_s04_60_chair_10_n02791124_5898.png
subject-04,1,229,0.807754993438721,bottle,bottle,90,0229_ps_s04_90_bottle_10_n03983396_12757.png
subject-04,1,230,0.687391996383667,boat,elephant,150,0230_ps_s04_150_elephant_10_n02504458_952.png
subject-04,1,231,NaN,na,oven,0,0231_ps_s04_0_oven_10_n04111531_15267.png
subject-04,1,232,0.635486125946045,clock,clock,120,0232_ps_s04_120_clock_10_n02708093_4061.png
subject-04,1,233,1.50007891654968,bird,oven,180,0233_ps_s04_180_oven_10_n04111531_6474.png
subject-04,1,234,1.19113612174988,truck,chair,90,0234_ps_s04_90_chair_10_n02791124_538.png
subject-04,1,235,0.802718162536621,cat,cat,0,0235_ps_s04_0_cat_10_n02123045_10887.png
subject-04,1,236,1.02084493637085,airplane,oven,180,0236_ps_s04_180_oven_10_n04111531_14611.png
subject-04,1,237,1.28819799423218,cat,cat,60,0237_ps_s04_60_cat_10_n02125311_54015.png
subject-04,1,238,0.690124034881592,boat,boat,60,0238_ps_s04_60_boat_10_n03344393_3499.png
subject-04,1,239,0.972198009490967,bottle,bottle,60,0239_ps_s04_60_bottle_10_n04557648_10582.png
subject-04,1,240,1.12172293663025,truck,truck,60,0240_ps_s04_60_truck_10_n03417042_13055.png
subject-04,1,241,1.20879197120667,clock,dog,150,0241_ps_s04_150_dog_10_n02110806_2269.png
subject-04,1,242,1.05283904075623,knife,knife,60,0242_ps_s04_60_knife_10_n03041632_8321.png
subject-04,1,243,1.27066707611084,cat,bird,120,0243_ps_s04_120_bird_10_n01798484_2289.png
subject-04,1,244,0.754377126693726,airplane,airplane,30,0244_ps_s04_30_airplane_10_n02690373_10207.png
subject-04,1,245,0.87040114402771,keyboard,keyboard,60,0245_ps_s04_60_keyboard_10_n03085013_15836.png
subject-04,1,246,0.738272905349731,knife,knife,30,0246_ps_s04_30_knife_10_n03041632_36277.png
subject-04,1,247,0.805853128433228,cat,cat,60,0247_ps_s04_60_cat_10_n02123394_6487.png
subject-04,1,248,1.22956991195679,bird,bird,30,0248_ps_s04_30_bird_10_n01796340_2973.png
subject-04,1,249,0.637706995010376,cat,cat,0,0249_ps_s04_0_cat_10_n02123394_6517.png
subject-04,1,250,1.11137700080872,boat,boat,30,0250_ps_s04_30_boat_10_n04273569_15583.png
subject-04,1,251,0.735307931900024,cat,bottle,90,0251_ps_s04_90_bottle_10_n02823428_14196.png
subject-04,1,252,0.702799081802368,cat,bottle,120,0252_ps_s04_120_bottle_10_n03983396_3294.png
subject-04,1,253,1.44453310966492,car,car,0,0253_ps_s04_0_car_10_n02814533_95144.png
subject-04,1,254,1.03043913841248,bear,elephant,120,0254_ps_s04_120_elephant_10_n02504013_1784.png
subject-04,1,255,1.44050312042236,oven,bear,180,0255_ps_s04_180_bear_10_n02133161_2316.png
subject-04,1,256,0.96419095993042,chair,chair,90,0256_ps_s04_90_chair_10_n04099969_18380.png
subject-04,1,257,1.5001380443573,car,car,30,0257_ps_s04_30_car_10_n04285008_13.png
subject-04,1,258,0.730278015136719,bicycle,bicycle,120,0258_ps_s04_120_bicycle_10_n03792782_4600.png
subject-04,1,259,0.601485013961792,cat,cat,90,0259_ps_s04_90_cat_10_n02123394_702.png
subject-04,1,260,0.689470052719116,chair,chair,60,0260_ps_s04_60_chair_10_n04099969_16382.png
subject-04,1,261,0.72153902053833,cat,cat,30,0261_ps_s04_30_cat_10_n02124075_11776.png
subject-04,1,262,1.01702404022217,elephant,elephant,90,0262_ps_s04_90_elephant_10_n02504458_7857.png
subject-04,1,263,0.952950954437256,bottle,bottle,0,0263_ps_s04_0_bottle_10_n03937543_3253.png
subject-04,1,264,1.46273493766785,bicycle,airplane,180,0264_ps_s04_180_airplane_10_n02690373_7536.png
subject-04,1,265,0.984413862228394,elephant,elephant,30,0265_ps_s04_30_elephant_10_n02504013_8308.png
subject-04,1,266,0.944406986236572,bicycle,cat,180,0266_ps_s04_180_cat_10_n02123394_7859.png
subject-04,1,267,1.21219301223755,chair,bottle,120,0267_ps_s04_120_bottle_10_n03937543_10666.png
subject-04,1,268,0.652060985565186,clock,clock,120,0268_ps_s04_120_clock_10_n04548280_13247.png
subject-04,1,269,0.7778160572052,cat,cat,60,0269_ps_s04_60_cat_10_n02123159_6873.png
subject-04,1,270,1.09349083900452,cat,knife,180,0270_ps_s04_180_knife_10_n03041632_2973.png
subject-04,1,271,0.789480924606323,cat,dog,120,0271_ps_s04_120_dog_10_n02086240_7359.png
subject-04,1,272,1.44953417778015,elephant,bottle,180,0272_ps_s04_180_bottle_10_n03983396_4775.png
subject-04,1,273,0.989212989807129,bicycle,bottle,120,0273_ps_s04_120_bottle_10_n04560804_15162.png
subject-04,1,274,0.615063905715942,clock,clock,60,0274_ps_s04_60_clock_10_n04548280_11597.png
subject-04,1,275,1.21262311935425,airplane,airplane,120,0275_ps_s04_120_airplane_10_n02690373_13206.png
subject-04,1,276,0.930474042892456,bottle,bottle,0,0276_ps_s04_0_bottle_10_n02823428_685.png
subject-04,1,277,0.836302042007446,chair,chair,0,0277_ps_s04_0_chair_10_n03376595_3062.png
subject-04,1,278,1.50001406669617,car,truck,90,0278_ps_s04_90_truck_10_n03796401_27268.png
subject-04,1,279,1.33419799804688,keyboard,clock,120,0279_ps_s04_120_clock_10_n02708093_1539.png
subject-04,1,280,1.01977705955505,boat,boat,120,0280_ps_s04_120_boat_10_n04273569_20587.png
subject-04,1,281,1.1636209487915,clock,clock,120,0281_ps_s04_120_clock_10_n04548280_354.png
subject-04,1,282,0.901206016540527,truck,truck,120,0282_ps_s04_120_truck_10_n03796401_4370.png
subject-04,1,283,0.921174049377441,bicycle,cat,150,0283_ps_s04_150_cat_10_n02123597_3280.png
subject-04,1,284,0.749022006988525,oven,bottle,150,0284_ps_s04_150_bottle_10_n04591713_5851.png
subject-04,1,285,1.1907639503479,knife,knife,180,0285_ps_s04_180_knife_10_n03041632_44230.png
subject-04,1,286,0.798574924468994,boat,boat,0,0286_ps_s04_0_boat_10_n03662601_37095.png
subject-04,1,287,1.03036212921143,boat,boat,120,0287_ps_s04_120_boat_10_n03662601_7271.png
subject-04,1,288,0.75813102722168,bicycle,bicycle,120,0288_ps_s04_120_bicycle_10_n02835271_4138.png
subject-04,1,289,NaN,na,bicycle,150,0289_ps_s04_150_bicycle_10_n02835271_783.png
subject-04,1,290,1.04620409011841,dog,boat,150,0290_ps_s04_150_boat_10_n02951358_30995.png
subject-04,1,291,1.47772192955017,oven,knife,150,0291_ps_s04_150_knife_10_n03041632_19275.png
subject-04,1,292,1.23522901535034,boat,dog,180,0292_ps_s04_180_dog_10_n02099601_6318.png
subject-04,1,293,1.36107420921326,cat,car,150,0293_ps_s04_150_car_10_n03100240_4594.png
subject-04,1,294,1.12123107910156,boat,airplane,90,0294_ps_s04_90_airplane_10_n02690373_1854.png
subject-04,1,295,0.814785957336426,boat,bear,120,0295_ps_s04_120_bear_10_n02134084_4028.png
subject-04,1,296,1.14680004119873,elephant,truck,150,0296_ps_s04_150_truck_10_n03417042_18705.png
subject-04,1,297,0.804352998733521,cat,dog,0,0297_ps_s04_0_dog_10_n02097047_705.png
subject-04,1,298,1.15241599082947,dog,chair,120,0298_ps_s04_120_chair_10_n04099969_9005.png
subject-04,1,299,0.582120180130005,clock,clock,90,0299_ps_s04_90_clock_10_n04548280_764.png
subject-04,1,300,0.960113048553467,airplane,airplane,120,0300_ps_s04_120_airplane_10_n02690373_3709.png
subject-04,1,301,1.48565316200256,clock,clock,30,0301_ps_s04_30_clock_10_n03196217_4537.png
subject-04,1,302,1.01163697242737,chair,chair,60,0302_ps_s04_60_chair_10_n04099969_246.png
subject-04,1,303,1.50006699562073,boat,car,180,0303_ps_s04_180_car_10_n03100240_18276.png
subject-04,1,304,0.639265775680542,cat,cat,90,0304_ps_s04_90_cat_10_n02125311_36331.png
subject-04,1,305,0.692950010299683,oven,oven,30,0305_ps_s04_30_oven_10_n04111531_16198.png
subject-04,1,306,1.45076894760132,car,car,60,0306_ps_s04_60_car_10_n04285008_10755.png
subject-04,1,307,0.676676988601685,car,car,120,0307_ps_s04_120_car_10_n02814533_19373.png
subject-04,1,308,0.736333131790161,car,airplane,180,0308_ps_s04_180_airplane_10_n02690373_1592.png
subject-04,1,309,0.674597024917603,airplane,airplane,90,0309_ps_s04_90_airplane_10_n02690373_19133.png
subject-04,1,310,1.38604211807251,chair,keyboard,150,0310_ps_s04_150_keyboard_10_n03085013_3148.png
subject-04,1,311,0.751986026763916,chair,chair,30,0311_ps_s04_30_chair_10_n03376595_12364.png
subject-04,1,312,1.0056791305542,cat,clock,180,0312_ps_s04_180_clock_10_n04548280_4560.png
subject-04,1,313,0.567322015762329,chair,chair,30,0313_ps_s04_30_chair_10_n03376595_15124.png
subject-04,1,314,0.653252124786377,keyboard,keyboard,0,0314_ps_s04_0_keyboard_10_n03085013_21967.png
subject-04,1,315,1.10081911087036,bicycle,oven,90,0315_ps_s04_90_oven_10_n04111531_274.png
subject-04,1,316,0.82703685760498,elephant,elephant,0,0316_ps_s04_0_elephant_10_n02504013_3087.png
subject-04,1,317,0.874906063079834,airplane,airplane,30,0317_ps_s04_30_airplane_10_n02690373_3639.png
subject-04,1,318,1.49456000328064,dog,bird,120,0318_ps_s04_120_bird_10_n01855672_3952.png
subject-04,1,319,1.25238800048828,bicycle,bird,150,0319_ps_s04_150_bird_10_n01795545_17324.png
subject-04,1,320,0.848201036453247,cat,elephant,150,0320_ps_s04_150_elephant_10_n02504013_6659.png
subject-04,1,321,0.983787059783936,chair,boat,30,0321_ps_s04_30_boat_10_n03344393_8374.png
subject-04,1,322,0.937696933746338,bicycle,bottle,150,0322_ps_s04_150_bottle_10_n02823428_8543.png
subject-04,1,323,1.1493558883667,dog,bicycle,180,0323_ps_s04_180_bicycle_10_n02835271_4789.png
subject-04,1,324,1.14927387237549,airplane,clock,120,0324_ps_s04_120_clock_10_n02708093_111.png
subject-04,1,325,0.987001180648804,clock,bottle,90,0325_ps_s04_90_bottle_10_n04579145_4594.png
subject-04,1,326,1.35686111450195,bottle,clock,90,0326_ps_s04_90_clock_10_n03196217_127.png
subject-04,1,327,0.560817956924438,clock,clock,30,0327_ps_s04_30_clock_10_n04548280_4390.png
subject-04,1,328,1.07475996017456,dog,dog,0,0328_ps_s04_0_dog_10_n02107908_1423.png
subject-04,1,329,1.46830201148987,car,clock,60,0329_ps_s04_60_clock_10_n02708093_7973.png
subject-04,1,330,1.13823485374451,cat,clock,180,0330_ps_s04_180_clock_10_n02708093_2482.png
subject-04,1,331,0.801949977874756,truck,truck,0,0331_ps_s04_0_truck_10_n04467665_18234.png
subject-04,1,332,1.10564398765564,bottle,bottle,30,0332_ps_s04_30_bottle_10_n04560804_8454.png
subject-04,1,333,0.731765031814575,boat,chair,150,0333_ps_s04_150_chair_10_n04429376_6242.png
subject-04,1,334,0.7915940284729,bottle,bottle,0,0334_ps_s04_0_bottle_10_n04560804_2165.png
subject-04,1,335,0.721220016479492,airplane,airplane,60,0335_ps_s04_60_airplane_10_n02690373_1706.png
subject-04,1,336,0.962980985641479,oven,truck,180,0336_ps_s04_180_truck_10_n04467665_39477.png
subject-04,1,337,0.870522975921631,bicycle,bicycle,60,0337_ps_s04_60_bicycle_10_n02835271_25519.png
subject-04,1,338,1.22472786903381,truck,truck,0,0338_ps_s04_0_truck_10_n03796401_3411.png
subject-04,1,339,0.75633692741394,car,car,120,0339_ps_s04_120_car_10_n04285008_3884.png
subject-04,1,340,1.29603099822998,truck,boat,90,0340_ps_s04_90_boat_10_n03344393_3072.png
subject-04,1,341,0.851959943771362,elephant,elephant,0,0341_ps_s04_0_elephant_10_n02504013_5996.png
subject-04,1,342,0.701788902282715,bear,bear,60,0342_ps_s04_60_bear_10_n02132136_686.png
subject-04,1,343,0.959947824478149,truck,truck,30,0343_ps_s04_30_truck_10_n03417042_14861.png
subject-04,1,344,1.04148387908936,boat,airplane,120,0344_ps_s04_120_airplane_10_n02690373_2648.png
subject-04,1,345,NaN,na,keyboard,150,0345_ps_s04_150_keyboard_10_n04505470_2113.png
subject-04,1,346,0.643481016159058,airplane,airplane,0,0346_ps_s04_0_airplane_10_n02690373_1325.png
subject-04,1,347,1.40099310874939,cat,bird,90,0347_ps_s04_90_bird_10_n02006656_7456.png
subject-04,1,348,0.940823078155518,dog,bicycle,120,0348_ps_s04_120_bicycle_10_n02835271_9237.png
subject-04,1,349,0.848696947097778,bear,bottle,150,0349_ps_s04_150_bottle_10_n02823428_3711.png
subject-04,1,350,0.660268068313599,boat,boat,120,0350_ps_s04_120_boat_10_n03344393_11315.png
subject-04,1,351,0.570574045181274,car,truck,150,0351_ps_s04_150_truck_10_n03417042_5503.png
subject-04,1,352,0.828013181686401,truck,truck,60,0352_ps_s04_60_truck_10_n03417042_173.png
subject-04,1,353,0.819597959518433,elephant,dog,180,0353_ps_s04_180_dog_10_n02099429_4843.png
subject-04,1,354,1.04370403289795,truck,truck,90,0354_ps_s04_90_truck_10_n03796401_6772.png
subject-04,1,355,1.0712878704071,bicycle,bicycle,60,0355_ps_s04_60_bicycle_10_n02835271_4730.png
subject-04,1,356,1.03929805755615,clock,clock,30,0356_ps_s04_30_clock_10_n03196217_5267.png
subject-04,1,357,0.712968826293945,bear,bear,30,0357_ps_s04_30_bear_10_n02132136_21267.png
subject-04,1,358,1.08883810043335,oven,oven,90,0358_ps_s04_90_oven_10_n04111531_6346.png
subject-04,1,359,0.684667110443115,bear,bear,90,0359_ps_s04_90_bear_10_n02134418_270.png
subject-04,1,360,1.04444098472595,truck,truck,0,0360_ps_s04_0_truck_10_n03417042_3389.png
subject-04,1,361,NaN,na,dog,30,0361_ps_s04_30_dog_10_n02109525_72594.png
subject-04,1,362,1.22403192520142,bicycle,chair,150,0362_ps_s04_150_chair_10_n04099969_3768.png
subject-04,1,363,0.675850868225098,car,car,60,0363_ps_s04_60_car_10_n03100240_8107.png
subject-04,1,364,0.771698951721191,truck,oven,120,0364_ps_s04_120_oven_10_n04111531_2922.png
subject-04,1,365,0.885355949401855,bicycle,bicycle,30,0365_ps_s04_30_bicycle_10_n03792782_8374.png
subject-04,1,366,0.755589962005615,oven,bottle,150,0366_ps_s04_150_bottle_10_n04557648_8320.png
subject-04,1,367,0.763073921203613,keyboard,keyboard,60,0367_ps_s04_60_keyboard_10_n03085013_17795.png
subject-04,1,368,0.810842037200928,boat,keyboard,150,0368_ps_s04_150_keyboard_10_n03085013_20570.png
subject-04,1,369,0.907026052474976,boat,airplane,150,0369_ps_s04_150_airplane_10_n02690373_4452.png
subject-04,1,370,0.696614980697632,cat,cat,90,0370_ps_s04_90_cat_10_n02123597_3821.png
subject-04,1,371,0.968360900878906,car,dog,150,0371_ps_s04_150_dog_10_n02108000_6454.png
subject-04,1,372,0.734109878540039,airplane,boat,0,0372_ps_s04_0_boat_10_n04273569_15322.png
subject-04,1,373,0.836297988891602,bear,bear,30,0373_ps_s04_30_bear_10_n02133161_6861.png
subject-04,1,374,0.897680997848511,car,cat,150,0374_ps_s04_150_cat_10_n02125311_11409.png
subject-04,1,375,0.923913955688477,truck,bicycle,180,0375_ps_s04_180_bicycle_10_n03792782_3334.png
subject-04,1,376,0.623600006103516,boat,boat,30,0376_ps_s04_30_boat_10_n03662601_26273.png
subject-04,1,377,1.06914901733398,knife,bottle,30,0377_ps_s04_30_bottle_10_n04557648_900.png
subject-04,1,378,1.50002789497375,bottle,knife,30,0378_ps_s04_30_knife_10_n03041632_25603.png
subject-04,1,379,0.743129014968872,bicycle,elephant,120,0379_ps_s04_120_elephant_10_n02504458_694.png
subject-04,1,380,0.726480007171631,truck,truck,30,0380_ps_s04_30_truck_10_n04467665_48875.png
subject-04,1,381,0.680546045303345,keyboard,keyboard,0,0381_ps_s04_0_keyboard_10_n04505470_1117.png
subject-04,1,382,1.31428813934326,bicycle,bird,60,0382_ps_s04_60_bird_10_n02011460_3509.png
subject-04,1,383,1.18012809753418,car,bottle,90,0383_ps_s04_90_bottle_10_n04591713_2014.png
subject-04,1,384,1.15609192848206,knife,knife,90,0384_ps_s04_90_knife_10_n03041632_32896.png
subject-04,1,385,NaN,na,bird,0,0385_ps_s04_0_bird_10_n02056570_9835.png
subject-04,1,386,0.897234916687012,bear,bear,120,0386_ps_s04_120_bear_10_n02134418_2561.png
subject-04,1,387,1.50009799003601,keyboard,keyboard,60,0387_ps_s04_60_keyboard_10_n03085013_19565.png
subject-04,1,388,0.671265125274658,cat,bird,120,0388_ps_s04_120_bird_10_n02002556_2350.png
subject-04,1,389,0.985306978225708,elephant,elephant,60,0389_ps_s04_60_elephant_10_n02504013_10389.png
subject-04,1,390,NaN,na,cat,90,0390_ps_s04_90_cat_10_n02123394_6311.png
subject-04,1,391,0.662694931030273,knife,knife,120,0391_ps_s04_120_knife_10_n03041632_51581.png
subject-04,1,392,1.24252200126648,bear,elephant,90,0392_ps_s04_90_elephant_10_n02504013_3640.png
subject-04,1,393,0.74260401725769,bear,bear,120,0393_ps_s04_120_bear_10_n02133161_361.png
subject-04,1,394,0.772057056427002,airplane,airplane,0,0394_ps_s04_0_airplane_10_n02690373_4119.png
subject-04,1,395,1.00195217132568,truck,truck,90,0395_ps_s04_90_truck_10_n03417042_3238.png
subject-04,1,396,0.673573017120361,boat,boat,0,0396_ps_s04_0_boat_10_n02951358_15218.png
subject-04,1,397,0.641621112823486,car,truck,180,0397_ps_s04_180_truck_10_n04467665_23758.png
subject-04,1,398,1.0456440448761,keyboard,airplane,180,0398_ps_s04_180_airplane_10_n02690373_4691.png
subject-04,1,399,0.679074048995972,cat,oven,120,0399_ps_s04_120_oven_10_n04111531_5888.png
subject-04,1,400,0.979351997375488,cat,cat,0,0400_ps_s04_0_cat_10_n02123045_13354.png
subject-04,1,401,0.696476936340332,boat,boat,60,0401_ps_s04_60_boat_10_n02951358_12080.png
subject-04,1,402,0.790126800537109,airplane,bird,180,0402_ps_s04_180_bird_10_n01833805_8179.png
subject-04,1,403,0.800036907196045,bear,bear,0,0403_ps_s04_0_bear_10_n02134084_42197.png
subject-04,1,404,0.605777978897095,chair,chair,0,0404_ps_s04_0_chair_10_n03376595_262.png
subject-04,1,405,0.635725021362305,car,bicycle,180,0405_ps_s04_180_bicycle_10_n02835271_9314.png
subject-04,1,406,1.50001502037048,elephant,oven,60,0406_ps_s04_60_oven_10_n04111531_13542.png
subject-04,1,407,0.653340101242065,cat,cat,120,0407_ps_s04_120_cat_10_n02124075_2402.png
subject-04,1,408,0.944785118103027,car,car,120,0408_ps_s04_120_car_10_n04285008_3268.png
subject-04,1,409,0.904959917068481,truck,oven,120,0409_ps_s04_120_oven_10_n04111531_924.png
subject-04,1,410,0.568639993667603,clock,clock,60,0410_ps_s04_60_clock_10_n04548280_1304.png
subject-04,1,411,0.586593866348267,boat,boat,0,0411_ps_s04_0_boat_10_n04273569_4330.png
subject-04,1,412,0.862512111663818,bear,chair,180,0412_ps_s04_180_chair_10_n04099969_19484.png
subject-04,1,413,1.09807109832764,truck,bicycle,120,0413_ps_s04_120_bicycle_10_n02835271_13644.png
subject-04,1,414,0.822041988372803,knife,knife,60,0414_ps_s04_60_knife_10_n03041632_4714.png
subject-04,1,415,0.759791851043701,knife,knife,30,0415_ps_s04_30_knife_10_n03041632_3717.png
subject-04,1,416,1.40145683288574,airplane,knife,120,0416_ps_s04_120_knife_10_n03041632_28129.png
subject-04,1,417,0.741311073303223,chair,chair,90,0417_ps_s04_90_chair_10_n03376595_8490.png
subject-04,1,418,0.852913856506348,bear,elephant,60,0418_ps_s04_60_elephant_10_n02504013_8905.png
subject-04,1,419,0.752744913101196,boat,boat,0,0419_ps_s04_0_boat_10_n04612504_15237.png
subject-04,1,420,0.944539070129395,bottle,bottle,90,0420_ps_s04_90_bottle_10_n02823428_4386.png
subject-04,1,421,0.802410125732422,truck,truck,60,0421_ps_s04_60_truck_10_n03796401_1681.png
subject-04,1,422,0.968322038650513,bottle,bottle,30,0422_ps_s04_30_bottle_10_n03983396_4564.png
subject-04,1,423,1.31426405906677,bicycle,bottle,120,0423_ps_s04_120_bottle_10_n03937543_5343.png
subject-04,1,424,1.06595683097839,bear,keyboard,150,0424_ps_s04_150_keyboard_10_n03085013_22821.png
subject-04,1,425,0.619800090789795,cat,bird,90,0425_ps_s04_90_bird_10_n01820546_7575.png
subject-04,1,426,0.863606929779053,keyboard,keyboard,120,0426_ps_s04_120_keyboard_10_n03085013_18763.png
subject-04,1,427,0.699352025985718,car,keyboard,150,0427_ps_s04_150_keyboard_10_n03085013_4999.png
subject-04,1,428,0.871242046356201,keyboard,elephant,120,0428_ps_s04_120_elephant_10_n02504013_5945.png
subject-04,1,429,1.48094296455383,airplane,airplane,90,0429_ps_s04_90_airplane_10_n02690373_3065.png
subject-04,1,430,1.36288285255432,cat,dog,60,0430_ps_s04_60_dog_10_n02107683_2484.png
subject-04,1,431,0.988744020462036,dog,dog,60,0431_ps_s04_60_dog_10_n02090721_1105.png
subject-04,1,432,0.924410104751587,bear,truck,180,0432_ps_s04_180_truck_10_n04467665_25129.png
subject-04,1,433,0.538264989852905,cat,truck,180,0433_ps_s04_180_truck_10_n04467665_35490.png
subject-04,1,434,0.860048055648804,bird,bird,90,0434_ps_s04_90_bird_10_n01819313_5521.png
subject-04,1,435,1.05014395713806,car,bird,150,0435_ps_s04_150_bird_10_n02018207_69.png
subject-04,1,436,0.866091012954712,boat,bird,30,0436_ps_s04_30_bird_10_n01860187_5008.png
subject-04,1,437,0.825558185577393,truck,truck,0,0437_ps_s04_0_truck_10_n03417042_28794.png
subject-04,1,438,0.601387977600098,oven,oven,0,0438_ps_s04_0_oven_10_n04111531_2342.png
subject-04,1,439,0.755371809005737,car,truck,120,0439_ps_s04_120_truck_10_n03796401_28190.png
subject-04,1,440,0.982904195785522,boat,bird,180,0440_ps_s04_180_bird_10_n02018207_14738.png
subject-04,1,441,0.854809999465942,cat,knife,120,0441_ps_s04_120_knife_10_n03041632_102828.png
subject-04,1,442,0.918761968612671,clock,knife,60,0442_ps_s04_60_knife_10_n03041632_1671.png
subject-04,1,443,0.770473957061768,knife,knife,30,0443_ps_s04_30_knife_10_n03041632_20770.png
subject-04,1,444,0.772343873977661,car,cat,180,0444_ps_s04_180_cat_10_n02125311_11440.png
subject-04,1,445,1.30595707893372,dog,bear,90,0445_ps_s04_90_bear_10_n02132136_8358.png
subject-04,1,446,0.946104049682617,bicycle,knife,120,0446_ps_s04_120_knife_10_n03041632_26340.png
subject-04,1,447,1.02750492095947,bear,dog,120,0447_ps_s04_120_dog_10_n02086646_8144.png
subject-04,1,448,0.71581506729126,boat,boat,30,0448_ps_s04_30_boat_10_n02951358_10151.png
subject-04,1,449,1.05916094779968,elephant,elephant,120,0449_ps_s04_120_elephant_10_n02504458_3511.png
subject-04,1,450,1.0130889415741,truck,bottle,180,0450_ps_s04_180_bottle_10_n03983396_5532.png
subject-04,1,451,0.824825048446655,clock,chair,150,0451_ps_s04_150_chair_10_n04429376_20628.png
subject-04,1,452,0.564803838729858,boat,boat,60,0452_ps_s04_60_boat_10_n03662601_9590.png
subject-04,1,453,1.1485710144043,bear,bear,90,0453_ps_s04_90_bear_10_n02134418_836.png
subject-04,1,454,0.576205968856812,car,car,30,0454_ps_s04_30_car_10_n04285008_5959.png
subject-04,1,455,1.47609996795654,airplane,knife,90,0455_ps_s04_90_knife_10_n03041632_25498.png
subject-04,1,456,0.641867876052856,cat,elephant,120,0456_ps_s04_120_elephant_10_n02504013_25336.png
subject-04,1,457,0.99380898475647,elephant,chair,60,0457_ps_s04_60_chair_10_n04099969_16266.png
subject-04,1,458,0.853744983673096,airplane,airplane,90,0458_ps_s04_90_airplane_10_n02690373_1696.png
subject-04,1,459,0.751441955566406,bottle,bottle,30,0459_ps_s04_30_bottle_10_n03983396_3377.png
subject-04,1,460,0.823598861694336,clock,cat,0,0460_ps_s04_0_cat_10_n02123597_13755.png
subject-04,1,461,0.782896995544434,car,keyboard,120,0461_ps_s04_120_keyboard_10_n04505470_1516.png
subject-04,1,462,0.69511604309082,bottle,bottle,120,0462_ps_s04_120_bottle_10_n03983396_8143.png
subject-04,1,463,0.868941068649292,chair,bottle,180,0463_ps_s04_180_bottle_10_n03937543_4259.png
subject-04,1,464,0.570711851119995,knife,knife,0,0464_ps_s04_0_knife_10_n03041632_24561.png
subject-04,1,465,1.23430800437927,truck,airplane,180,0465_ps_s04_180_airplane_10_n02690373_6144.png
subject-04,1,466,0.822108030319214,bear,bird,120,0466_ps_s04_120_bird_10_n01798484_12863.png
subject-04,1,467,1.05575799942017,clock,chair,0,0467_ps_s04_0_chair_10_n02791124_16127.png
subject-04,1,468,1.09977602958679,elephant,elephant,60,0468_ps_s04_60_elephant_10_n02504458_3614.png
subject-04,1,469,0.679507970809937,cat,dog,180,0469_ps_s04_180_dog_10_n02091244_11713.png
subject-04,1,470,0.713599920272827,truck,truck,0,0470_ps_s04_0_truck_10_n03417042_19650.png
subject-04,1,471,0.989288806915283,chair,chair,60,0471_ps_s04_60_chair_10_n04429376_10449.png
subject-04,1,472,0.645127058029175,chair,chair,0,0472_ps_s04_0_chair_10_n03376595_16306.png
subject-04,1,473,0.714656114578247,clock,clock,30,0473_ps_s04_30_clock_10_n04548280_1109.png
subject-04,1,474,0.888710021972656,bear,bear,30,0474_ps_s04_30_bear_10_n02133161_1560.png
subject-04,1,475,0.610404014587402,oven,oven,0,0475_ps_s04_0_oven_10_n04111531_3202.png
subject-04,1,476,0.688103914260864,cat,cat,60,0476_ps_s04_60_cat_10_n02123159_3201.png
subject-04,1,477,0.577983140945435,bicycle,bicycle,60,0477_ps_s04_60_bicycle_10_n03792782_1477.png
subject-04,1,478,0.673802852630615,car,chair,180,0478_ps_s04_180_chair_10_n04099969_6691.png
subject-04,1,479,0.881850957870483,boat,boat,0,0479_ps_s04_0_boat_10_n03662601_23248.png
subject-04,1,480,0.865386009216309,keyboard,bicycle,150,0480_ps_s04_150_bicycle_10_n02835271_3529.png
subject-04,1,481,0.9149489402771,bicycle,bicycle,90,0481_ps_s04_90_bicycle_10_n03792782_55532.png
subject-04,1,482,0.814915895462036,airplane,keyboard,180,0482_ps_s04_180_keyboard_10_n03085013_23014.png
subject-04,1,483,0.474684000015259,boat,boat,0,0483_ps_s04_0_boat_10_n03344393_3032.png
subject-04,1,484,0.774645090103149,airplane,airplane,30,0484_ps_s04_30_airplane_10_n02690373_1950.png
subject-04,1,485,0.588352918624878,cat,cat,30,0485_ps_s04_30_cat_10_n02123045_11826.png
subject-04,1,486,0.612185955047607,airplane,airplane,120,0486_ps_s04_120_airplane_10_n02690373_18383.png
subject-04,1,487,1.07394695281982,keyboard,keyboard,180,0487_ps_s04_180_keyboard_10_n03085013_4553.png
subject-04,1,488,0.737653970718384,keyboard,keyboard,90,0488_ps_s04_90_keyboard_10_n03085013_24192.png
subject-04,1,489,0.629461050033569,cat,bird,150,0489_ps_s04_150_bird_10_n02002724_5457.png
subject-04,1,490,0.663149833679199,car,clock,150,0490_ps_s04_150_clock_10_n04548280_8314.png
subject-04,1,491,0.704994916915894,truck,truck,60,0491_ps_s04_60_truck_10_n03417042_13289.png
subject-04,1,492,0.776921033859253,oven,truck,180,0492_ps_s04_180_truck_10_n04467665_23054.png
subject-04,1,493,0.806694984436035,knife,knife,90,0493_ps_s04_90_knife_10_n03041632_21859.png
subject-04,1,494,0.885051012039185,bear,bear,180,0494_ps_s04_180_bear_10_n02132136_5146.png
subject-04,1,495,0.964544773101807,cat,cat,30,0495_ps_s04_30_cat_10_n02123045_9813.png
subject-04,1,496,0.860137939453125,boat,boat,30,0496_ps_s04_30_boat_10_n03344393_5296.png
subject-04,1,497,0.974078893661499,bird,cat,120,0497_ps_s04_120_cat_10_n02123159_5706.png
subject-04,1,498,1.05184388160706,car,car,0,0498_ps_s04_0_car_10_n03100240_9610.png
subject-04,1,499,1.16940879821777,car,car,0,0499_ps_s04_0_car_10_n03100240_627.png
subject-04,1,500,1.311763048172,truck,truck,60,0500_ps_s04_60_truck_10_n03796401_8037.png
subject-04,1,501,1.16364693641663,airplane,keyboard,180,0501_ps_s04_180_keyboard_10_n03085013_23254.png
subject-04,1,502,0.803021192550659,bear,airplane,180,0502_ps_s04_180_airplane_10_n02690373_8765.png
subject-04,1,503,0.709224939346313,cat,keyboard,150,0503_ps_s04_150_keyboard_10_n04505470_1076.png
subject-04,1,504,0.65493106842041,chair,bear,150,0504_ps_s04_150_bear_10_n02134418_1642.png
subject-04,1,505,0.740438222885132,car,car,90,0505_ps_s04_90_car_10_n02814533_52627.png
subject-04,1,506,0.920367002487183,bottle,bottle,60,0506_ps_s04_60_bottle_10_n03983396_24525.png
subject-04,1,507,1.03814220428467,airplane,boat,60,0507_ps_s04_60_boat_10_n04273569_15906.png
subject-04,1,508,1.28983211517334,oven,keyboard,90,0508_ps_s04_90_keyboard_10_n03085013_25443.png
subject-04,1,509,0.829561948776245,boat,elephant,180,0509_ps_s04_180_elephant_10_n02504458_4572.png
subject-04,1,510,0.921510934829712,bicycle,oven,120,0510_ps_s04_120_oven_10_n04111531_986.png
subject-04,1,511,0.971612930297852,clock,bird,150,0511_ps_s04_150_bird_10_n01833805_30804.png
subject-04,1,512,0.943181037902832,bottle,bird,90,0512_ps_s04_90_bird_10_n02056570_10881.png
subject-04,1,513,0.816982984542847,keyboard,keyboard,30,0513_ps_s04_30_keyboard_10_n03085013_19471.png
subject-04,1,514,0.886865139007568,bear,bear,0,0514_ps_s04_0_bear_10_n02133161_355.png
subject-04,1,515,1.09661102294922,car,car,0,0515_ps_s04_0_car_10_n03100240_2108.png
subject-04,1,516,1.0665328502655,oven,oven,0,0516_ps_s04_0_oven_10_n04111531_17576.png
subject-04,1,517,0.684231042861938,keyboard,keyboard,30,0517_ps_s04_30_keyboard_10_n04505470_5111.png
subject-04,1,518,0.709980010986328,knife,knife,90,0518_ps_s04_90_knife_10_n03041632_3171.png
subject-04,1,519,NaN,na,truck,120,0519_ps_s04_120_truck_10_n03796401_8254.png
subject-04,1,520,1.38764214515686,bicycle,bear,150,0520_ps_s04_150_bear_10_n02134084_20261.png
subject-04,1,521,0.691605806350708,clock,clock,60,0521_ps_s04_60_clock_10_n03196217_599.png
subject-04,1,522,0.951611042022705,bird,bird,30,0522_ps_s04_30_bird_10_n01798484_5355.png
subject-04,1,523,0.929108858108521,oven,oven,60,0523_ps_s04_60_oven_10_n04111531_9939.png
subject-04,1,524,1.04894089698792,car,car,30,0524_ps_s04_30_car_10_n02814533_40773.png
subject-04,1,525,0.776838779449463,airplane,bottle,150,0525_ps_s04_150_bottle_10_n03937543_4783.png
subject-04,1,526,1.13865685462952,truck,oven,120,0526_ps_s04_120_oven_10_n04111531_2385.png
subject-04,1,527,0.630252122879028,cat,chair,150,0527_ps_s04_150_chair_10_n04099969_16178.png
subject-04,1,528,1.10224103927612,bird,knife,0,0528_ps_s04_0_knife_10_n03041632_13225.png
subject-04,1,529,1.41017889976501,boat,boat,180,0529_ps_s04_180_boat_10_n04273569_12888.png
subject-04,1,530,0.741966009140015,car,car,60,0530_ps_s04_60_car_10_n02814533_38071.png
subject-04,1,531,1.14777493476868,knife,bicycle,150,0531_ps_s04_150_bicycle_10_n02835271_4887.png
subject-04,1,532,0.819337129592896,bottle,truck,180,0532_ps_s04_180_truck_10_n04467665_670.png
subject-04,1,533,0.719619035720825,keyboard,keyboard,0,0533_ps_s04_0_keyboard_10_n03085013_23192.png
subject-04,1,534,0.891548156738281,oven,oven,60,0534_ps_s04_60_oven_10_n04111531_22263.png
subject-04,1,535,0.69468092918396,bicycle,bicycle,90,0535_ps_s04_90_bicycle_10_n02835271_13180.png
subject-04,1,536,0.466591119766235,clock,clock,90,0536_ps_s04_90_clock_10_n04548280_6022.png
subject-04,1,537,0.66248893737793,car,truck,150,0537_ps_s04_150_truck_10_n03417042_10476.png
subject-04,1,538,0.796579837799072,cat,cat,150,0538_ps_s04_150_cat_10_n02125311_5570.png
subject-04,1,539,0.550068855285645,keyboard,keyboard,90,0539_ps_s04_90_keyboard_10_n03085013_1797.png
subject-04,1,540,0.606054067611694,cat,cat,30,0540_ps_s04_30_cat_10_n02125311_15293.png
subject-04,1,541,0.585736989974976,clock,clock,60,0541_ps_s04_60_clock_10_n04548280_4709.png
subject-04,1,542,0.697606086730957,airplane,airplane,0,0542_ps_s04_0_airplane_10_n02690373_4110.png
subject-04,1,543,0.865419864654541,airplane,airplane,120,0543_ps_s04_120_airplane_10_n02690373_10395.png
subject-04,1,544,1.31104183197021,airplane,bird,150,0544_ps_s04_150_bird_10_n01798484_55.png
subject-04,1,545,0.921025991439819,elephant,elephant,0,0545_ps_s04_0_elephant_10_n02504458_4316.png
subject-04,1,546,0.876852035522461,cat,cat,90,0546_ps_s04_90_cat_10_n02123045_8722.png
subject-04,1,547,1.03065419197083,bird,bird,120,0547_ps_s04_120_bird_10_n02007558_7614.png
subject-04,1,548,0.664443016052246,cat,bear,180,0548_ps_s04_180_bear_10_n02133161_897.png
subject-04,1,549,0.640356063842773,keyboard,car,150,0549_ps_s04_150_car_10_n02814533_87140.png
subject-04,1,550,0.624100923538208,bird,bird,0,0550_ps_s04_0_bird_10_n01537544_1943.png
subject-04,1,551,0.897611856460571,elephant,elephant,30,0551_ps_s04_30_elephant_10_n02504458_4696.png
subject-04,1,552,0.703701019287109,keyboard,keyboard,60,0552_ps_s04_60_keyboard_10_n04505470_2597.png
subject-04,1,553,0.643939971923828,truck,truck,30,0553_ps_s04_30_truck_10_n03796401_22643.png
subject-04,1,554,1.50014209747314,car,car,120,0554_ps_s04_120_car_10_n04285008_13247.png
subject-04,1,555,0.837133884429932,keyboard,keyboard,150,0555_ps_s04_150_keyboard_10_n04505470_2709.png
subject-04,1,556,1.02895402908325,dog,keyboard,150,0556_ps_s04_150_keyboard_10_n03085013_20730.png
subject-04,1,557,0.858717918395996,bear,boat,150,0557_ps_s04_150_boat_10_n04273569_1576.png
subject-04,1,558,0.684673070907593,bottle,bird,180,0558_ps_s04_180_bird_10_n01534433_10801.png
subject-04,1,559,0.664383888244629,bear,bear,0,0559_ps_s04_0_bear_10_n02132136_6967.png
subject-04,1,560,0.514316082000732,cat,cat,0,0560_ps_s04_0_cat_10_n02123159_6206.png
subject-04,1,561,0.99269700050354,car,car,90,0561_ps_s04_90_car_10_n03100240_4674.png
subject-04,1,562,1.36408996582031,clock,knife,60,0562_ps_s04_60_knife_10_n03041632_105581.png
subject-04,1,563,0.563865900039673,keyboard,keyboard,0,0563_ps_s04_0_keyboard_10_n03085013_2166.png
subject-04,1,564,0.74376106262207,boat,car,150,0564_ps_s04_150_car_10_n04285008_7511.png
subject-04,1,565,1.08763694763184,dog,dog,90,0565_ps_s04_90_dog_10_n02112018_10082.png
subject-04,1,566,0.849303007125854,cat,oven,120,0566_ps_s04_120_oven_10_n04111531_1220.png
subject-04,1,567,0.779232978820801,bear,bird,150,0567_ps_s04_150_bird_10_n02007558_7783.png
subject-04,1,568,0.77134895324707,bicycle,bicycle,0,0568_ps_s04_0_bicycle_10_n02835271_4963.png
subject-04,1,569,0.992664813995361,chair,bear,180,0569_ps_s04_180_bear_10_n02134084_1503.png
subject-04,1,570,0.836467027664185,boat,oven,120,0570_ps_s04_120_oven_10_n04111531_1004.png
subject-04,1,571,0.722480058670044,boat,boat,0,0571_ps_s04_0_boat_10_n04612504_18442.png
subject-04,1,572,0.712181091308594,chair,chair,90,0572_ps_s04_90_chair_10_n03376595_4155.png
subject-04,1,573,0.798286914825439,car,airplane,180,0573_ps_s04_180_airplane_10_n02690373_2874.png
subject-04,1,574,1.26219201087952,elephant,elephant,30,0574_ps_s04_30_elephant_10_n02504458_9835.png
subject-04,1,575,1.42762303352356,airplane,boat,90,0575_ps_s04_90_boat_10_n04273569_4772.png
subject-04,1,576,1.13968706130981,bear,bear,120,0576_ps_s04_120_bear_10_n02134084_7441.png
subject-04,1,577,0.801265001296997,truck,truck,120,0577_ps_s04_120_truck_10_n04467665_51397.png
subject-04,1,578,0.941153049468994,bear,oven,150,0578_ps_s04_150_oven_10_n04111531_22084.png
subject-04,1,579,1.05884885787964,elephant,airplane,150,0579_ps_s04_150_airplane_10_n02690373_9432.png
subject-04,1,580,NaN,na,dog,150,0580_ps_s04_150_dog_10_n02089973_2756.png
subject-04,1,581,1.19238901138306,oven,bottle,90,0581_ps_s04_90_bottle_10_n04579145_3149.png
subject-04,1,582,0.71026086807251,keyboard,car,150,0582_ps_s04_150_car_10_n02814533_85659.png
subject-04,1,583,0.618198871612549,bear,bear,60,0583_ps_s04_60_bear_10_n02134418_5971.png
subject-04,1,584,0.667888879776001,boat,boat,60,0584_ps_s04_60_boat_10_n03344393_1944.png
subject-04,1,585,0.68174409866333,bottle,bottle,30,0585_ps_s04_30_bottle_10_n04560804_5769.png
subject-04,1,586,0.423561096191406,clock,clock,0,0586_ps_s04_0_clock_10_n02708093_1360.png
subject-04,1,587,1.1534378528595,bear,elephant,120,0587_ps_s04_120_elephant_10_n02504458_1698.png
subject-04,1,588,1.3574059009552,oven,oven,60,0588_ps_s04_60_oven_10_n04111531_1662.png
subject-04,1,589,1.00100803375244,car,dog,150,0589_ps_s04_150_dog_10_n02110063_5687.png
subject-04,1,590,0.665043115615845,bear,bear,60,0590_ps_s04_60_bear_10_n02134084_9253.png
subject-04,1,591,0.972496032714844,clock,oven,180,0591_ps_s04_180_oven_10_n04111531_15367.png
subject-04,1,592,1.10464715957642,truck,elephant,180,0592_ps_s04_180_elephant_10_n02504458_4207.png
subject-04,1,593,0.794389009475708,car,car,120,0593_ps_s04_120_car_10_n03100240_17523.png
subject-04,1,594,1.47803497314453,bottle,bottle,0,0594_ps_s04_0_bottle_10_n03937543_3079.png
subject-04,1,595,1.11038017272949,bottle,bottle,60,0595_ps_s04_60_bottle_10_n04560804_13420.png
subject-04,1,596,0.549894094467163,clock,clock,0,0596_ps_s04_0_clock_10_n04548280_5699.png
subject-04,1,597,0.609541893005371,oven,oven,60,0597_ps_s04_60_oven_10_n04111531_249.png
subject-04,1,598,0.831318140029907,clock,clock,120,0598_ps_s04_120_clock_10_n03196217_5745.png
subject-04,1,599,1.0632700920105,elephant,elephant,0,0599_ps_s04_0_elephant_10_n02504013_1698.png
subject-04,1,600,0.671030044555664,car,bottle,180,0600_ps_s04_180_bottle_10_n04579145_6049.png
subject-04,1,601,0.666826963424683,oven,oven,30,0601_ps_s04_30_oven_10_n04111531_11225.png
subject-04,1,602,0.570862054824829,boat,knife,180,0602_ps_s04_180_knife_10_n03041632_36814.png
subject-04,1,603,0.806818008422852,knife,knife,90,0603_ps_s04_90_knife_10_n03041632_24100.png
subject-04,1,604,0.832342147827148,elephant,elephant,0,0604_ps_s04_0_elephant_10_n02504013_5217.png
subject-04,1,605,0.802134990692139,elephant,elephant,0,0605_ps_s04_0_elephant_10_n02504458_7200.png
subject-04,1,606,1.015958070755,oven,knife,0,0606_ps_s04_0_knife_10_n03041632_42526.png
subject-04,1,607,0.629647016525269,cat,cat,0,0607_ps_s04_0_cat_10_n02124075_14800.png
subject-04,1,608,0.86542797088623,bear,cat,120,0608_ps_s04_120_cat_10_n02123597_5217.png
subject-04,1,609,0.66926383972168,elephant,elephant,0,0609_ps_s04_0_elephant_10_n02504458_62.png
subject-04,1,610,1.46320414543152,bicycle,bicycle,0,0610_ps_s04_0_bicycle_10_n02835271_9866.png
subject-04,1,611,0.82495903968811,elephant,bird,120,0611_ps_s04_120_bird_10_n01614925_17980.png
subject-04,1,612,0.732650995254517,boat,chair,120,0612_ps_s04_120_chair_10_n03376595_10569.png
subject-04,1,613,0.804414987564087,cat,cat,90,0613_ps_s04_90_cat_10_n02124075_81.png
subject-04,1,614,0.562353849411011,bicycle,bicycle,30,0614_ps_s04_30_bicycle_10_n03792782_4277.png
subject-04,1,615,0.60231614112854,truck,knife,150,0615_ps_s04_150_knife_10_n03041632_14132.png
subject-04,1,616,0.701974868774414,airplane,boat,150,0616_ps_s04_150_boat_10_n02951358_16728.png
subject-04,1,617,0.644059896469116,boat,boat,90,0617_ps_s04_90_boat_10_n04273569_7733.png
subject-04,1,618,0.793496131896973,bicycle,bicycle,90,0618_ps_s04_90_bicycle_10_n02835271_22739.png
subject-04,1,619,1.00139808654785,chair,chair,30,0619_ps_s04_30_chair_10_n04099969_15882.png
subject-04,1,620,0.995267868041992,bear,bicycle,90,0620_ps_s04_90_bicycle_10_n03792782_12561.png
subject-04,1,621,0.669064998626709,clock,clock,0,0621_ps_s04_0_clock_10_n04548280_487.png
subject-04,1,622,0.670916080474854,bear,bear,90,0622_ps_s04_90_bear_10_n02132136_9055.png
subject-04,1,623,0.780609130859375,car,elephant,150,0623_ps_s04_150_elephant_10_n02504458_7827.png
subject-04,1,624,1.49999690055847,oven,oven,180,0624_ps_s04_180_oven_10_n04111531_6695.png
subject-04,1,625,0.616239070892334,bottle,bottle,30,0625_ps_s04_30_bottle_10_n04591713_5558.png
subject-04,1,626,1.05831384658813,chair,bear,30,0626_ps_s04_30_bear_10_n02132136_9367.png
subject-04,1,627,0.789984941482544,chair,chair,90,0627_ps_s04_90_chair_10_n04099969_36004.png
subject-04,1,628,0.89972186088562,knife,knife,90,0628_ps_s04_90_knife_10_n03041632_21472.png
subject-04,1,629,0.869425058364868,airplane,airplane,90,0629_ps_s04_90_airplane_10_n02690373_19118.png
subject-04,1,630,1.22912096977234,keyboard,cat,180,0630_ps_s04_180_cat_10_n02124075_8470.png
subject-04,1,631,0.777392148971558,oven,chair,60,0631_ps_s04_60_chair_10_n04429376_6141.png
subject-04,1,632,1.09302711486816,car,car,90,0632_ps_s04_90_car_10_n02814533_84296.png
subject-04,1,633,0.796617984771729,elephant,elephant,30,0633_ps_s04_30_elephant_10_n02504458_6602.png
subject-04,1,634,0.870537042617798,elephant,elephant,60,0634_ps_s04_60_elephant_10_n02504458_6715.png
subject-04,1,635,0.738506078720093,bear,clock,180,0635_ps_s04_180_clock_10_n02708093_1352.png
subject-04,1,636,1.50014400482178,bottle,bottle,0,0636_ps_s04_0_bottle_10_n03983396_15006.png
subject-04,1,637,0.718111038208008,keyboard,airplane,180,0637_ps_s04_180_airplane_10_n02690373_4375.png
subject-04,1,638,0.845876932144165,clock,chair,90,0638_ps_s04_90_chair_10_n04429376_41755.png
subject-04,1,639,0.769699096679688,car,car,120,0639_ps_s04_120_car_10_n03100240_23906.png
subject-04,1,640,0.749562978744507,keyboard,keyboard,0,0640_ps_s04_0_keyboard_10_n04505470_4974.png
subject-04,1,641,1.48099613189697,clock,knife,180,0641_ps_s04_180_knife_10_n03041632_9406.png
subject-04,1,642,0.660814046859741,airplane,airplane,0,0642_ps_s04_0_airplane_10_n02690373_1952.png
subject-04,1,643,1.34263491630554,chair,chair,60,0643_ps_s04_60_chair_10_n02791124_13469.png
subject-04,1,644,0.982416152954102,truck,knife,150,0644_ps_s04_150_knife_10_n03041632_37618.png
subject-04,1,645,1.31058382987976,truck,truck,30,0645_ps_s04_30_truck_10_n04467665_23914.png
subject-04,1,646,1.33615684509277,clock,keyboard,90,0646_ps_s04_90_keyboard_10_n04505470_5063.png
subject-04,1,647,1.23608493804932,bear,boat,180,0647_ps_s04_180_boat_10_n04273569_568.png
subject-04,1,648,1.00174522399902,bear,bear,90,0648_ps_s04_90_bear_10_n02132136_5778.png
subject-04,1,649,0.681401968002319,clock,clock,0,0649_ps_s04_0_clock_10_n02708093_340.png
subject-04,1,650,0.739535093307495,bicycle,bicycle,0,0650_ps_s04_0_bicycle_10_n03792782_54196.png
subject-04,1,651,0.785388946533203,airplane,bottle,180,0651_ps_s04_180_bottle_10_n04591713_644.png
subject-04,1,652,0.993156909942627,airplane,airplane,30,0652_ps_s04_30_airplane_10_n02690373_2882.png
subject-04,1,653,0.996843099594116,car,dog,180,0653_ps_s04_180_dog_10_n02106662_43958.png
subject-04,1,654,1.05456304550171,boat,boat,0,0654_ps_s04_0_boat_10_n02951358_12713.png
subject-04,1,655,1.29085397720337,chair,elephant,30,0655_ps_s04_30_elephant_10_n02504013_7010.png
subject-04,1,656,0.88632607460022,elephant,elephant,60,0656_ps_s04_60_elephant_10_n02504458_2103.png
subject-04,1,657,0.716564893722534,cat,cat,0,0657_ps_s04_0_cat_10_n02123394_523.png
subject-04,1,658,0.895970106124878,oven,knife,60,0658_ps_s04_60_knife_10_n03041632_15299.png
subject-04,1,659,0.861573934555054,boat,oven,150,0659_ps_s04_150_oven_10_n04111531_15735.png
subject-04,1,660,1.04345607757568,chair,chair,30,0660_ps_s04_30_chair_10_n04099969_26310.png
subject-04,1,661,0.731269121170044,knife,knife,90,0661_ps_s04_90_knife_10_n03041632_52371.png
subject-04,1,662,1.0351459980011,bear,cat,30,0662_ps_s04_30_cat_10_n02123394_4633.png
subject-04,1,663,0.738772869110107,bicycle,bicycle,60,0663_ps_s04_60_bicycle_10_n03792782_17673.png
subject-04,1,664,0.704762935638428,airplane,airplane,120,0664_ps_s04_120_airplane_10_n02690373_8446.png
subject-04,1,665,0.772587060928345,dog,dog,90,0665_ps_s04_90_dog_10_n02110063_16680.png
subject-04,1,666,1.12838411331177,bicycle,dog,90,0666_ps_s04_90_dog_10_n02095314_5408.png
subject-04,1,667,0.752132177352905,bicycle,bicycle,120,0667_ps_s04_120_bicycle_10_n02835271_10822.png
subject-04,1,668,0.944084882736206,car,airplane,150,0668_ps_s04_150_airplane_10_n02690373_16250.png
subject-04,1,669,0.671725034713745,bear,bear,0,0669_ps_s04_0_bear_10_n02134084_16632.png
subject-04,1,670,0.771558046340942,oven,elephant,150,0670_ps_s04_150_elephant_10_n02504013_7305.png
subject-04,1,671,1.39740705490112,bicycle,truck,180,0671_ps_s04_180_truck_10_n03417042_6780.png
subject-04,1,672,1.42332100868225,bird,bird,60,0672_ps_s04_60_bird_10_n02002724_3345.png
subject-04,1,673,0.709051132202148,boat,boat,30,0673_ps_s04_30_boat_10_n04612504_8407.png
subject-04,1,674,1.48325085639954,car,bicycle,90,0674_ps_s04_90_bicycle_10_n02835271_19853.png
subject-04,1,675,0.6651451587677,bear,bear,60,0675_ps_s04_60_bear_10_n02134084_15118.png
subject-04,1,676,1.19648289680481,cat,oven,120,0676_ps_s04_120_oven_10_n04111531_3286.png
subject-04,1,677,0.902265071868896,bird,bird,90,0677_ps_s04_90_bird_10_n01601694_2723.png
subject-04,1,678,0.964212894439697,car,chair,180,0678_ps_s04_180_chair_10_n03376595_2809.png
subject-04,1,679,0.665841102600098,bicycle,bicycle,60,0679_ps_s04_60_bicycle_10_n03792782_24591.png
subject-04,1,680,0.743758916854858,truck,boat,120,0680_ps_s04_120_boat_10_n03344393_8117.png
subject-04,1,681,1.49774217605591,bear,dog,30,0681_ps_s04_30_dog_10_n02109961_14202.png
subject-04,1,682,1.34943819046021,keyboard,car,180,0682_ps_s04_180_car_10_n04285008_11770.png
subject-04,1,683,1.28123903274536,bottle,bottle,0,0683_ps_s04_0_bottle_10_n04560804_26318.png
subject-04,1,684,0.667060136795044,boat,boat,90,0684_ps_s04_90_boat_10_n02951358_14341.png
subject-04,1,685,0.768842935562134,bear,oven,90,0685_ps_s04_90_oven_10_n04111531_7430.png
subject-04,1,686,0.636691808700562,cat,cat,60,0686_ps_s04_60_cat_10_n02124075_13587.png
subject-04,1,687,0.860538005828857,bicycle,chair,150,0687_ps_s04_150_chair_10_n04099969_26462.png
subject-04,1,688,0.786209106445312,dog,car,180,0688_ps_s04_180_car_10_n03100240_4619.png
subject-04,1,689,1.10023093223572,bird,boat,90,0689_ps_s04_90_boat_10_n03662601_9069.png
subject-04,1,690,1.50008702278137,clock,knife,60,0690_ps_s04_60_knife_10_n03041632_36806.png
subject-04,1,691,0.551772832870483,cat,cat,30,0691_ps_s04_30_cat_10_n02123597_4442.png
subject-04,1,692,0.782002925872803,bird,bird,0,0692_ps_s04_0_bird_10_n02006656_7153.png
subject-04,1,693,0.873342037200928,keyboard,keyboard,90,0693_ps_s04_90_keyboard_10_n03085013_5726.png
subject-04,1,694,0.693130970001221,keyboard,keyboard,60,0694_ps_s04_60_keyboard_10_n04505470_46.png
subject-04,1,695,1.39686989784241,keyboard,keyboard,150,0695_ps_s04_150_keyboard_10_n03085013_17884.png
subject-04,1,696,1.17279601097107,boat,car,180,0696_ps_s04_180_car_10_n02814533_66666.png
subject-04,1,697,0.930592060089111,airplane,chair,180,0697_ps_s04_180_chair_10_n03376595_208.png
subject-04,1,698,0.588515996932983,car,elephant,180,0698_ps_s04_180_elephant_10_n02504013_3029.png
subject-04,1,699,1.21803402900696,car,chair,60,0699_ps_s04_60_chair_10_n02791124_13057.png
subject-04,1,700,0.505975961685181,bicycle,bicycle,0,0700_ps_s04_0_bicycle_10_n02835271_7794.png
subject-04,1,701,1.17195606231689,chair,bird,0,0701_ps_s04_0_bird_10_n01616318_1831.png
subject-04,1,702,0.749616146087646,bear,bear,0,0702_ps_s04_0_bear_10_n02133161_5292.png
subject-04,1,703,0.737584114074707,cat,bear,150,0703_ps_s04_150_bear_10_n02132136_10577.png
subject-04,1,704,0.705324172973633,bear,bear,90,0704_ps_s04_90_bear_10_n02133161_4043.png
subject-04,1,705,1.3731050491333,boat,elephant,90,0705_ps_s04_90_elephant_10_n02504458_2662.png
subject-04,1,706,0.73881196975708,bear,elephant,120,0706_ps_s04_120_elephant_10_n02504013_22557.png
subject-04,1,707,0.444945096969604,cat,cat,0,0707_ps_s04_0_cat_10_n02123045_12297.png
subject-04,1,708,1.0626049041748,airplane,airplane,0,0708_ps_s04_0_airplane_10_n02690373_4294.png
subject-04,1,709,0.854267120361328,car,car,150,0709_ps_s04_150_car_10_n03100240_16145.png
subject-04,1,710,1.1900908946991,clock,oven,0,0710_ps_s04_0_oven_10_n04111531_22886.png
subject-04,1,711,0.907967090606689,airplane,airplane,60,0711_ps_s04_60_airplane_10_n02690373_6314.png
subject-04,1,712,0.971785068511963,keyboard,keyboard,180,0712_ps_s04_180_keyboard_10_n04505470_4579.png
subject-04,1,713,0.473544120788574,boat,boat,120,0713_ps_s04_120_boat_10_n04612504_15155.png
subject-04,1,714,1.03545904159546,bear,chair,90,0714_ps_s04_90_chair_10_n02791124_6550.png
subject-04,1,715,1.05931186676025,truck,boat,150,0715_ps_s04_150_boat_10_n03662601_18953.png
subject-04,1,716,1.06916689872742,oven,bird,180,0716_ps_s04_180_bird_10_n02028035_14461.png
subject-04,1,717,0.742940187454224,airplane,airplane,0,0717_ps_s04_0_airplane_10_n02690373_20011.png
subject-04,1,718,1.19450402259827,car,car,30,0718_ps_s04_30_car_10_n04285008_3688.png
subject-04,1,719,0.84254789352417,clock,boat,180,0719_ps_s04_180_boat_10_n04612504_4302.png
subject-04,1,720,0.706268072128296,bear,bear,60,0720_ps_s04_60_bear_10_n02134418_5807.png
subject-04,1,721,0.876559019088745,bear,truck,150,0721_ps_s04_150_truck_10_n03417042_17911.png
subject-04,1,722,0.636046886444092,bear,bicycle,150,0722_ps_s04_150_bicycle_10_n03792782_6731.png
subject-04,1,723,0.597996950149536,car,car,30,0723_ps_s04_30_car_10_n03100240_1294.png
subject-04,1,724,0.645429134368896,oven,bicycle,180,0724_ps_s04_180_bicycle_10_n03792782_50673.png
subject-04,1,725,0.551485061645508,airplane,cat,150,0725_ps_s04_150_cat_10_n02123159_3524.png
subject-04,1,726,1.32325601577759,knife,bottle,120,0726_ps_s04_120_bottle_10_n04557648_1136.png
subject-04,1,727,0.667091846466064,bird,bird,60,0727_ps_s04_60_bird_10_n01560419_6863.png
subject-04,1,728,0.982744932174683,bear,clock,150,0728_ps_s04_150_clock_10_n04548280_4524.png
subject-04,1,729,0.992662191390991,dog,bicycle,150,0729_ps_s04_150_bicycle_10_n02835271_4396.png
subject-04,1,730,0.694421052932739,chair,chair,90,0730_ps_s04_90_chair_10_n02791124_15407.png
subject-04,1,731,0.658154010772705,keyboard,keyboard,0,0731_ps_s04_0_keyboard_10_n04505470_3306.png
subject-04,1,732,1.2679340839386,clock,car,60,0732_ps_s04_60_car_10_n03100240_7753.png
subject-04,1,733,0.59766697883606,cat,cat,60,0733_ps_s04_60_cat_10_n02123045_7483.png
subject-04,1,734,0.877544164657593,bear,bird,150,0734_ps_s04_150_bird_10_n01582220_1150.png
subject-04,1,735,1.30748295783997,dog,elephant,90,0735_ps_s04_90_elephant_10_n02504013_3081.png
subject-04,1,736,0.979336023330688,truck,dog,150,0736_ps_s04_150_dog_10_n02097209_821.png
subject-04,1,737,0.862998962402344,car,airplane,180,0737_ps_s04_180_airplane_10_n02690373_8382.png
subject-04,1,738,0.478991031646729,clock,clock,120,0738_ps_s04_120_clock_10_n02708093_118.png
subject-04,1,739,1.1465060710907,elephant,airplane,180,0739_ps_s04_180_airplane_10_n02690373_9959.png
subject-04,1,740,0.614675045013428,cat,cat,0,0740_ps_s04_0_cat_10_n02125311_19769.png
subject-04,1,741,1.00039100646973,truck,truck,0,0741_ps_s04_0_truck_10_n03796401_4017.png
subject-04,1,742,0.626122951507568,chair,bottle,120,0742_ps_s04_120_bottle_10_n02823428_14453.png
subject-04,1,743,0.722042083740234,car,cat,150,0743_ps_s04_150_cat_10_n02123159_799.png
subject-04,1,744,1.1196870803833,clock,clock,30,0744_ps_s04_30_clock_10_n02708093_899.png
subject-04,1,745,0.72161078453064,bear,boat,180,0745_ps_s04_180_boat_10_n02951358_2999.png
subject-04,1,746,1.41957688331604,bear,knife,150,0746_ps_s04_150_knife_10_n03041632_19614.png
subject-04,1,747,NaN,na,chair,120,0747_ps_s04_120_chair_10_n03376595_8302.png
subject-04,1,748,0.647223949432373,chair,chair,30,0748_ps_s04_30_chair_10_n03376595_10332.png
subject-04,1,749,0.610822916030884,clock,chair,60,0749_ps_s04_60_chair_10_n03376595_3910.png
subject-04,1,750,0.698503017425537,keyboard,keyboard,90,0750_ps_s04_90_keyboard_10_n03085013_20357.png
subject-04,1,751,0.554455041885376,clock,bottle,180,0751_ps_s04_180_bottle_10_n04579145_3302.png
subject-04,1,752,0.752271890640259,keyboard,knife,150,0752_ps_s04_150_knife_10_n03041632_16606.png
subject-04,1,753,0.738111019134521,keyboard,keyboard,90,0753_ps_s04_90_keyboard_10_n04505470_986.png
subject-04,1,754,0.880271911621094,car,car,60,0754_ps_s04_60_car_10_n04285008_6410.png
subject-04,1,755,1.05401611328125,boat,chair,120,0755_ps_s04_120_chair_10_n02791124_5823.png
subject-04,1,756,0.683665037155151,keyboard,oven,150,0756_ps_s04_150_oven_10_n04111531_7923.png
subject-04,1,757,0.863485097885132,keyboard,knife,150,0757_ps_s04_150_knife_10_n03041632_5427.png
subject-04,1,758,0.56717586517334,car,car,60,0758_ps_s04_60_car_10_n03100240_17349.png
subject-04,1,759,0.746880054473877,airplane,airplane,30,0759_ps_s04_30_airplane_10_n02690373_190.png
subject-04,1,760,1.06083202362061,truck,bear,180,0760_ps_s04_180_bear_10_n02134418_25040.png
subject-04,1,761,0.826521158218384,keyboard,keyboard,120,0761_ps_s04_120_keyboard_10_n03085013_7752.png
subject-04,1,762,1.42827296257019,bottle,bottle,30,0762_ps_s04_30_bottle_10_n03937543_3133.png
subject-04,1,763,0.758198976516724,boat,boat,90,0763_ps_s04_90_boat_10_n04273569_32786.png
subject-04,1,764,0.789844989776611,keyboard,bottle,150,0764_ps_s04_150_bottle_10_n04560804_14605.png
subject-04,1,765,0.883945941925049,oven,chair,120,0765_ps_s04_120_chair_10_n02791124_4319.png
subject-04,1,766,0.787509918212891,clock,clock,0,0766_ps_s04_0_clock_10_n03196217_3605.png
subject-04,1,767,1.26542091369629,truck,bear,120,0767_ps_s04_120_bear_10_n02134418_14451.png
subject-04,1,768,1.1393609046936,oven,chair,90,0768_ps_s04_90_chair_10_n02791124_1941.png
subject-04,1,769,0.877089023590088,keyboard,keyboard,60,0769_ps_s04_60_keyboard_10_n04505470_4479.png
subject-04,1,770,0.559340000152588,clock,clock,60,0770_ps_s04_60_clock_10_n04548280_4178.png
subject-04,1,771,1.13681292533875,bird,bird,30,0771_ps_s04_30_bird_10_n02056570_4808.png
subject-04,1,772,1.06684684753418,bird,bird,30,0772_ps_s04_30_bird_10_n01843383_13894.png
subject-04,1,773,0.780458927154541,car,cat,180,0773_ps_s04_180_cat_10_n02123394_2350.png
subject-04,1,774,1.48409605026245,cat,knife,30,0774_ps_s04_30_knife_10_n03041632_10140.png
subject-04,1,775,0.588027000427246,keyboard,keyboard,30,0775_ps_s04_30_keyboard_10_n03085013_7520.png
subject-04,1,776,0.873538970947266,keyboard,dog,120,0776_ps_s04_120_dog_10_n02100583_13688.png
subject-04,1,777,0.86565089225769,airplane,airplane,90,0777_ps_s04_90_airplane_10_n02690373_5422.png
subject-04,1,778,0.929336071014404,bear,chair,180,0778_ps_s04_180_chair_10_n02791124_5109.png
subject-04,1,779,0.837249040603638,bear,clock,150,0779_ps_s04_150_clock_10_n03196217_4019.png
subject-04,1,780,0.782995939254761,cat,cat,60,0780_ps_s04_60_cat_10_n02123045_568.png
subject-04,1,781,1.07273387908936,truck,bottle,150,0781_ps_s04_150_bottle_10_n03937543_793.png
subject-04,1,782,NaN,na,oven,0,0782_ps_s04_0_oven_10_n04111531_1488.png
subject-04,1,783,0.564352989196777,clock,clock,90,0783_ps_s04_90_clock_10_n03196217_5827.png
subject-04,1,784,0.900166034698486,bear,boat,120,0784_ps_s04_120_boat_10_n04612504_2024.png
subject-04,1,785,0.686493158340454,clock,clock,90,0785_ps_s04_90_clock_10_n02708093_181.png
subject-04,1,786,0.839724063873291,boat,bird,60,0786_ps_s04_60_bird_10_n02018207_12233.png
subject-04,1,787,0.727735996246338,elephant,elephant,0,0787_ps_s04_0_elephant_10_n02504013_7035.png
subject-04,1,788,0.82370400428772,airplane,airplane,90,0788_ps_s04_90_airplane_10_n02690373_17937.png
subject-04,1,789,0.71130895614624,bear,bear,90,0789_ps_s04_90_bear_10_n02134084_5733.png
subject-04,1,790,1.11122918128967,keyboard,car,150,0790_ps_s04_150_car_10_n04285008_810.png
subject-04,1,791,1.25501799583435,clock,elephant,150,0791_ps_s04_150_elephant_10_n02504458_1600.png
subject-04,1,792,0.904783010482788,bear,dog,120,0792_ps_s04_120_dog_10_n02105855_17066.png
subject-04,1,793,1.16246008872986,bottle,bottle,60,0793_ps_s04_60_bottle_10_n02823428_889.png
subject-04,1,794,0.850589036941528,keyboard,oven,90,0794_ps_s04_90_oven_10_n04111531_4944.png
subject-04,1,795,1.17811179161072,bottle,bottle,90,0795_ps_s04_90_bottle_10_n03983396_3185.png
subject-04,1,796,1.0383288860321,bottle,bird,90,0796_ps_s04_90_bird_10_n01582220_261.png
subject-04,1,797,1.12585020065308,oven,bird,180,0797_ps_s04_180_bird_10_n01796340_5016.png
subject-04,1,798,NaN,na,bicycle,150,0798_ps_s04_150_bicycle_10_n02835271_10770.png
subject-04,1,799,0.687252998352051,knife,knife,0,0799_ps_s04_0_knife_10_n03041632_29961.png
subject-04,1,800,0.979542970657349,bear,car,180,0800_ps_s04_180_car_10_n04285008_15213.png
subject-04,1,801,0.782693147659302,bear,bear,30,0801_ps_s04_30_bear_10_n02133161_7032.png
subject-04,1,802,1.01082682609558,dog,dog,60,0802_ps_s04_60_dog_10_n02088094_1145.png
subject-04,1,803,1.4560399055481,bird,bird,0,0803_ps_s04_0_bird_10_n02027492_15639.png
subject-04,1,804,0.604032039642334,car,car,0,0804_ps_s04_0_car_10_n03100240_22290.png
subject-04,1,805,0.655802011489868,oven,oven,0,0805_ps_s04_0_oven_10_n04111531_13797.png
subject-04,1,806,0.676066160202026,keyboard,knife,150,0806_ps_s04_150_knife_10_n03041632_4808.png
subject-04,1,807,0.971480131149292,dog,dog,90,0807_ps_s04_90_dog_10_n02101388_11601.png
subject-04,1,808,1.0033130645752,dog,dog,150,0808_ps_s04_150_dog_10_n02109525_40708.png
subject-04,1,809,0.909546852111816,car,truck,120,0809_ps_s04_120_truck_10_n03796401_2007.png
subject-04,1,810,1.15116190910339,dog,bear,60,0810_ps_s04_60_bear_10_n02134084_21921.png
subject-04,1,811,0.814923048019409,bear,bear,90,0811_ps_s04_90_bear_10_n02134084_4442.png
subject-04,1,812,1.18268799781799,keyboard,keyboard,30,0812_ps_s04_30_keyboard_10_n03085013_3632.png
subject-04,1,813,0.644237041473389,cat,cat,60,0813_ps_s04_60_cat_10_n02125311_17002.png
subject-04,1,814,0.692052125930786,car,car,60,0814_ps_s04_60_car_10_n03100240_17421.png
subject-04,1,815,1.1540310382843,bird,oven,90,0815_ps_s04_90_oven_10_n04111531_30110.png
subject-04,1,816,NaN,na,dog,30,0816_ps_s04_30_dog_10_n02110958_1335.png
subject-04,1,817,1.08558702468872,knife,knife,0,0817_ps_s04_0_knife_10_n03041632_22051.png
subject-04,1,818,1.10953617095947,truck,keyboard,180,0818_ps_s04_180_keyboard_10_n03085013_15576.png
subject-04,1,819,0.743193864822388,car,car,30,0819_ps_s04_30_car_10_n03100240_12777.png
subject-04,1,820,0.955174922943115,bear,bird,180,0820_ps_s04_180_bird_10_n01820546_3828.png
subject-04,1,821,1.05884909629822,dog,airplane,150,0821_ps_s04_150_airplane_10_n02690373_1751.png
subject-04,1,822,0.756585121154785,bear,boat,150,0822_ps_s04_150_boat_10_n04273569_62.png
subject-04,1,823,0.828554153442383,truck,truck,60,0823_ps_s04_60_truck_10_n04467665_37833.png
subject-04,1,824,0.92425799369812,knife,knife,60,0824_ps_s04_60_knife_10_n03041632_87380.png
subject-04,1,825,0.940038204193115,bear,chair,180,0825_ps_s04_180_chair_10_n02791124_2611.png
subject-04,1,826,0.793819904327393,truck,truck,90,0826_ps_s04_90_truck_10_n03417042_12711.png
subject-04,1,827,0.881642818450928,cat,cat,90,0827_ps_s04_90_cat_10_n02123597_13823.png
subject-04,1,828,0.955410957336426,bear,bird,60,0828_ps_s04_60_bird_10_n02037110_4572.png
subject-04,1,829,0.985336065292358,knife,knife,120,0829_ps_s04_120_knife_10_n03041632_16826.png
subject-04,1,830,0.785257816314697,boat,boat,0,0830_ps_s04_0_boat_10_n04273569_2449.png
subject-04,1,831,0.599162101745605,car,car,30,0831_ps_s04_30_car_10_n03100240_16775.png
subject-04,1,832,0.766633987426758,bear,bicycle,180,0832_ps_s04_180_bicycle_10_n02835271_1653.png
subject-04,1,833,0.578902006149292,clock,clock,60,0833_ps_s04_60_clock_10_n04548280_5734.png
subject-04,1,834,0.814319849014282,bear,keyboard,150,0834_ps_s04_150_keyboard_10_n03085013_15162.png
subject-04,1,835,0.66831111907959,keyboard,keyboard,90,0835_ps_s04_90_keyboard_10_n03085013_4914.png
subject-04,1,836,0.678200960159302,car,clock,180,0836_ps_s04_180_clock_10_n04548280_9217.png
subject-04,1,837,0.73185396194458,airplane,boat,180,0837_ps_s04_180_boat_10_n03662601_8065.png
subject-04,1,838,0.739440202713013,oven,oven,60,0838_ps_s04_60_oven_10_n04111531_21980.png
subject-04,1,839,0.663355112075806,clock,clock,60,0839_ps_s04_60_clock_10_n03196217_7414.png
subject-04,1,840,0.599194049835205,truck,truck,90,0840_ps_s04_90_truck_10_n03417042_5228.png
subject-04,1,841,0.747237920761108,keyboard,truck,180,0841_ps_s04_180_truck_10_n03417042_6809.png
subject-04,1,842,0.841224908828735,airplane,airplane,60,0842_ps_s04_60_airplane_10_n02690373_7748.png
subject-04,1,843,0.942564964294434,bicycle,bicycle,120,0843_ps_s04_120_bicycle_10_n02835271_12346.png
subject-04,1,844,1.5001368522644,bicycle,bottle,180,0844_ps_s04_180_bottle_10_n04560804_3959.png
subject-04,1,845,1.11641192436218,chair,bicycle,150,0845_ps_s04_150_bicycle_10_n03792782_378.png
subject-04,1,846,0.846258878707886,keyboard,dog,120,0846_ps_s04_120_dog_10_n02099849_2217.png
subject-04,1,847,0.659822940826416,car,bicycle,180,0847_ps_s04_180_bicycle_10_n02835271_7296.png
subject-04,1,848,1.02970099449158,boat,boat,90,0848_ps_s04_90_boat_10_n04273569_13972.png
subject-04,1,849,1.04551315307617,knife,knife,0,0849_ps_s04_0_knife_10_n03041632_9635.png
subject-04,1,850,1.09920716285706,bear,dog,90,0850_ps_s04_90_dog_10_n02100583_24297.png
subject-04,1,851,1.33303904533386,cat,bird,150,0851_ps_s04_150_bird_10_n02002556_2917.png
subject-04,1,852,NaN,na,chair,180,0852_ps_s04_180_chair_10_n02791124_1258.png
subject-04,1,853,0.659137010574341,keyboard,keyboard,120,0853_ps_s04_120_keyboard_10_n04505470_4385.png
subject-04,1,854,0.696655035018921,airplane,bicycle,180,0854_ps_s04_180_bicycle_10_n03792782_8080.png
subject-04,1,855,1.13645195960999,oven,oven,30,0855_ps_s04_30_oven_10_n04111531_3902.png
subject-04,1,856,0.698430061340332,keyboard,bottle,60,0856_ps_s04_60_bottle_10_n03983396_2205.png
subject-04,1,857,1.30002403259277,car,clock,30,0857_ps_s04_30_clock_10_n02708093_1125.png
subject-04,1,858,0.903823852539062,keyboard,elephant,150,0858_ps_s04_150_elephant_10_n02504458_6499.png
subject-04,1,859,0.673865079879761,truck,truck,90,0859_ps_s04_90_truck_10_n03417042_1978.png
subject-04,1,860,0.629760980606079,keyboard,cat,120,0860_ps_s04_120_cat_10_n02123159_1108.png
subject-04,1,861,0.647369861602783,keyboard,keyboard,0,0861_ps_s04_0_keyboard_10_n04505470_9514.png
subject-04,1,862,0.66723108291626,boat,clock,180,0862_ps_s04_180_clock_10_n03196217_4492.png
subject-04,1,863,0.551346063613892,oven,oven,60,0863_ps_s04_60_oven_10_n04111531_3886.png
subject-04,1,864,NaN,na,oven,90,0864_ps_s04_90_oven_10_n04111531_9304.png
subject-04,1,865,0.674839019775391,bottle,bottle,60,0865_ps_s04_60_bottle_10_n04557648_4133.png
subject-04,1,866,0.61450982093811,boat,boat,60,0866_ps_s04_60_boat_10_n04612504_14699.png
subject-04,1,867,0.732325077056885,car,car,0,0867_ps_s04_0_car_10_n02814533_76388.png
subject-04,1,868,0.614120006561279,keyboard,keyboard,180,0868_ps_s04_180_keyboard_10_n04505470_5062.png
subject-04,1,869,1.11377096176147,truck,bear,150,0869_ps_s04_150_bear_10_n02134084_17572.png
subject-04,1,870,1.10769200325012,bear,bear,30,0870_ps_s04_30_bear_10_n02134084_13394.png
subject-04,1,871,0.69334602355957,oven,bear,150,0871_ps_s04_150_bear_10_n02134084_3860.png
subject-04,1,872,0.403285026550293,clock,clock,90,0872_ps_s04_90_clock_10_n02708093_6850.png
subject-04,1,873,0.757067203521729,car,car,60,0873_ps_s04_60_car_10_n02814533_46401.png
subject-04,1,874,0.512771129608154,boat,boat,30,0874_ps_s04_30_boat_10_n03662601_4881.png
subject-04,1,875,0.584717035293579,chair,chair,30,0875_ps_s04_30_chair_10_n04099969_52474.png
subject-04,1,876,0.892637968063354,elephant,elephant,90,0876_ps_s04_90_elephant_10_n02504458_3629.png
subject-04,1,877,0.678308010101318,knife,knife,0,0877_ps_s04_0_knife_10_n03041632_927.png
subject-04,1,878,1.06228399276733,bird,bird,60,0878_ps_s04_60_bird_10_n01592084_5833.png
subject-04,1,879,0.842021942138672,airplane,airplane,30,0879_ps_s04_30_airplane_10_n02690373_11799.png
subject-04,1,880,1.02990412712097,bear,cat,120,0880_ps_s04_120_cat_10_n02125311_9615.png
subject-04,1,881,0.709354877471924,truck,truck,90,0881_ps_s04_90_truck_10_n04467665_29260.png
subject-04,1,882,0.840962171554565,bear,clock,180,0882_ps_s04_180_clock_10_n04548280_5527.png
subject-04,1,883,0.93880295753479,truck,truck,120,0883_ps_s04_120_truck_10_n03796401_25021.png
subject-04,1,884,1.01703405380249,cat,cat,30,0884_ps_s04_30_cat_10_n02123045_13172.png
subject-04,1,885,0.594315052032471,bicycle,bicycle,0,0885_ps_s04_0_bicycle_10_n02835271_7256.png
subject-04,1,886,0.762242078781128,bird,chair,180,0886_ps_s04_180_chair_10_n04099969_9960.png
subject-04,1,887,0.620063066482544,clock,clock,0,0887_ps_s04_0_clock_10_n04548280_4426.png
subject-04,1,888,1.46001601219177,oven,oven,30,0888_ps_s04_30_oven_10_n04111531_6903.png
subject-04,1,889,0.709722995758057,bear,dog,60,0889_ps_s04_60_dog_10_n02104365_1262.png
subject-04,1,890,1.05335307121277,bottle,bottle,0,0890_ps_s04_0_bottle_10_n03937543_4850.png
subject-04,1,891,1.15754294395447,bicycle,bicycle,30,0891_ps_s04_30_bicycle_10_n02835271_11842.png
subject-04,1,892,0.74518895149231,car,chair,150,0892_ps_s04_150_chair_10_n02791124_5685.png
subject-04,1,893,0.662816047668457,boat,boat,30,0893_ps_s04_30_boat_10_n02951358_16837.png
subject-04,1,894,0.984777927398682,airplane,clock,180,0894_ps_s04_180_clock_10_n02708093_960.png
subject-04,1,895,1.19660305976868,bear,elephant,150,0895_ps_s04_150_elephant_10_n02504013_6776.png
subject-04,1,896,0.920460939407349,knife,knife,60,0896_ps_s04_60_knife_10_n03041632_24060.png
subject-04,1,897,1.11617994308472,bottle,elephant,30,0897_ps_s04_30_elephant_10_n02504013_4386.png
subject-04,1,898,0.797936201095581,oven,bear,120,0898_ps_s04_120_bear_10_n02133161_1629.png
subject-04,1,899,0.639578819274902,car,boat,150,0899_ps_s04_150_boat_10_n03344393_5265.png
subject-04,1,900,0.829691886901855,dog,dog,30,0900_ps_s04_30_dog_10_n02097047_4189.png
subject-04,1,901,0.573393106460571,cat,bottle,90,0901_ps_s04_90_bottle_10_n03937543_4512.png
subject-04,1,902,0.683640003204346,elephant,elephant,120,0902_ps_s04_120_elephant_10_n02504013_2340.png
subject-04,1,903,0.779593944549561,cat,dog,90,0903_ps_s04_90_dog_10_n02091244_2626.png
subject-04,1,904,0.982696056365967,car,bear,120,0904_ps_s04_120_bear_10_n02132136_3616.png
subject-04,1,905,0.672547101974487,bottle,bottle,60,0905_ps_s04_60_bottle_10_n02823428_880.png
subject-04,1,906,0.736570119857788,bear,oven,120,0906_ps_s04_120_oven_10_n04111531_9344.png
subject-04,1,907,0.974478960037231,elephant,elephant,30,0907_ps_s04_30_elephant_10_n02504458_6336.png
subject-04,1,908,0.974132061004639,car,clock,150,0908_ps_s04_150_clock_10_n04548280_3299.png
subject-04,1,909,1.01998996734619,knife,oven,180,0909_ps_s04_180_oven_10_n04111531_23830.png
subject-04,1,910,0.474153995513916,bear,knife,180,0910_ps_s04_180_knife_10_n03041632_5916.png
subject-04,1,911,0.801635026931763,airplane,knife,180,0911_ps_s04_180_knife_10_n03041632_20697.png
subject-04,1,912,0.735407829284668,bear,elephant,90,0912_ps_s04_90_elephant_10_n02504013_3567.png
subject-04,1,913,0.677315950393677,cat,car,120,0913_ps_s04_120_car_10_n03100240_14794.png
subject-04,1,914,0.809073925018311,bear,bear,180,0914_ps_s04_180_bear_10_n02134084_10289.png
subject-04,1,915,1.07473301887512,dog,cat,150,0915_ps_s04_150_cat_10_n02124075_2080.png
subject-04,1,916,0.68289589881897,bicycle,bicycle,0,0916_ps_s04_0_bicycle_10_n02835271_8417.png
subject-04,1,917,0.818368911743164,bear,elephant,180,0917_ps_s04_180_elephant_10_n02504458_4395.png
subject-04,1,918,0.708300828933716,bird,bird,30,0918_ps_s04_30_bird_10_n01824575_6272.png
subject-04,1,919,0.718034982681274,airplane,airplane,120,0919_ps_s04_120_airplane_10_n02690373_13610.png
subject-04,1,920,0.805804967880249,bird,bird,60,0920_ps_s04_60_bird_10_n01817953_6333.png
subject-04,1,921,0.649866104125977,bear,bear,60,0921_ps_s04_60_bear_10_n02134418_5537.png
subject-04,1,922,0.885503053665161,car,car,120,0922_ps_s04_120_car_10_n02814533_2923.png
subject-04,1,923,0.575411081314087,bottle,bottle,30,0923_ps_s04_30_bottle_10_n03983396_11519.png
subject-04,1,924,0.807530879974365,bear,dog,180,0924_ps_s04_180_dog_10_n02093991_2725.png
subject-04,1,925,0.573307991027832,clock,clock,0,0925_ps_s04_0_clock_10_n02708093_1513.png
subject-04,1,926,0.776942014694214,elephant,elephant,30,0926_ps_s04_30_elephant_10_n02504458_7033.png
subject-04,1,927,0.576662063598633,chair,chair,0,0927_ps_s04_0_chair_10_n02791124_1693.png
subject-04,1,928,0.910542964935303,truck,boat,180,0928_ps_s04_180_boat_10_n03662601_5223.png
subject-04,1,929,1.16227507591248,boat,boat,30,0929_ps_s04_30_boat_10_n02951358_12664.png
subject-04,1,930,1.15627884864807,cat,bicycle,120,0930_ps_s04_120_bicycle_10_n03792782_20475.png
subject-04,1,931,1.40776801109314,boat,boat,90,0931_ps_s04_90_boat_10_n04273569_18037.png
subject-04,1,932,0.617714166641235,oven,oven,90,0932_ps_s04_90_oven_10_n04111531_4879.png
subject-04,1,933,1.04753804206848,airplane,boat,180,0933_ps_s04_180_boat_10_n03344393_2969.png
subject-04,1,934,1.47945594787598,bicycle,bicycle,90,0934_ps_s04_90_bicycle_10_n03792782_17503.png
subject-04,1,935,0.84315299987793,car,dog,150,0935_ps_s04_150_dog_10_n02088094_13992.png
subject-04,1,936,0.676896095275879,bear,bear,60,0936_ps_s04_60_bear_10_n02134418_2185.png
subject-04,1,937,0.812880039215088,keyboard,keyboard,90,0937_ps_s04_90_keyboard_10_n04505470_4454.png
subject-04,1,938,0.728500843048096,truck,bicycle,180,0938_ps_s04_180_bicycle_10_n02835271_7350.png
subject-04,1,939,0.690467119216919,bear,bear,0,0939_ps_s04_0_bear_10_n02133161_1032.png
subject-04,1,940,0.598139762878418,keyboard,keyboard,30,0940_ps_s04_30_keyboard_10_n04505470_6963.png
subject-04,1,941,1.19991493225098,car,chair,150,0941_ps_s04_150_chair_10_n03376595_10700.png
subject-04,1,942,0.817867994308472,dog,dog,60,0942_ps_s04_60_dog_10_n02099429_3814.png
subject-04,1,943,0.843658924102783,bear,clock,120,0943_ps_s04_120_clock_10_n04548280_5295.png
subject-04,1,944,1.17537999153137,car,car,90,0944_ps_s04_90_car_10_n04285008_17056.png
subject-04,1,945,0.891107082366943,cat,dog,90,0945_ps_s04_90_dog_10_n02100877_2341.png
subject-04,1,946,0.82306981086731,truck,truck,30,0946_ps_s04_30_truck_10_n03796401_11628.png
subject-04,1,947,1.36497092247009,keyboard,bottle,120,0947_ps_s04_120_bottle_10_n04591713_2345.png
subject-04,1,948,0.888803958892822,bear,dog,120,0948_ps_s04_120_dog_10_n02092002_9876.png
subject-04,1,949,1.01456379890442,car,bird,90,0949_ps_s04_90_bird_10_n02002724_12183.png
subject-04,1,950,0.740485906600952,elephant,elephant,60,0950_ps_s04_60_elephant_10_n02504013_4229.png
subject-04,1,951,1.22599601745605,oven,oven,90,0951_ps_s04_90_oven_10_n04111531_2803.png
subject-04,1,952,0.627914905548096,keyboard,keyboard,120,0952_ps_s04_120_keyboard_10_n04505470_4724.png
subject-04,1,953,1.00366902351379,oven,bicycle,150,0953_ps_s04_150_bicycle_10_n03792782_4544.png
subject-04,1,954,1.21741199493408,oven,oven,0,0954_ps_s04_0_oven_10_n04111531_6428.png
subject-04,1,955,0.897362947463989,knife,knife,30,0955_ps_s04_30_knife_10_n03041632_32208.png
subject-04,1,956,1.33743691444397,dog,dog,30,0956_ps_s04_30_dog_10_n02090622_1485.png
subject-04,1,957,0.48720121383667,keyboard,keyboard,30,0957_ps_s04_30_keyboard_10_n03085013_6166.png
subject-04,1,958,0.924750089645386,elephant,bicycle,90,0958_ps_s04_90_bicycle_10_n02835271_2581.png
subject-04,1,959,0.620594024658203,keyboard,keyboard,0,0959_ps_s04_0_keyboard_10_n03085013_2189.png
subject-04,1,960,NaN,na,dog,150,0960_ps_s04_150_dog_10_n02108915_7875.png
subject-04,1,961,0.532463073730469,cat,cat,30,0961_ps_s04_30_cat_10_n02123045_7255.png
subject-04,1,962,0.914144039154053,car,car,120,0962_ps_s04_120_car_10_n02814533_60400.png
subject-04,1,963,0.793577194213867,bear,bird,180,0963_ps_s04_180_bird_10_n01824575_3556.png
subject-04,1,964,0.589343070983887,bicycle,bicycle,0,0964_ps_s04_0_bicycle_10_n02835271_22549.png
subject-04,1,965,0.661239147186279,elephant,elephant,60,0965_ps_s04_60_elephant_10_n02504458_9516.png
subject-04,1,966,0.849046945571899,dog,dog,0,0966_ps_s04_0_dog_10_n02090379_3514.png
subject-04,1,967,0.928858995437622,truck,oven,150,0967_ps_s04_150_oven_10_n04111531_15296.png
subject-04,1,968,0.610603094100952,bicycle,bicycle,60,0968_ps_s04_60_bicycle_10_n02835271_24639.png
subject-04,1,969,0.948368072509766,truck,truck,60,0969_ps_s04_60_truck_10_n03417042_18374.png
subject-04,1,970,0.650400876998901,boat,boat,90,0970_ps_s04_90_boat_10_n04273569_27343.png
subject-04,1,971,1.2681770324707,bird,bird,30,0971_ps_s04_30_bird_10_n01532829_2492.png
subject-04,1,972,1.50006914138794,bird,bear,90,0972_ps_s04_90_bear_10_n02133161_160.png
subject-04,1,973,0.58187198638916,oven,oven,30,0973_ps_s04_30_oven_10_n04111531_21822.png
subject-04,1,974,0.917586088180542,truck,airplane,180,0974_ps_s04_180_airplane_10_n02690373_1316.png
subject-04,1,975,0.841264009475708,keyboard,keyboard,120,0975_ps_s04_120_keyboard_10_n04505470_4535.png
subject-04,1,976,0.975223064422607,dog,dog,60,0976_ps_s04_60_dog_10_n02111129_8015.png
subject-04,1,977,0.841002941131592,car,dog,60,0977_ps_s04_60_dog_10_n02097658_759.png
subject-04,1,978,1.45866417884827,bird,dog,0,0978_ps_s04_0_dog_10_n02105641_6503.png
subject-04,1,979,1.46860599517822,oven,knife,30,0979_ps_s04_30_knife_10_n03041632_3063.png
subject-04,1,980,0.764363050460815,airplane,airplane,90,0980_ps_s04_90_airplane_10_n02690373_21731.png
subject-04,1,981,0.798201084136963,keyboard,keyboard,30,0981_ps_s04_30_keyboard_10_n04505470_5171.png
subject-04,1,982,1.17412710189819,bird,clock,30,0982_ps_s04_30_clock_10_n03196217_6348.png
subject-04,1,983,0.993715047836304,knife,airplane,150,0983_ps_s04_150_airplane_10_n02690373_13021.png
subject-04,1,984,1.1059148311615,chair,chair,30,0984_ps_s04_30_chair_10_n04429376_21089.png
subject-04,1,985,1.02153897285461,airplane,airplane,90,0985_ps_s04_90_airplane_10_n02690373_3147.png
subject-04,1,986,1.25126600265503,chair,oven,150,0986_ps_s04_150_oven_10_n04111531_5643.png
subject-04,1,987,1.01309394836426,dog,cat,180,0987_ps_s04_180_cat_10_n02123045_5422.png
subject-04,1,988,0.749034881591797,cat,bear,150,0988_ps_s04_150_bear_10_n02133161_2340.png
subject-04,1,989,0.802824020385742,car,truck,180,0989_ps_s04_180_truck_10_n03417042_1149.png
subject-04,1,990,0.788594007492065,chair,knife,120,0990_ps_s04_120_knife_10_n03041632_14546.png
subject-04,1,991,1.13870000839233,airplane,truck,60,0991_ps_s04_60_truck_10_n04467665_67115.png
subject-04,1,992,0.648261785507202,cat,cat,0,0992_ps_s04_0_cat_10_n02123597_2232.png
subject-04,1,993,1.18188786506653,cat,bicycle,120,0993_ps_s04_120_bicycle_10_n02835271_9669.png
subject-04,1,994,0.829984903335571,car,truck,150,0994_ps_s04_150_truck_10_n04467665_68754.png
subject-04,1,995,0.58781099319458,cat,cat,60,0995_ps_s04_60_cat_10_n02123597_14647.png
subject-04,1,996,1.16936206817627,bear,oven,180,0996_ps_s04_180_oven_10_n04111531_6958.png
subject-04,1,997,0.779135942459106,truck,airplane,150,0997_ps_s04_150_airplane_10_n02690373_3407.png
subject-04,1,998,0.880959987640381,bicycle,bicycle,60,0998_ps_s04_60_bicycle_10_n02835271_21185.png
subject-04,1,999,0.710933923721313,clock,clock,60,0999_ps_s04_60_clock_10_n04548280_7478.png
subject-04,1,1000,0.842697143554688,clock,clock,30,1000_ps_s04_30_clock_10_n03196217_2536.png
subject-04,1,1001,1.50004100799561,knife,knife,30,1001_ps_s04_30_knife_10_n03041632_11327.png
subject-04,1,1002,1.38219499588013,bicycle,car,150,1002_ps_s04_150_car_10_n04285008_8813.png
subject-04,1,1003,1.38219499588013,airplane,airplane,120,1003_ps_s04_120_airplane_10_n02690373_10309.png
subject-04,1,1004,1.50002908706665,car,knife,120,1004_ps_s04_120_knife_10_n03041632_24541.png
subject-04,1,1005,1.42980480194092,oven,boat,60,1005_ps_s04_60_boat_10_n02951358_1911.png
subject-04,1,1006,1.08786416053772,bird,bird,30,1006_ps_s04_30_bird_10_n02007558_4009.png
subject-04,1,1007,1.21735191345215,airplane,knife,120,1007_ps_s04_120_knife_10_n03041632_48151.png
subject-04,1,1008,0.811130046844482,airplane,airplane,60,1008_ps_s04_60_airplane_10_n02690373_13078.png
subject-04,1,1009,0.499127864837646,boat,boat,60,1009_ps_s04_60_boat_10_n04273569_4978.png
subject-04,1,1010,0.944885969161987,bottle,bottle,60,1010_ps_s04_60_bottle_10_n04579145_4385.png
subject-04,1,1011,1.0427360534668,airplane,airplane,0,1011_ps_s04_0_airplane_10_n02690373_5729.png
subject-04,1,1012,0.964566946029663,truck,car,180,1012_ps_s04_180_car_10_n02814533_39517.png
subject-04,1,1013,1.05220103263855,boat,boat,60,1013_ps_s04_60_boat_10_n02951358_13017.png
subject-04,1,1014,0.910079002380371,bird,bird,0,1014_ps_s04_0_bird_10_n01622779_6183.png
subject-04,1,1015,1.07586693763733,elephant,cat,120,1015_ps_s04_120_cat_10_n02123159_3289.png
subject-04,1,1016,1.21810984611511,knife,knife,0,1016_ps_s04_0_knife_10_n03041632_33424.png
subject-04,1,1017,1.3577880859375,bottle,bottle,120,1017_ps_s04_120_bottle_10_n03937543_24.png
subject-04,1,1018,0.991206169128418,car,car,150,1018_ps_s04_150_car_10_n04285008_12696.png
subject-04,1,1019,1.0311291217804,bottle,bottle,60,1019_ps_s04_60_bottle_10_n03983396_10027.png
subject-04,1,1020,NaN,na,bird,120,1020_ps_s04_120_bird_10_n01796340_12914.png
subject-04,1,1021,NaN,na,truck,30,1021_ps_s04_30_truck_10_n03417042_10401.png
subject-04,1,1022,NaN,na,car,180,1022_ps_s04_180_car_10_n02814533_40459.png
subject-04,1,1023,1.14454889297485,bird,airplane,60,1023_ps_s04_60_airplane_10_n02690373_10232.png
subject-04,1,1024,0.568228960037231,bottle,bicycle,120,1024_ps_s04_120_bicycle_10_n03792782_11272.png
subject-04,1,1025,0.410192012786865,clock,clock,60,1025_ps_s04_60_clock_10_n04548280_5866.png
subject-04,1,1026,0.799723148345947,oven,chair,120,1026_ps_s04_120_chair_10_n02791124_2773.png
subject-04,1,1027,0.673644065856934,chair,chair,0,1027_ps_s04_0_chair_10_n02791124_1049.png
subject-04,1,1028,0.845412015914917,bird,bird,30,1028_ps_s04_30_bird_10_n01817953_11996.png
subject-04,1,1029,1.33356499671936,bear,chair,120,1029_ps_s04_120_chair_10_n04099969_7545.png
subject-04,1,1030,1.41913390159607,dog,dog,0,1030_ps_s04_0_dog_10_n02104365_1500.png
subject-04,1,1031,0.642805814743042,keyboard,chair,150,1031_ps_s04_150_chair_10_n03376595_1302.png
subject-04,1,1032,0.62105393409729,bicycle,bicycle,30,1032_ps_s04_30_bicycle_10_n02835271_22143.png
subject-04,1,1033,0.972347021102905,bird,clock,120,1033_ps_s04_120_clock_10_n02708093_480.png
subject-04,1,1034,0.740660905838013,cat,bicycle,150,1034_ps_s04_150_bicycle_10_n03792782_5133.png
subject-04,1,1035,0.690078973770142,chair,cat,180,1035_ps_s04_180_cat_10_n02123045_13220.png
subject-04,1,1036,0.853807926177979,bear,cat,180,1036_ps_s04_180_cat_10_n02123597_3944.png
subject-04,1,1037,0.643916130065918,car,car,0,1037_ps_s04_0_car_10_n04285008_1867.png
subject-04,1,1038,0.997652053833008,elephant,bird,180,1038_ps_s04_180_bird_10_n02011460_7629.png
subject-04,1,1039,1.49999308586121,bird,bird,0,1039_ps_s04_0_bird_10_n02011460_5925.png
subject-04,1,1040,0.571175098419189,bottle,bottle,60,1040_ps_s04_60_bottle_10_n02823428_4108.png
subject-04,1,1041,0.889228820800781,chair,chair,0,1041_ps_s04_0_chair_10_n04429376_49351.png
subject-04,1,1042,0.879374980926514,truck,bear,120,1042_ps_s04_120_bear_10_n02133161_2304.png
subject-04,1,1043,0.672919988632202,car,knife,180,1043_ps_s04_180_knife_10_n03041632_24277.png
subject-04,1,1044,1.0706901550293,chair,chair,120,1044_ps_s04_120_chair_10_n04099969_13901.png
subject-04,1,1045,1.00849604606628,bear,bear,180,1045_ps_s04_180_bear_10_n02134084_23061.png
subject-04,1,1046,0.6701979637146,bear,bear,30,1046_ps_s04_30_bear_10_n02134084_10766.png
subject-04,1,1047,0.680106163024902,clock,clock,90,1047_ps_s04_90_clock_10_n04548280_6743.png
subject-04,1,1048,0.946127891540527,oven,elephant,180,1048_ps_s04_180_elephant_10_n02504013_698.png
subject-04,1,1049,0.593638181686401,oven,oven,60,1049_ps_s04_60_oven_10_n04111531_7345.png
subject-04,1,1050,0.957669019699097,dog,dog,30,1050_ps_s04_30_dog_10_n02086646_7362.png
subject-04,1,1051,0.533941030502319,airplane,airplane,30,1051_ps_s04_30_airplane_10_n02690373_1928.png
subject-04,1,1052,0.621392011642456,car,boat,150,1052_ps_s04_150_boat_10_n03344393_6854.png
subject-04,1,1053,0.784918785095215,bear,boat,120,1053_ps_s04_120_boat_10_n04273569_10840.png
subject-04,1,1054,0.772897958755493,bicycle,bicycle,0,1054_ps_s04_0_bicycle_10_n02835271_759.png
subject-04,1,1055,0.718530893325806,cat,elephant,150,1055_ps_s04_150_elephant_10_n02504458_5470.png
subject-04,1,1056,0.924505949020386,dog,dog,0,1056_ps_s04_0_dog_10_n02106662_15515.png
subject-04,1,1057,0.936357975006104,truck,bicycle,180,1057_ps_s04_180_bicycle_10_n03792782_34197.png
subject-04,1,1058,1.37405395507812,airplane,airplane,60,1058_ps_s04_60_airplane_10_n02690373_243.png
subject-04,1,1059,0.835917949676514,bird,dog,90,1059_ps_s04_90_dog_10_n02107908_3447.png
subject-04,1,1060,0.599852085113525,clock,clock,90,1060_ps_s04_90_clock_10_n02708093_204.png
subject-04,1,1061,1.10747098922729,bear,cat,180,1061_ps_s04_180_cat_10_n02123045_8690.png
subject-04,1,1062,0.64527416229248,bicycle,bicycle,0,1062_ps_s04_0_bicycle_10_n03792782_11824.png
subject-04,1,1063,0.633116006851196,boat,boat,120,1063_ps_s04_120_boat_10_n04612504_15256.png
subject-04,1,1064,0.693412065505981,car,oven,150,1064_ps_s04_150_oven_10_n04111531_7965.png
subject-04,1,1065,0.854703903198242,keyboard,keyboard,120,1065_ps_s04_120_keyboard_10_n03085013_23267.png
subject-04,1,1066,1.46448707580566,oven,oven,30,1066_ps_s04_30_oven_10_n04111531_21855.png
subject-04,1,1067,1.24071288108826,bicycle,bicycle,120,1067_ps_s04_120_bicycle_10_n02835271_19213.png
subject-04,1,1068,0.946307897567749,bicycle,bicycle,60,1068_ps_s04_60_bicycle_10_n02835271_1075.png
subject-04,1,1069,1.00199794769287,keyboard,keyboard,120,1069_ps_s04_120_keyboard_10_n04505470_1157.png
subject-04,1,1070,0.6820969581604,car,boat,150,1070_ps_s04_150_boat_10_n03344393_4944.png
subject-04,1,1071,0.983633041381836,bicycle,airplane,150,1071_ps_s04_150_airplane_10_n02690373_3589.png
