subj,Session,trial,rt,object_response,category,condition,imagename
subject-01,1,1,0.773930072784424,truck,truck,30,0001_ps_s01_30_truck_10_n03417042_14861.png
subject-01,1,2,0.771803140640259,keyboard,keyboard,0,0002_ps_s01_0_keyboard_10_n03085013_25476.png
subject-01,1,3,0.993726968765259,elephant,elephant,0,0003_ps_s01_0_elephant_10_n02504013_3087.png
subject-01,1,4,0.929347991943359,cat,cat,30,0004_ps_s01_30_cat_10_n02123394_4633.png
subject-01,1,5,0.94724702835083,keyboard,knife,120,0005_ps_s01_120_knife_10_n03041632_48151.png
subject-01,1,6,1.08322501182556,bicycle,bicycle,60,0006_ps_s01_60_bicycle_10_n02835271_1075.png
subject-01,1,7,1.17887091636658,bear,bear,180,0007_ps_s01_180_bear_10_n02134084_10289.png
subject-01,1,8,0.76678204536438,keyboard,keyboard,0,0008_ps_s01_0_keyboard_10_n03085013_21967.png
subject-01,1,9,1.05862712860107,clock,oven,150,0009_ps_s01_150_oven_10_n04111531_5737.png
subject-01,1,10,1.2964301109314,bear,elephant,60,0010_ps_s01_60_elephant_10_n02504458_8141.png
subject-01,1,11,1.07200479507446,elephant,elephant,90,0011_ps_s01_90_elephant_10_n02504458_3153.png
subject-01,1,12,1.05819487571716,bear,bear,60,0012_ps_s01_60_bear_10_n02134418_5807.png
subject-01,1,13,0.707764863967896,boat,boat,0,0013_ps_s01_0_boat_10_n04273569_15322.png
subject-01,1,14,1.03568005561829,knife,knife,0,0014_ps_s01_0_knife_10_n03041632_42526.png
subject-01,1,15,0.973317861557007,bicycle,bicycle,30,0015_ps_s01_30_bicycle_10_n02835271_5886.png
subject-01,1,16,1.06314992904663,oven,dog,180,0016_ps_s01_180_dog_10_n02110063_869.png
subject-01,1,17,1.0991108417511,clock,bicycle,180,0017_ps_s01_180_bicycle_10_n03792782_3334.png
subject-01,1,18,0.960758924484253,airplane,airplane,0,0018_ps_s01_0_airplane_10_n02690373_7355.png
subject-01,1,19,1.06473898887634,car,bird,120,0019_ps_s01_120_bird_10_n01798484_2289.png
subject-01,1,20,1.4905960559845,cat,knife,60,0020_ps_s01_60_knife_10_n03041632_87380.png
subject-01,1,21,0.98433780670166,bird,bird,0,0021_ps_s01_0_bird_10_n02027492_15639.png
subject-01,1,22,1.42411303520203,airplane,bird,0,0022_ps_s01_0_bird_10_n02006656_7153.png
subject-01,1,23,0.738217830657959,boat,boat,60,0023_ps_s01_60_boat_10_n04612504_14699.png
subject-01,1,24,1.04578304290771,bear,bear,60,0024_ps_s01_60_bear_10_n02134418_5971.png
subject-01,1,25,1.25962996482849,dog,dog,90,0025_ps_s01_90_dog_10_n02110063_16680.png
subject-01,1,26,0.923274993896484,car,car,90,0026_ps_s01_90_car_10_n03100240_6010.png
subject-01,1,27,0.81717586517334,elephant,elephant,30,0027_ps_s01_30_elephant_10_n02504458_9835.png
subject-01,1,28,0.851245880126953,airplane,airplane,30,0028_ps_s01_30_airplane_10_n02690373_10207.png
subject-01,1,29,1.38495993614197,keyboard,bottle,180,0029_ps_s01_180_bottle_10_n03983396_5532.png
subject-01,1,30,0.934457063674927,dog,dog,30,0030_ps_s01_30_dog_10_n02090622_1485.png
subject-01,1,31,1.09242010116577,airplane,truck,150,0031_ps_s01_150_truck_10_n03417042_5503.png
subject-01,1,32,1.23019909858704,bear,bear,180,0032_ps_s01_180_bear_10_n02133161_897.png
subject-01,1,33,0.959986925125122,bicycle,keyboard,180,0033_ps_s01_180_keyboard_10_n04505470_4579.png
subject-01,1,34,0.915880918502808,bird,bird,60,0034_ps_s01_60_bird_10_n01592084_5833.png
subject-01,1,35,0.933691024780273,dog,dog,0,0035_ps_s01_0_dog_10_n02090379_3514.png
subject-01,1,36,0.969354867935181,chair,airplane,180,0036_ps_s01_180_airplane_10_n02690373_6144.png
subject-01,1,37,0.925240993499756,airplane,airplane,90,0037_ps_s01_90_airplane_10_n02690373_1436.png
subject-01,1,38,0.725034952163696,clock,clock,120,0038_ps_s01_120_clock_10_n04548280_354.png
subject-01,1,39,0.792961120605469,keyboard,keyboard,0,0039_ps_s01_0_keyboard_10_n03085013_2189.png
subject-01,1,40,1.49865293502808,keyboard,chair,120,0040_ps_s01_120_chair_10_n04099969_9005.png
subject-01,1,41,1.31049680709839,bear,bicycle,180,0041_ps_s01_180_bicycle_10_n02835271_7350.png
subject-01,1,42,1.15027809143066,bottle,bottle,150,0042_ps_s01_150_bottle_10_n04557648_8320.png
subject-01,1,43,1.14422488212585,dog,dog,0,0043_ps_s01_0_dog_10_n02105641_6503.png
subject-01,1,44,1.18802785873413,clock,clock,90,0044_ps_s01_90_clock_10_n04548280_6022.png
subject-01,1,45,1.09790515899658,clock,clock,60,0045_ps_s01_60_clock_10_n03196217_7414.png
subject-01,1,46,1.03956699371338,oven,oven,150,0046_ps_s01_150_oven_10_n04111531_7965.png
subject-01,1,47,1.50012111663818,clock,bottle,90,0047_ps_s01_90_bottle_10_n04579145_4594.png
subject-01,1,48,0.741262912750244,bottle,bottle,30,0048_ps_s01_30_bottle_10_n03983396_4564.png
subject-01,1,49,0.909142971038818,cat,cat,60,0049_ps_s01_60_cat_10_n02125311_54015.png
subject-01,1,50,1.02077388763428,bird,bicycle,150,0050_ps_s01_150_bicycle_10_n03792782_5133.png
subject-01,1,51,NaN,na,bird,120,0051_ps_s01_120_bird_10_n02018207_6296.png
subject-01,1,52,1.08858013153076,bird,bird,30,0052_ps_s01_30_bird_10_n01817953_11996.png
subject-01,1,53,1.4746150970459,oven,keyboard,150,0053_ps_s01_150_keyboard_10_n03085013_3148.png
subject-01,1,54,0.828446865081787,bear,bear,60,0054_ps_s01_60_bear_10_n02134418_5537.png
subject-01,1,55,1.41590809822083,oven,cat,150,0055_ps_s01_150_cat_10_n02125311_11409.png
subject-01,1,56,1.05372500419617,knife,knife,30,0056_ps_s01_30_knife_10_n03041632_3063.png
subject-01,1,57,1.09743094444275,dog,dog,60,0057_ps_s01_60_dog_10_n02106550_6424.png
subject-01,1,58,1.02944087982178,bear,bear,30,0058_ps_s01_30_bear_10_n02133161_7032.png
subject-01,1,59,1.50006604194641,oven,cat,150,0059_ps_s01_150_cat_10_n02125311_5570.png
subject-01,1,60,0.839444160461426,bird,bird,30,0060_ps_s01_30_bird_10_n01843383_13894.png
subject-01,1,61,0.848675012588501,boat,bottle,60,0061_ps_s01_60_bottle_10_n03983396_2205.png
subject-01,1,62,1.00057077407837,bicycle,bicycle,60,0062_ps_s01_60_bicycle_10_n03792782_31010.png
subject-01,1,63,0.776553153991699,bottle,bottle,60,0063_ps_s01_60_bottle_10_n02823428_880.png
subject-01,1,64,1.37415504455566,airplane,car,180,0064_ps_s01_180_car_10_n02814533_40459.png
subject-01,1,65,0.776392936706543,cat,cat,120,0065_ps_s01_120_cat_10_n02123045_567.png
subject-01,1,66,1.38000702857971,car,knife,120,0066_ps_s01_120_knife_10_n03041632_24541.png
subject-01,1,67,0.985806941986084,elephant,elephant,30,0067_ps_s01_30_elephant_10_n02504458_8644.png
subject-01,1,68,0.957365989685059,keyboard,keyboard,0,0068_ps_s01_0_keyboard_10_n03085013_2166.png
subject-01,1,69,0.741199970245361,boat,boat,90,0069_ps_s01_90_boat_10_n04273569_13972.png
subject-01,1,70,1.37905287742615,oven,airplane,150,0070_ps_s01_150_airplane_10_n02690373_9432.png
subject-01,1,71,0.888868093490601,truck,truck,90,0071_ps_s01_90_truck_10_n03417042_5228.png
subject-01,1,72,0.80470609664917,airplane,airplane,0,0072_ps_s01_0_airplane_10_n02690373_4294.png
subject-01,1,73,0.78447413444519,chair,chair,30,0073_ps_s01_30_chair_10_n04099969_52474.png
subject-01,1,74,0.960471153259277,oven,oven,30,0074_ps_s01_30_oven_10_n04111531_21822.png
subject-01,1,75,1.1903190612793,keyboard,oven,150,0075_ps_s01_150_oven_10_n04111531_15735.png
subject-01,1,76,NaN,na,dog,120,0076_ps_s01_120_dog_10_n02104029_7335.png
subject-01,1,77,NaN,na,truck,150,0077_ps_s01_150_truck_10_n03417042_17911.png
subject-01,1,78,0.825651168823242,clock,clock,30,0078_ps_s01_30_clock_10_n02708093_899.png
subject-01,1,79,1.13533186912537,boat,boat,60,0079_ps_s01_60_boat_10_n03662601_9590.png
subject-01,1,80,1.14532685279846,oven,chair,90,0080_ps_s01_90_chair_10_n02791124_6550.png
subject-01,1,81,1.17237520217896,boat,clock,180,0081_ps_s01_180_clock_10_n03196217_4492.png
subject-01,1,82,0.774043798446655,car,car,30,0082_ps_s01_30_car_10_n04285008_14128.png
subject-01,1,83,0.997896909713745,bicycle,bicycle,60,0083_ps_s01_60_bicycle_10_n02835271_4730.png
subject-01,1,84,0.931784152984619,elephant,elephant,0,0084_ps_s01_0_elephant_10_n02504458_62.png
subject-01,1,85,1.06563401222229,bear,dog,120,0085_ps_s01_120_dog_10_n02086646_8144.png
subject-01,1,86,1.05349802970886,knife,knife,60,0086_ps_s01_60_knife_10_n03041632_1671.png
subject-01,1,87,1.06535315513611,bird,bird,180,0087_ps_s01_180_bird_10_n01534433_10801.png
subject-01,1,88,1.15684199333191,oven,keyboard,150,0088_ps_s01_150_keyboard_10_n03085013_20570.png
subject-01,1,89,1.03865504264832,car,knife,150,0089_ps_s01_150_knife_10_n03041632_4808.png
subject-01,1,90,1.160649061203,truck,keyboard,180,0090_ps_s01_180_keyboard_10_n03085013_1808.png
subject-01,1,91,1.23839402198792,car,truck,120,0091_ps_s01_120_truck_10_n03796401_4370.png
subject-01,1,92,0.804559946060181,airplane,airplane,60,0092_ps_s01_60_airplane_10_n02690373_6314.png
subject-01,1,93,0.846121072769165,oven,oven,90,0093_ps_s01_90_oven_10_n04111531_4879.png
subject-01,1,94,0.987990140914917,bicycle,airplane,180,0094_ps_s01_180_airplane_10_n02690373_4375.png
subject-01,1,95,0.777965068817139,bottle,bottle,60,0095_ps_s01_60_bottle_10_n04557648_4133.png
subject-01,1,96,1.31942486763,oven,bicycle,120,0096_ps_s01_120_bicycle_10_n02835271_19213.png
subject-01,1,97,1.21919989585876,boat,bear,150,0097_ps_s01_150_bear_10_n02132136_10577.png
subject-01,1,98,1.23307085037231,boat,airplane,90,0098_ps_s01_90_airplane_10_n02690373_3147.png
subject-01,1,99,0.930963039398193,elephant,elephant,60,0099_ps_s01_60_elephant_10_n02504013_10389.png
subject-01,1,100,1.38879919052124,bird,chair,150,0100_ps_s01_150_chair_10_n02791124_5685.png
subject-01,1,101,0.8646559715271,bird,bird,60,0101_ps_s01_60_bird_10_n01817953_6333.png
subject-01,1,102,0.804494142532349,keyboard,keyboard,90,0102_ps_s01_90_keyboard_10_n03085013_20247.png
subject-01,1,103,0.734287023544312,airplane,airplane,0,0103_ps_s01_0_airplane_10_n02690373_5729.png
subject-01,1,104,0.924086093902588,bicycle,bicycle,90,0104_ps_s01_90_bicycle_10_n03792782_55532.png
subject-01,1,105,0.81795597076416,bicycle,bicycle,0,0105_ps_s01_0_bicycle_10_n02835271_8417.png
subject-01,1,106,1.03159809112549,clock,clock,60,0106_ps_s01_60_clock_10_n03196217_599.png
subject-01,1,107,0.783360004425049,airplane,airplane,0,0107_ps_s01_0_airplane_10_n02690373_1952.png
subject-01,1,108,1.22916984558105,cat,bear,180,0108_ps_s01_180_bear_10_n02134084_23061.png
subject-01,1,109,1.18491291999817,oven,bicycle,150,0109_ps_s01_150_bicycle_10_n03792782_27445.png
subject-01,1,110,1.10487389564514,bird,clock,30,0110_ps_s01_30_clock_10_n03196217_6348.png
subject-01,1,111,0.942621946334839,bear,bear,90,0111_ps_s01_90_bear_10_n02132136_5778.png
subject-01,1,112,1.05661106109619,boat,boat,90,0112_ps_s01_90_boat_10_n04273569_4772.png
subject-01,1,113,1.20037198066711,oven,oven,180,0113_ps_s01_180_oven_10_n04111531_23830.png
subject-01,1,114,1.18820786476135,bird,bird,150,0114_ps_s01_150_bird_10_n01855032_1306.png
subject-01,1,115,1.08828902244568,bird,elephant,60,0115_ps_s01_60_elephant_10_n02504013_8905.png
subject-01,1,116,1.23772883415222,car,truck,60,0116_ps_s01_60_truck_10_n04467665_30461.png
subject-01,1,117,1.00570511817932,knife,knife,60,0117_ps_s01_60_knife_10_n03041632_20662.png
subject-01,1,118,1.20547008514404,airplane,boat,180,0118_ps_s01_180_boat_10_n03662601_15915.png
subject-01,1,119,1.1930410861969,bear,boat,150,0119_ps_s01_150_boat_10_n04273569_62.png
subject-01,1,120,1.34901809692383,chair,bicycle,180,0120_ps_s01_180_bicycle_10_n03792782_8080.png
subject-01,1,121,0.850942134857178,airplane,airplane,120,0121_ps_s01_120_airplane_10_n02690373_10309.png
subject-01,1,122,0.900538921356201,dog,dog,30,0122_ps_s01_30_dog_10_n02093859_1001.png
subject-01,1,123,0.718426942825317,oven,oven,0,0123_ps_s01_0_oven_10_n04111531_15267.png
subject-01,1,124,0.712266206741333,cat,cat,90,0124_ps_s01_90_cat_10_n02124075_81.png
subject-01,1,125,1.50011610984802,cat,elephant,60,0125_ps_s01_60_elephant_10_n02504013_7314.png
subject-01,1,126,1.3601188659668,boat,bottle,120,0126_ps_s01_120_bottle_10_n03983396_3294.png
subject-01,1,127,0.75969386100769,cat,cat,60,0127_ps_s01_60_cat_10_n02123159_3201.png
subject-01,1,128,0.997580051422119,dog,dog,90,0128_ps_s01_90_dog_10_n02101388_11601.png
subject-01,1,129,0.721458911895752,cat,cat,30,0129_ps_s01_30_cat_10_n02123597_4442.png
subject-01,1,130,0.841176986694336,airplane,airplane,30,0130_ps_s01_30_airplane_10_n02690373_1950.png
subject-01,1,131,0.99483585357666,bear,bird,120,0131_ps_s01_120_bird_10_n01616318_4652.png
subject-01,1,132,0.717113018035889,airplane,airplane,90,0132_ps_s01_90_airplane_10_n02690373_17937.png
subject-01,1,133,NaN,na,clock,30,0133_ps_s01_30_clock_10_n02708093_1125.png
subject-01,1,134,1.01048302650452,bird,elephant,150,0134_ps_s01_150_elephant_10_n02504458_6499.png
subject-01,1,135,0.692122936248779,clock,clock,30,0135_ps_s01_30_clock_10_n02708093_51.png
subject-01,1,136,0.785907983779907,bicycle,bicycle,90,0136_ps_s01_90_bicycle_10_n02835271_13180.png
subject-01,1,137,0.951688051223755,oven,cat,120,0137_ps_s01_120_cat_10_n02123597_7297.png
subject-01,1,138,0.789697885513306,clock,clock,30,0138_ps_s01_30_clock_10_n04548280_1109.png
subject-01,1,139,0.777395963668823,clock,clock,60,0139_ps_s01_60_clock_10_n04548280_1304.png
subject-01,1,140,1.18104791641235,bird,bird,180,0140_ps_s01_180_bird_10_n01833805_8179.png
subject-01,1,141,0.839201927185059,bottle,bottle,60,0141_ps_s01_60_bottle_10_n03983396_24525.png
subject-01,1,142,1.50004291534424,bear,elephant,120,0142_ps_s01_120_elephant_10_n02504013_5945.png
subject-01,1,143,0.938683986663818,airplane,airplane,120,0143_ps_s01_120_airplane_10_n02690373_13610.png
subject-01,1,144,1.35045409202576,bird,knife,90,0144_ps_s01_90_knife_10_n03041632_21859.png
subject-01,1,145,0.58024787902832,cat,cat,60,0145_ps_s01_60_cat_10_n02123045_568.png
subject-01,1,146,1.30224108695984,clock,clock,180,0146_ps_s01_180_clock_10_n02708093_960.png
subject-01,1,147,1.01620602607727,bicycle,bicycle,120,0147_ps_s01_120_bicycle_10_n02835271_9669.png
subject-01,1,148,0.611658096313477,cat,cat,60,0148_ps_s01_60_cat_10_n02123597_14647.png
subject-01,1,149,0.637477874755859,bicycle,bicycle,0,0149_ps_s01_0_bicycle_10_n02835271_7794.png
subject-01,1,150,1.08734488487244,bird,bird,0,0150_ps_s01_0_bird_10_n02011460_5925.png
subject-01,1,151,1.40115690231323,boat,oven,90,0151_ps_s01_90_oven_10_n04111531_8852.png
subject-01,1,152,0.708836078643799,cat,knife,90,0152_ps_s01_90_knife_10_n03041632_84086.png
subject-01,1,153,0.702684879302979,car,car,60,0153_ps_s01_60_car_10_n03100240_13602.png
subject-01,1,154,1.22286415100098,cat,dog,180,0154_ps_s01_180_dog_10_n02106662_43958.png
subject-01,1,155,1.12049293518066,chair,chair,30,0155_ps_s01_30_chair_10_n02791124_1292.png
subject-01,1,156,1.1321849822998,cat,dog,90,0156_ps_s01_90_dog_10_n02085782_4522.png
subject-01,1,157,NaN,na,bear,60,0157_ps_s01_60_bear_10_n02132136_686.png
subject-01,1,158,0.931761026382446,bird,bird,120,0158_ps_s01_120_bird_10_n01796340_12914.png
subject-01,1,159,0.815820932388306,knife,knife,60,0159_ps_s01_60_knife_10_n03041632_24060.png
subject-01,1,160,0.691447019577026,cat,bottle,180,0160_ps_s01_180_bottle_10_n03983396_4775.png
subject-01,1,161,0.760524988174438,boat,keyboard,120,0161_ps_s01_120_keyboard_10_n04505470_1516.png
subject-01,1,162,1.08440518379211,car,boat,150,0162_ps_s01_150_boat_10_n03344393_4944.png
subject-01,1,163,1.11833214759827,cat,cat,150,0163_ps_s01_150_cat_10_n02123159_3524.png
subject-01,1,164,1.27992296218872,car,truck,60,0164_ps_s01_60_truck_10_n04467665_50648.png
subject-01,1,165,0.898045063018799,dog,dog,0,0165_ps_s01_0_dog_10_n02107574_1277.png
subject-01,1,166,0.729780912399292,oven,oven,60,0166_ps_s01_60_oven_10_n04111531_21980.png
subject-01,1,167,0.81569504737854,boat,boat,120,0167_ps_s01_120_boat_10_n03344393_11315.png
subject-01,1,168,0.927165031433105,knife,knife,90,0168_ps_s01_90_knife_10_n03041632_32896.png
subject-01,1,169,1.12738394737244,boat,bottle,30,0169_ps_s01_30_bottle_10_n03937543_3133.png
subject-01,1,170,1.05876588821411,car,car,180,0170_ps_s01_180_car_10_n04285008_15213.png
subject-01,1,171,0.862689018249512,elephant,elephant,90,0171_ps_s01_90_elephant_10_n02504013_3081.png
subject-01,1,172,0.670594215393066,cat,cat,60,0172_ps_s01_60_cat_10_n02123159_6873.png
subject-01,1,173,0.734524011611938,bottle,bottle,60,0173_ps_s01_60_bottle_10_n04579145_4385.png
subject-01,1,174,0.850633144378662,bear,bear,60,0174_ps_s01_60_bear_10_n02134418_2185.png
subject-01,1,175,0.895969867706299,cat,chair,150,0175_ps_s01_150_chair_10_n04429376_16002.png
subject-01,1,176,0.905799865722656,car,car,60,0176_ps_s01_60_car_10_n03100240_8107.png
subject-01,1,177,0.703647136688232,boat,boat,60,0177_ps_s01_60_boat_10_n04273569_15906.png
subject-01,1,178,0.699312925338745,boat,car,150,0178_ps_s01_150_car_10_n02814533_85659.png
subject-01,1,179,1.34312605857849,truck,car,150,0179_ps_s01_150_car_10_n02814533_87140.png
subject-01,1,180,0.718957901000977,keyboard,keyboard,30,0180_ps_s01_30_keyboard_10_n03085013_7520.png
subject-01,1,181,0.863029956817627,dog,dog,90,0181_ps_s01_90_dog_10_n02112018_10082.png
subject-01,1,182,1.13849711418152,bear,bear,90,0182_ps_s01_90_bear_10_n02134084_5733.png
subject-01,1,183,0.656612157821655,cat,cat,90,0183_ps_s01_90_cat_10_n02123597_3821.png
subject-01,1,184,0.972275018692017,boat,boat,120,0184_ps_s01_120_boat_10_n04612504_15256.png
subject-01,1,185,0.8020179271698,car,car,90,0185_ps_s01_90_car_10_n02814533_84296.png
subject-01,1,186,0.757849931716919,cat,clock,120,0186_ps_s01_120_clock_10_n04548280_5295.png
subject-01,1,187,0.745798110961914,airplane,airplane,30,0187_ps_s01_30_airplane_10_n02690373_11799.png
subject-01,1,188,0.967604160308838,bear,dog,120,0188_ps_s01_120_dog_10_n02092002_9876.png
subject-01,1,189,0.837805986404419,chair,chair,0,0189_ps_s01_0_chair_10_n02791124_16885.png
subject-01,1,190,0.799118995666504,airplane,airplane,60,0190_ps_s01_60_airplane_10_n02690373_9376.png
subject-01,1,191,1.29503798484802,truck,oven,180,0191_ps_s01_180_oven_10_n04111531_6474.png
subject-01,1,192,1.49280595779419,clock,knife,180,0192_ps_s01_180_knife_10_n03041632_44230.png
subject-01,1,193,1.26853322982788,keyboard,dog,180,0193_ps_s01_180_dog_10_n02099601_6318.png
subject-01,1,194,1.14649701118469,knife,cat,150,0194_ps_s01_150_cat_10_n02125311_20241.png
subject-01,1,195,1.0782310962677,oven,truck,120,0195_ps_s01_120_truck_10_n04467665_51397.png
subject-01,1,196,1.15212106704712,dog,dog,0,0196_ps_s01_0_dog_10_n02104365_1500.png
subject-01,1,197,1.50013589859009,knife,knife,90,0197_ps_s01_90_knife_10_n03041632_3171.png
subject-01,1,198,0.953566074371338,oven,oven,60,0198_ps_s01_60_oven_10_n04111531_249.png
subject-01,1,199,1.26941204071045,cat,bear,90,0199_ps_s01_90_bear_10_n02133161_8856.png
subject-01,1,200,1.24518609046936,cat,cat,0,0200_ps_s01_0_cat_10_n02123045_13354.png
subject-01,1,201,0.971040010452271,keyboard,keyboard,120,0201_ps_s01_120_keyboard_10_n03085013_23267.png
subject-01,1,202,0.810755968093872,truck,truck,30,0202_ps_s01_30_truck_10_n03796401_22643.png
subject-01,1,203,1.28869009017944,bear,elephant,180,0203_ps_s01_180_elephant_10_n02504458_4572.png
subject-01,1,204,1.4327130317688,car,truck,180,0204_ps_s01_180_truck_10_n04467665_23173.png
subject-01,1,205,1.26242399215698,bird,bear,180,0205_ps_s01_180_bear_10_n02134418_25040.png
subject-01,1,206,0.928300142288208,bicycle,bicycle,60,0206_ps_s01_60_bicycle_10_n02835271_21185.png
subject-01,1,207,1.41789507865906,chair,boat,30,0207_ps_s01_30_boat_10_n02951358_12664.png
subject-01,1,208,0.78790807723999,bottle,bottle,30,0208_ps_s01_30_bottle_10_n03983396_11519.png
subject-01,1,209,1.50009489059448,bicycle,knife,120,0209_ps_s01_120_knife_10_n03041632_36280.png
subject-01,1,210,1.22574210166931,car,truck,60,0210_ps_s01_60_truck_10_n04467665_67115.png
subject-01,1,211,1.13334989547729,bear,bear,30,0211_ps_s01_30_bear_10_n02133161_1560.png
subject-01,1,212,1.12115597724915,car,truck,180,0212_ps_s01_180_truck_10_n03417042_6780.png
subject-01,1,213,0.982764959335327,bird,bear,150,0213_ps_s01_150_bear_10_n02134084_20261.png
subject-01,1,214,1.27453899383545,knife,chair,180,0214_ps_s01_180_chair_10_n03376595_8377.png
subject-01,1,215,1.50006008148193,boat,bird,180,0215_ps_s01_180_bird_10_n01824575_3556.png
subject-01,1,216,0.974071979522705,chair,chair,90,0216_ps_s01_90_chair_10_n04099969_36004.png
subject-01,1,217,0.890033006668091,bicycle,bicycle,0,0217_ps_s01_0_bicycle_10_n02835271_22549.png
subject-01,1,218,1.22194409370422,oven,clock,150,0218_ps_s01_150_clock_10_n04548280_8535.png
subject-01,1,219,1.12165594100952,bear,knife,120,0219_ps_s01_120_knife_10_n03041632_14546.png
subject-01,1,220,0.771675825119019,keyboard,keyboard,0,0220_ps_s01_0_keyboard_10_n04505470_4974.png
subject-01,1,221,0.719363927841187,clock,clock,0,0221_ps_s01_0_clock_10_n04548280_487.png
subject-01,1,222,0.871206998825073,truck,truck,30,0222_ps_s01_30_truck_10_n03417042_10401.png
subject-01,1,223,0.928945064544678,keyboard,clock,180,0223_ps_s01_180_clock_10_n03196217_6257.png
subject-01,1,224,1.50011992454529,bicycle,elephant,120,0224_ps_s01_120_elephant_10_n02504458_1698.png
subject-01,1,225,1.17055606842041,boat,keyboard,180,0225_ps_s01_180_keyboard_10_n03085013_23014.png
subject-01,1,226,0.686361789703369,cat,cat,60,0226_ps_s01_60_cat_10_n02125311_17002.png
subject-01,1,227,1.28428101539612,airplane,boat,180,0227_ps_s01_180_boat_10_n03344393_5566.png
subject-01,1,228,1.17644906044006,clock,bicycle,150,0228_ps_s01_150_bicycle_10_n02835271_4887.png
subject-01,1,229,0.905933141708374,keyboard,keyboard,120,0229_ps_s01_120_keyboard_10_n04505470_8386.png
subject-01,1,230,1.0200879573822,bear,bear,120,0230_ps_s01_120_bear_10_n02133161_361.png
subject-01,1,231,0.787501096725464,bottle,bottle,0,0231_ps_s01_0_bottle_10_n04560804_2165.png
subject-01,1,232,1.16540098190308,keyboard,cat,150,0232_ps_s01_150_cat_10_n02124075_14020.png
subject-01,1,233,1.03524708747864,keyboard,clock,150,0233_ps_s01_150_clock_10_n04548280_3301.png
subject-01,1,234,1.16879510879517,boat,knife,180,0234_ps_s01_180_knife_10_n03041632_5820.png
subject-01,1,235,0.984844923019409,chair,oven,120,0235_ps_s01_120_oven_10_n04111531_2922.png
subject-01,1,236,1.10471796989441,bear,bear,120,0236_ps_s01_120_bear_10_n02134084_7441.png
subject-01,1,237,1.27248096466064,car,airplane,150,0237_ps_s01_150_airplane_10_n02690373_8252.png
subject-01,1,238,1.28244185447693,cat,bird,150,0238_ps_s01_150_bird_10_n02018207_69.png
subject-01,1,239,1.00211501121521,bird,bird,30,0239_ps_s01_30_bird_10_n01798484_5355.png
subject-01,1,240,1.33385992050171,clock,keyboard,150,0240_ps_s01_150_keyboard_10_n03085013_4999.png
subject-01,1,241,0.938465118408203,elephant,dog,120,0241_ps_s01_120_dog_10_n02111500_3041.png
subject-01,1,242,0.580103874206543,boat,boat,0,0242_ps_s01_0_boat_10_n04612504_15237.png
subject-01,1,243,0.873918056488037,keyboard,truck,150,0243_ps_s01_150_truck_10_n03417042_6480.png
subject-01,1,244,0.736096143722534,boat,airplane,180,0244_ps_s01_180_airplane_10_n02690373_8382.png
subject-01,1,245,1.04763317108154,oven,bottle,120,0245_ps_s01_120_bottle_10_n04591713_2345.png
subject-01,1,246,0.847694873809814,elephant,elephant,60,0246_ps_s01_60_elephant_10_n02504458_9516.png
subject-01,1,247,0.797229051589966,boat,elephant,180,0247_ps_s01_180_elephant_10_n02504013_698.png
subject-01,1,248,0.895051002502441,bear,bear,0,0248_ps_s01_0_bear_10_n02133161_5292.png
subject-01,1,249,0.768784046173096,boat,boat,90,0249_ps_s01_90_boat_10_n02951358_14341.png
subject-01,1,250,1.50016498565674,bird,bear,120,0250_ps_s01_120_bear_10_n02133161_2304.png
subject-01,1,251,0.842641115188599,cat,airplane,150,0251_ps_s01_150_airplane_10_n02690373_1751.png
subject-01,1,252,1.41835403442383,airplane,truck,150,0252_ps_s01_150_truck_10_n04467665_48953.png
subject-01,1,253,0.720108985900879,oven,oven,0,0253_ps_s01_0_oven_10_n04111531_10077.png
subject-01,1,254,1.09376406669617,boat,dog,150,0254_ps_s01_150_dog_10_n02097209_821.png
subject-01,1,255,1.03372192382812,truck,truck,0,0255_ps_s01_0_truck_10_n04467665_13231.png
subject-01,1,256,1.07343697547913,boat,dog,90,0256_ps_s01_90_dog_10_n02107908_3447.png
subject-01,1,257,1.2233099937439,car,elephant,180,0257_ps_s01_180_elephant_10_n02504013_5021.png
subject-01,1,258,1.15937495231628,keyboard,knife,90,0258_ps_s01_90_knife_10_n03041632_12242.png
subject-01,1,259,1.07883286476135,clock,keyboard,150,0259_ps_s01_150_keyboard_10_n03085013_22821.png
subject-01,1,260,1.15666794776917,bear,cat,150,0260_ps_s01_150_cat_10_n02124075_2080.png
subject-01,1,261,1.16652202606201,cat,bicycle,180,0261_ps_s01_180_bicycle_10_n02835271_7296.png
subject-01,1,262,1.03876900672913,oven,boat,180,0262_ps_s01_180_boat_10_n04612504_4302.png
subject-01,1,263,1.31017994880676,bear,clock,150,0263_ps_s01_150_clock_10_n04548280_4524.png
subject-01,1,264,1.39416193962097,bicycle,knife,150,0264_ps_s01_150_knife_10_n03041632_19275.png
subject-01,1,265,0.84574818611145,bird,bird,30,0265_ps_s01_30_bird_10_n01796340_2973.png
subject-01,1,266,1.17954802513123,chair,chair,90,0266_ps_s01_90_chair_10_n02791124_15407.png
subject-01,1,267,0.94756007194519,dog,dog,30,0267_ps_s01_30_dog_10_n02109525_72594.png
subject-01,1,268,1.33721899986267,oven,knife,150,0268_ps_s01_150_knife_10_n03041632_19614.png
subject-01,1,269,0.825077056884766,keyboard,keyboard,30,0269_ps_s01_30_keyboard_10_n04505470_5111.png
subject-01,1,270,0.782862901687622,bicycle,bicycle,30,0270_ps_s01_30_bicycle_10_n03792782_8374.png
subject-01,1,271,1.02453589439392,clock,boat,120,0271_ps_s01_120_boat_10_n04612504_2024.png
subject-01,1,272,0.780586957931519,bicycle,bicycle,30,0272_ps_s01_30_bicycle_10_n02835271_9860.png
subject-01,1,273,0.898299932479858,bear,bear,60,0273_ps_s01_60_bear_10_n02134084_21921.png
subject-01,1,274,1.17206883430481,bear,bear,90,0274_ps_s01_90_bear_10_n02134418_836.png
subject-01,1,275,1.27222514152527,oven,chair,60,0275_ps_s01_60_chair_10_n04429376_6141.png
subject-01,1,276,0.877709865570068,truck,truck,30,0276_ps_s01_30_truck_10_n04467665_6523.png
subject-01,1,277,1.17352700233459,clock,chair,90,0277_ps_s01_90_chair_10_n04429376_41755.png
subject-01,1,278,0.857282161712646,boat,bottle,180,0278_ps_s01_180_bottle_10_n04579145_3302.png
subject-01,1,279,0.683132886886597,cat,cat,0,0279_ps_s01_0_cat_10_n02123045_12297.png
subject-01,1,280,0.704828023910522,clock,clock,60,0280_ps_s01_60_clock_10_n04548280_5734.png
subject-01,1,281,1.22482991218567,truck,elephant,90,0281_ps_s01_90_elephant_10_n02504013_3640.png
subject-01,1,282,1.12475800514221,car,car,0,0282_ps_s01_0_car_10_n03100240_2108.png
subject-01,1,283,0.950407028198242,car,car,90,0283_ps_s01_90_car_10_n02814533_8499.png
subject-01,1,284,1.04020404815674,keyboard,knife,180,0284_ps_s01_180_knife_10_n03041632_9406.png
subject-01,1,285,0.818168163299561,keyboard,clock,120,0285_ps_s01_120_clock_10_n04548280_3968.png
subject-01,1,286,0.830042123794556,boat,boat,120,0286_ps_s01_120_boat_10_n04273569_20587.png
subject-01,1,287,1.06180691719055,clock,truck,150,0287_ps_s01_150_truck_10_n03796401_7261.png
subject-01,1,288,1.39741992950439,car,boat,90,0288_ps_s01_90_boat_10_n04273569_18037.png
subject-01,1,289,1.01919913291931,cat,bicycle,180,0289_ps_s01_180_bicycle_10_n02835271_4789.png
subject-01,1,290,0.896985054016113,chair,chair,90,0290_ps_s01_90_chair_10_n04099969_18380.png
subject-01,1,291,1.37286400794983,boat,dog,120,0291_ps_s01_120_dog_10_n02100583_13688.png
subject-01,1,292,1.266597032547,clock,boat,180,0292_ps_s01_180_boat_10_n03662601_8065.png
subject-01,1,293,0.636492013931274,boat,boat,0,0293_ps_s01_0_boat_10_n02951358_15218.png
subject-01,1,294,1.22839784622192,bird,knife,180,0294_ps_s01_180_knife_10_n03041632_24277.png
subject-01,1,295,1.18003702163696,bird,bird,90,0295_ps_s01_90_bird_10_n01601694_2723.png
subject-01,1,296,0.943989992141724,keyboard,keyboard,120,0296_ps_s01_120_keyboard_10_n04505470_4724.png
subject-01,1,297,1.22984981536865,cat,bear,150,0297_ps_s01_150_bear_10_n02134418_1642.png
subject-01,1,298,0.991628170013428,truck,truck,60,0298_ps_s01_60_truck_10_n03417042_13055.png
subject-01,1,299,1.06954979896545,oven,bear,120,0299_ps_s01_120_bear_10_n02133161_1629.png
subject-01,1,300,1.00357699394226,boat,bottle,180,0300_ps_s01_180_bottle_10_n04579145_1856.png
subject-01,1,301,1.43102312088013,bear,chair,150,0301_ps_s01_150_chair_10_n04099969_3768.png
subject-01,1,302,1.37487292289734,knife,bird,120,0302_ps_s01_120_bird_10_n02009229_5172.png
subject-01,1,303,1.06912302970886,airplane,airplane,90,0303_ps_s01_90_airplane_10_n02690373_21731.png
subject-01,1,304,0.940586090087891,bear,bear,30,0304_ps_s01_30_bear_10_n02133161_959.png
subject-01,1,305,0.798155069351196,chair,chair,0,0305_ps_s01_0_chair_10_n04099969_1028.png
subject-01,1,306,1.47241187095642,airplane,knife,180,0306_ps_s01_180_knife_10_n03041632_44212.png
subject-01,1,307,1.10377597808838,car,oven,120,0307_ps_s01_120_oven_10_n04111531_9344.png
subject-01,1,308,1.22564697265625,cat,car,180,0308_ps_s01_180_car_10_n04285008_9080.png
subject-01,1,309,0.883398056030273,car,car,60,0309_ps_s01_60_car_10_n03100240_17349.png
subject-01,1,310,0.859426021575928,dog,dog,30,0310_ps_s01_30_dog_10_n02110958_1335.png
subject-01,1,311,NaN,na,elephant,150,0311_ps_s01_150_elephant_10_n02504013_7305.png
subject-01,1,312,1.02685284614563,dog,dog,90,0312_ps_s01_90_dog_10_n02091244_2626.png
subject-01,1,313,1.32280802726746,keyboard,bird,150,0313_ps_s01_150_bird_10_n01828970_22.png
subject-01,1,314,0.710721015930176,cat,cat,60,0314_ps_s01_60_cat_10_n02124075_13587.png
subject-01,1,315,0.964820146560669,bird,knife,120,0315_ps_s01_120_knife_10_n03041632_13612.png
subject-01,1,316,1.30239582061768,oven,bicycle,90,0316_ps_s01_90_bicycle_10_n02835271_2581.png
subject-01,1,317,0.734112024307251,clock,clock,30,0317_ps_s01_30_clock_10_n03196217_2536.png
subject-01,1,318,0.637991905212402,cat,cat,90,0318_ps_s01_90_cat_10_n02124075_15001.png
subject-01,1,319,0.831740140914917,bear,bear,60,0319_ps_s01_60_bear_10_n02133161_6152.png
subject-01,1,320,0.771750926971436,chair,chair,30,0320_ps_s01_30_chair_10_n04099969_8401.png
subject-01,1,321,0.90020489692688,keyboard,oven,150,0321_ps_s01_150_oven_10_n04111531_7923.png
subject-01,1,322,1.07793498039246,cat,cat,120,0322_ps_s01_120_cat_10_n02123159_5706.png
subject-01,1,323,0.823806047439575,airplane,airplane,30,0323_ps_s01_30_airplane_10_n02690373_13324.png
subject-01,1,324,0.899571180343628,bear,airplane,150,0324_ps_s01_150_airplane_10_n02690373_4452.png
subject-01,1,325,1.1055850982666,boat,bird,90,0325_ps_s01_90_bird_10_n02056570_10881.png
subject-01,1,326,0.775253057479858,airplane,airplane,90,0326_ps_s01_90_airplane_10_n02690373_19133.png
subject-01,1,327,0.809059143066406,bottle,bottle,0,0327_ps_s01_0_bottle_10_n03937543_4850.png
subject-01,1,328,0.923280954360962,keyboard,keyboard,150,0328_ps_s01_150_keyboard_10_n04505470_2709.png
subject-01,1,329,0.880595922470093,keyboard,keyboard,90,0329_ps_s01_90_keyboard_10_n03085013_1797.png
subject-01,1,330,1.47253918647766,cat,oven,30,0330_ps_s01_30_oven_10_n04111531_3902.png
subject-01,1,331,0.900456190109253,keyboard,car,180,0331_ps_s01_180_car_10_n03100240_6750.png
subject-01,1,332,0.756260871887207,chair,chair,0,0332_ps_s01_0_chair_10_n03376595_16306.png
subject-01,1,333,0.880123853683472,boat,boat,60,0333_ps_s01_60_boat_10_n02951358_13017.png
subject-01,1,334,0.999751091003418,car,clock,90,0334_ps_s01_90_clock_10_n03196217_5827.png
subject-01,1,335,1.10753607749939,bottle,bottle,0,0335_ps_s01_0_bottle_10_n02823428_685.png
subject-01,1,336,1.11168885231018,car,airplane,120,0336_ps_s01_120_airplane_10_n02690373_2092.png
subject-01,1,337,1.10119080543518,bear,bottle,180,0337_ps_s01_180_bottle_10_n04557648_3637.png
subject-01,1,338,1.0252149105072,bird,bird,90,0338_ps_s01_90_bird_10_n01819313_5521.png
subject-01,1,339,0.788794040679932,cat,dog,90,0339_ps_s01_90_dog_10_n02100583_24297.png
subject-01,1,340,NaN,na,bird,60,0340_ps_s01_60_bird_10_n02018207_12233.png
subject-01,1,341,1.14049506187439,bear,bird,180,0341_ps_s01_180_bird_10_n02013706_3032.png
subject-01,1,342,0.762248039245605,oven,oven,60,0342_ps_s01_60_oven_10_n04111531_9939.png
subject-01,1,343,1.12447595596313,airplane,bird,180,0343_ps_s01_180_bird_10_n02011460_7629.png
subject-01,1,344,1.28391194343567,knife,oven,60,0344_ps_s01_60_oven_10_n04111531_13542.png
subject-01,1,345,0.933828115463257,bear,bear,90,0345_ps_s01_90_bear_10_n02134418_270.png
subject-01,1,346,1.01739096641541,bear,bicycle,90,0346_ps_s01_90_bicycle_10_n03792782_12561.png
subject-01,1,347,1.16935014724731,elephant,elephant,120,0347_ps_s01_120_elephant_10_n02504458_9213.png
subject-01,1,348,0.899178981781006,chair,chair,90,0348_ps_s01_90_chair_10_n03376595_4155.png
subject-01,1,349,1.21910214424133,car,truck,120,0349_ps_s01_120_truck_10_n04467665_69970.png
subject-01,1,350,1.1467809677124,cat,bird,120,0350_ps_s01_120_bird_10_n02002556_2350.png
subject-01,1,351,0.816527128219604,bear,bear,0,0351_ps_s01_0_bear_10_n02133161_355.png
subject-01,1,352,0.932294130325317,airplane,airplane,90,0352_ps_s01_90_airplane_10_n02690373_3065.png
subject-01,1,353,0.898036003112793,truck,truck,60,0353_ps_s01_60_truck_10_n03417042_13289.png
subject-01,1,354,0.82594108581543,oven,oven,0,0354_ps_s01_0_oven_10_n04111531_21404.png
subject-01,1,355,1.08367705345154,cat,bear,90,0355_ps_s01_90_bear_10_n02132136_8358.png
subject-01,1,356,1.01544904708862,oven,oven,90,0356_ps_s01_90_oven_10_n04111531_274.png
subject-01,1,357,1.02154493331909,chair,chair,120,0357_ps_s01_120_chair_10_n02791124_2773.png
subject-01,1,358,1.12152099609375,bear,knife,120,0358_ps_s01_120_knife_10_n03041632_102828.png
subject-01,1,359,0.857162952423096,car,boat,150,0359_ps_s01_150_boat_10_n02951358_30995.png
subject-01,1,360,1.30889582633972,keyboard,bicycle,150,0360_ps_s01_150_bicycle_10_n03792782_4544.png
subject-01,1,361,1.05665397644043,airplane,airplane,120,0361_ps_s01_120_airplane_10_n02690373_8446.png
subject-01,1,362,0.870406866073608,bottle,bottle,30,0362_ps_s01_30_bottle_10_n04557648_900.png
subject-01,1,363,1.3861231803894,boat,airplane,150,0363_ps_s01_150_airplane_10_n02690373_3407.png
subject-01,1,364,1.05609488487244,clock,bottle,120,0364_ps_s01_120_bottle_10_n03983396_8143.png
subject-01,1,365,0.743633985519409,car,car,0,0365_ps_s01_0_car_10_n03100240_9610.png
subject-01,1,366,1.13358092308044,bird,cat,120,0366_ps_s01_120_cat_10_n02123159_1108.png
subject-01,1,367,0.725785970687866,clock,clock,0,0367_ps_s01_0_clock_10_n04548280_2170.png
subject-01,1,368,0.891248941421509,keyboard,keyboard,120,0368_ps_s01_120_keyboard_10_n04505470_4385.png
subject-01,1,369,0.913516998291016,airplane,airplane,120,0369_ps_s01_120_airplane_10_n02690373_18383.png
subject-01,1,370,0.905050992965698,truck,truck,90,0370_ps_s01_90_truck_10_n03417042_10243.png
subject-01,1,371,0.775125980377197,cat,cat,30,0371_ps_s01_30_cat_10_n02123045_11826.png
subject-01,1,372,0.804795980453491,bird,bird,0,0372_ps_s01_0_bird_10_n01817953_2257.png
subject-01,1,373,0.626375913619995,boat,boat,0,0373_ps_s01_0_boat_10_n04612504_18442.png
subject-01,1,374,0.962208032608032,keyboard,airplane,180,0374_ps_s01_180_airplane_10_n02690373_2874.png
subject-01,1,375,1.0839569568634,bicycle,bicycle,0,0375_ps_s01_0_bicycle_10_n02835271_4963.png
subject-01,1,376,1.27782917022705,boat,boat,180,0376_ps_s01_180_boat_10_n04273569_568.png
subject-01,1,377,0.979721069335938,elephant,elephant,90,0377_ps_s01_90_elephant_10_n02504013_2233.png
subject-01,1,378,1.34938097000122,knife,bottle,60,0378_ps_s01_60_bottle_10_n02823428_889.png
subject-01,1,379,0.887217998504639,car,car,90,0379_ps_s01_90_car_10_n04285008_3096.png
subject-01,1,380,0.967196226119995,boat,airplane,120,0380_ps_s01_120_airplane_10_n02690373_13206.png
subject-01,1,381,1.1689178943634,keyboard,keyboard,90,0381_ps_s01_90_keyboard_10_n03085013_25443.png
subject-01,1,382,0.916550874710083,truck,truck,30,0382_ps_s01_30_truck_10_n04467665_20622.png
subject-01,1,383,0.856685161590576,bicycle,bicycle,60,0383_ps_s01_60_bicycle_10_n02835271_24639.png
subject-01,1,384,1.16058802604675,knife,knife,30,0384_ps_s01_30_knife_10_n03041632_25603.png
subject-01,1,385,0.758245944976807,boat,boat,60,0385_ps_s01_60_boat_10_n04273569_4978.png
subject-01,1,386,0.869914054870605,car,car,60,0386_ps_s01_60_car_10_n02814533_46401.png
subject-01,1,387,1.10986280441284,bird,bird,120,0387_ps_s01_120_bird_10_n01798484_12863.png
subject-01,1,388,0.763463973999023,boat,boat,120,0388_ps_s01_120_boat_10_n03662601_7885.png
subject-01,1,389,0.831268072128296,chair,chair,0,0389_ps_s01_0_chair_10_n03376595_3062.png
subject-01,1,390,0.939213991165161,airplane,airplane,90,0390_ps_s01_90_airplane_10_n02690373_19118.png
subject-01,1,391,1.41500902175903,bicycle,cat,180,0391_ps_s01_180_cat_10_n02123597_3944.png
subject-01,1,392,1.35681486129761,car,keyboard,150,0392_ps_s01_150_keyboard_10_n04505470_2113.png
subject-01,1,393,0.798483848571777,bird,bird,30,0393_ps_s01_30_bird_10_n02056570_4808.png
subject-01,1,394,1.14845204353333,bicycle,bear,180,0394_ps_s01_180_bear_10_n02133161_2316.png
subject-01,1,395,0.960301876068115,dog,dog,0,0395_ps_s01_0_dog_10_n02106662_15515.png
subject-01,1,396,0.882235050201416,airplane,airplane,0,0396_ps_s01_0_airplane_10_n02690373_3899.png
subject-01,1,397,0.949896097183228,boat,boat,0,0397_ps_s01_0_boat_10_n04273569_2449.png
subject-01,1,398,1.19370889663696,elephant,bird,120,0398_ps_s01_120_bird_10_n02007558_7614.png
subject-01,1,399,0.863351106643677,keyboard,keyboard,90,0399_ps_s01_90_keyboard_10_n03085013_4914.png
subject-01,1,400,1.02936697006226,oven,oven,150,0400_ps_s01_150_oven_10_n04111531_15296.png
subject-01,1,401,0.956722021102905,chair,chair,60,0401_ps_s01_60_chair_10_n04099969_246.png
subject-01,1,402,1.11661386489868,car,truck,180,0402_ps_s01_180_truck_10_n04467665_670.png
subject-01,1,403,0.710296869277954,keyboard,keyboard,90,0403_ps_s01_90_keyboard_10_n03085013_24192.png
subject-01,1,404,0.952225923538208,elephant,bicycle,150,0404_ps_s01_150_bicycle_10_n03792782_378.png
subject-01,1,405,1.07205200195312,bear,bird,180,0405_ps_s01_180_bird_10_n02018207_14738.png
subject-01,1,406,1.03595995903015,bird,bird,0,0406_ps_s01_0_bird_10_n01530575_5222.png
subject-01,1,407,0.957658052444458,bear,bear,30,0407_ps_s01_30_bear_10_n02134084_10766.png
subject-01,1,408,0.845545053482056,bird,bird,30,0408_ps_s01_30_bird_10_n02007558_4009.png
subject-01,1,409,1.06338405609131,cat,chair,120,0409_ps_s01_120_chair_10_n04099969_7545.png
subject-01,1,410,1.27303814888,cat,clock,90,0410_ps_s01_90_clock_10_n03196217_127.png
subject-01,1,411,1.16080188751221,oven,bottle,150,0411_ps_s01_150_bottle_10_n04560804_26326.png
subject-01,1,412,1.16274785995483,keyboard,keyboard,30,0412_ps_s01_30_keyboard_10_n03085013_25066.png
subject-01,1,413,0.930569887161255,cat,cat,30,0413_ps_s01_30_cat_10_n02124075_11776.png
subject-01,1,414,0.780416965484619,keyboard,keyboard,120,0414_ps_s01_120_keyboard_10_n04505470_2909.png
subject-01,1,415,0.97834587097168,keyboard,keyboard,30,0415_ps_s01_30_keyboard_10_n04505470_494.png
subject-01,1,416,1.48623704910278,airplane,bear,120,0416_ps_s01_120_bear_10_n02133161_2270.png
subject-01,1,417,0.941797018051147,chair,chair,120,0417_ps_s01_120_chair_10_n04099969_13901.png
subject-01,1,418,0.995936155319214,car,car,120,0418_ps_s01_120_car_10_n02814533_2923.png
subject-01,1,419,0.93150806427002,bottle,bottle,90,0419_ps_s01_90_bottle_10_n03983396_12757.png
subject-01,1,420,0.897170066833496,knife,knife,30,0420_ps_s01_30_knife_10_n03041632_15444.png
subject-01,1,421,1.49498200416565,bicycle,bicycle,180,0421_ps_s01_180_bicycle_10_n02835271_5554.png
subject-01,1,422,1.16093993186951,boat,knife,150,0422_ps_s01_150_knife_10_n03041632_37618.png
subject-01,1,423,0.792898178100586,clock,chair,60,0423_ps_s01_60_chair_10_n03376595_3910.png
subject-01,1,424,0.950713157653809,dog,dog,30,0424_ps_s01_30_dog_10_n02086646_7362.png
subject-01,1,425,1.08222007751465,dog,dog,60,0425_ps_s01_60_dog_10_n02113712_5829.png
subject-01,1,426,0.8681321144104,bird,truck,180,0426_ps_s01_180_truck_10_n03417042_1149.png
subject-01,1,427,0.976016998291016,bird,bird,60,0427_ps_s01_60_bird_10_n02002724_3345.png
subject-01,1,428,1.09172201156616,cat,bird,150,0428_ps_s01_150_bird_10_n02002556_2917.png
subject-01,1,429,1.38735413551331,bicycle,bottle,180,0429_ps_s01_180_bottle_10_n04560804_3959.png
subject-01,1,430,0.91956901550293,airplane,airplane,30,0430_ps_s01_30_airplane_10_n02690373_3639.png
subject-01,1,431,0.885219812393188,chair,bottle,120,0431_ps_s01_120_bottle_10_n02823428_14453.png
subject-01,1,432,0.725257158279419,bottle,bottle,0,0432_ps_s01_0_bottle_10_n03937543_3253.png
subject-01,1,433,1.26311302185059,chair,elephant,30,0433_ps_s01_30_elephant_10_n02504013_7010.png
subject-01,1,434,0.806918859481812,car,car,150,0434_ps_s01_150_car_10_n04285008_8813.png
subject-01,1,435,0.930606842041016,car,bear,180,0435_ps_s01_180_bear_10_n02132136_110.png
subject-01,1,436,1.08425688743591,cat,bear,60,0436_ps_s01_60_bear_10_n02133161_4294.png
subject-01,1,437,0.79229211807251,car,car,0,0437_ps_s01_0_car_10_n02814533_95144.png
subject-01,1,438,1.07189798355103,truck,oven,120,0438_ps_s01_120_oven_10_n04111531_1220.png
subject-01,1,439,0.947789907455444,cat,dog,60,0439_ps_s01_60_dog_10_n02086240_7247.png
subject-01,1,440,0.797581195831299,airplane,airplane,0,0440_ps_s01_0_airplane_10_n02690373_4144.png
subject-01,1,441,0.875257968902588,oven,oven,120,0441_ps_s01_120_oven_10_n04111531_986.png
subject-01,1,442,1.05301308631897,bird,elephant,30,0442_ps_s01_30_elephant_10_n02504458_6336.png
subject-01,1,443,0.968939065933228,cat,knife,150,0443_ps_s01_150_knife_10_n03041632_14132.png
subject-01,1,444,0.972759008407593,bear,cat,150,0444_ps_s01_150_cat_10_n02123159_799.png
subject-01,1,445,0.972689867019653,bird,bird,90,0445_ps_s01_90_bird_10_n02006656_7456.png
subject-01,1,446,0.740413188934326,cat,cat,90,0446_ps_s01_90_cat_10_n02123045_8722.png
subject-01,1,447,0.996210098266602,keyboard,chair,120,0447_ps_s01_120_chair_10_n03376595_8302.png
subject-01,1,448,0.868120908737183,bottle,bottle,30,0448_ps_s01_30_bottle_10_n04560804_5769.png
subject-01,1,449,0.965650081634521,car,car,90,0449_ps_s01_90_car_10_n04285008_203.png
subject-01,1,450,1.25965094566345,keyboard,airplane,180,0450_ps_s01_180_airplane_10_n02690373_9959.png
subject-01,1,451,0.859783172607422,car,car,0,0451_ps_s01_0_car_10_n04285008_1867.png
subject-01,1,452,1.2011399269104,boat,airplane,150,0452_ps_s01_150_airplane_10_n02690373_16250.png
subject-01,1,453,0.968992948532104,elephant,elephant,30,0453_ps_s01_30_elephant_10_n02504458_4696.png
subject-01,1,454,0.873247861862183,car,car,60,0454_ps_s01_60_car_10_n04285008_10755.png
subject-01,1,455,0.946626901626587,boat,boat,150,0455_ps_s01_150_boat_10_n02951358_11586.png
subject-01,1,456,0.810587167739868,bottle,bottle,60,0456_ps_s01_60_bottle_10_n02823428_4108.png
subject-01,1,457,0.886377096176147,keyboard,car,180,0457_ps_s01_180_car_10_n04285008_11770.png
subject-01,1,458,0.593981981277466,boat,boat,90,0458_ps_s01_90_boat_10_n04273569_32786.png
subject-01,1,459,1.09825897216797,bear,bear,30,0459_ps_s01_30_bear_10_n02132136_21267.png
subject-01,1,460,1.07977294921875,car,car,90,0460_ps_s01_90_car_10_n03100240_24001.png
subject-01,1,461,0.831811904907227,cat,bottle,150,0461_ps_s01_150_bottle_10_n03937543_71.png
subject-01,1,462,1.13529205322266,clock,chair,0,0462_ps_s01_0_chair_10_n02791124_16127.png
subject-01,1,463,0.835604906082153,car,bird,90,0463_ps_s01_90_bird_10_n02002724_12183.png
subject-01,1,464,0.999067068099976,dog,dog,30,0464_ps_s01_30_dog_10_n02108915_1165.png
subject-01,1,465,0.894912958145142,car,dog,180,0465_ps_s01_180_dog_10_n02099429_4843.png
subject-01,1,466,0.728866100311279,boat,boat,60,0466_ps_s01_60_boat_10_n03344393_3499.png
subject-01,1,467,0.93051815032959,car,truck,120,0467_ps_s01_120_truck_10_n03417042_20962.png
subject-01,1,468,1.04207587242126,dog,dog,30,0468_ps_s01_30_dog_10_n02097047_4189.png
subject-01,1,469,0.913910865783691,bicycle,bicycle,60,0469_ps_s01_60_bicycle_10_n03792782_24591.png
subject-01,1,470,0.889708042144775,airplane,airplane,60,0470_ps_s01_60_airplane_10_n02690373_243.png
subject-01,1,471,0.761668920516968,boat,boat,90,0471_ps_s01_90_boat_10_n03344393_3072.png
subject-01,1,472,0.717350959777832,clock,clock,120,0472_ps_s01_120_clock_10_n02708093_118.png
subject-01,1,473,0.915786981582642,bird,bird,30,0473_ps_s01_30_bird_10_n01843065_2664.png
subject-01,1,474,1.0632631778717,car,airplane,150,0474_ps_s01_150_airplane_10_n02690373_19353.png
subject-01,1,475,1.103196144104,bear,dog,120,0475_ps_s01_120_dog_10_n02099849_4250.png
subject-01,1,476,0.950993061065674,truck,truck,90,0476_ps_s01_90_truck_10_n04467665_29260.png
subject-01,1,477,0.996793031692505,elephant,elephant,30,0477_ps_s01_30_elephant_10_n02504013_8308.png
subject-01,1,478,1.16247606277466,boat,boat,150,0478_ps_s01_150_boat_10_n03344393_6854.png
subject-01,1,479,0.966195821762085,truck,truck,180,0479_ps_s01_180_truck_10_n04467665_25129.png
subject-01,1,480,0.860080003738403,bird,bird,30,0480_ps_s01_30_bird_10_n01824575_6272.png
subject-01,1,481,0.946923017501831,elephant,chair,180,0481_ps_s01_180_chair_10_n04099969_19484.png
subject-01,1,482,0.834837913513184,car,oven,120,0482_ps_s01_120_oven_10_n04111531_5888.png
subject-01,1,483,0.840514898300171,chair,chair,60,0483_ps_s01_60_chair_10_n04099969_16266.png
subject-01,1,484,0.812360048294067,truck,truck,150,0484_ps_s01_150_truck_10_n04467665_68754.png
subject-01,1,485,0.870181083679199,boat,cat,180,0485_ps_s01_180_cat_10_n02123394_7859.png
subject-01,1,486,0.794189929962158,car,car,90,0486_ps_s01_90_car_10_n04285008_17056.png
subject-01,1,487,1.35591411590576,cat,cat,120,0487_ps_s01_120_cat_10_n02123045_12046.png
subject-01,1,488,1.04982709884644,boat,elephant,180,0488_ps_s01_180_elephant_10_n02504013_3029.png
subject-01,1,489,NaN,na,boat,120,0489_ps_s01_120_boat_10_n03662601_7271.png
subject-01,1,490,0.821609020233154,elephant,bear,30,0490_ps_s01_30_bear_10_n02133161_6861.png
subject-01,1,491,0.943171977996826,oven,chair,30,0491_ps_s01_30_chair_10_n02791124_4192.png
subject-01,1,492,0.678805828094482,boat,boat,60,0492_ps_s01_60_boat_10_n04273569_1457.png
subject-01,1,493,0.552562952041626,clock,clock,90,0493_ps_s01_90_clock_10_n04548280_764.png
subject-01,1,494,0.726372003555298,bicycle,bicycle,120,0494_ps_s01_120_bicycle_10_n02835271_12346.png
subject-01,1,495,1.41629815101624,boat,bicycle,180,0495_ps_s01_180_bicycle_10_n03792782_50673.png
subject-01,1,496,0.812555074691772,car,truck,120,0496_ps_s01_120_truck_10_n03796401_9198.png
subject-01,1,497,0.801990985870361,airplane,airplane,0,0497_ps_s01_0_airplane_10_n02690373_4110.png
subject-01,1,498,0.787822961807251,dog,dog,60,0498_ps_s01_60_dog_10_n02107683_2484.png
subject-01,1,499,0.981549024581909,car,chair,60,0499_ps_s01_60_chair_10_n02791124_13057.png
subject-01,1,500,1.28115606307983,boat,bear,120,0500_ps_s01_120_bear_10_n02134418_14451.png
subject-01,1,501,0.845173835754395,bird,bird,60,0501_ps_s01_60_bird_10_n01843383_10059.png
subject-01,1,502,0.79734992980957,bicycle,bicycle,0,0502_ps_s01_0_bicycle_10_n03792782_11824.png
subject-01,1,503,1.19065499305725,bird,bird,30,0503_ps_s01_30_bird_10_n01532829_2492.png
subject-01,1,504,1.36457514762878,bottle,bottle,0,0504_ps_s01_0_bottle_10_n04579145_5621.png
subject-01,1,505,0.914237976074219,bird,truck,150,0505_ps_s01_150_truck_10_n03417042_6250.png
subject-01,1,506,0.908357858657837,dog,dog,90,0506_ps_s01_90_dog_10_n02108551_14704.png
subject-01,1,507,0.65205192565918,boat,boat,30,0507_ps_s01_30_boat_10_n04612504_8407.png
subject-01,1,508,0.775722026824951,keyboard,car,120,0508_ps_s01_120_car_10_n03100240_14794.png
subject-01,1,509,0.945660829544067,car,dog,60,0509_ps_s01_60_dog_10_n02097658_759.png
subject-01,1,510,0.785531044006348,boat,oven,90,0510_ps_s01_90_oven_10_n04111531_5965.png
subject-01,1,511,0.749582052230835,cat,elephant,180,0511_ps_s01_180_elephant_10_n02504013_6984.png
subject-01,1,512,1.50000691413879,clock,oven,180,0512_ps_s01_180_oven_10_n04111531_6695.png
subject-01,1,513,0.996944904327393,bird,bird,60,0513_ps_s01_60_bird_10_n02037110_4572.png
subject-01,1,514,1.05282282829285,truck,truck,30,0514_ps_s01_30_truck_10_n03796401_11628.png
subject-01,1,515,1.50003600120544,bird,chair,180,0515_ps_s01_180_chair_10_n02791124_1258.png
subject-01,1,516,0.956422805786133,knife,knife,0,0516_ps_s01_0_knife_10_n03041632_62810.png
subject-01,1,517,1.0360951423645,bicycle,bird,90,0517_ps_s01_90_bird_10_n01819313_2770.png
subject-01,1,518,0.828311920166016,bicycle,bicycle,60,0518_ps_s01_60_bicycle_10_n02835271_25519.png
subject-01,1,519,0.736198902130127,boat,boat,0,0519_ps_s01_0_boat_10_n03662601_23248.png
subject-01,1,520,1.03155303001404,bear,elephant,120,0520_ps_s01_120_elephant_10_n02504013_1784.png
subject-01,1,521,0.815410137176514,cat,cat,150,0521_ps_s01_150_cat_10_n02123394_270.png
subject-01,1,522,1.00133419036865,dog,dog,30,0522_ps_s01_30_dog_10_n02093647_1022.png
subject-01,1,523,0.755032062530518,boat,boat,30,0523_ps_s01_30_boat_10_n03662601_4881.png
subject-01,1,524,1.12896203994751,knife,knife,60,0524_ps_s01_60_knife_10_n03041632_8321.png
subject-01,1,525,0.844856977462769,car,car,120,0525_ps_s01_120_car_10_n02814533_60400.png
subject-01,1,526,1.3285608291626,bird,cat,150,0526_ps_s01_150_cat_10_n02123597_3280.png
subject-01,1,527,1.05627107620239,bird,dog,150,0527_ps_s01_150_dog_10_n02110063_3399.png
subject-01,1,528,0.84605598449707,dog,bear,0,0528_ps_s01_0_bear_10_n02132136_3109.png
subject-01,1,529,0.985885143280029,bear,bear,0,0529_ps_s01_0_bear_10_n02134084_16632.png
subject-01,1,530,0.871686935424805,keyboard,bottle,150,0530_ps_s01_150_bottle_10_n04591713_5851.png
subject-01,1,531,0.783586978912354,knife,knife,0,0531_ps_s01_0_knife_10_n03041632_29961.png
subject-01,1,532,1.02167701721191,knife,knife,30,0532_ps_s01_30_knife_10_n03041632_10140.png
subject-01,1,533,1.06735992431641,dog,airplane,180,0533_ps_s01_180_airplane_10_n02690373_8765.png
subject-01,1,534,0.924824953079224,bear,knife,120,0534_ps_s01_120_knife_10_n03041632_16826.png
subject-01,1,535,0.808605909347534,chair,chair,30,0535_ps_s01_30_chair_10_n04429376_21089.png
subject-01,1,536,0.93255090713501,bear,bear,60,0536_ps_s01_60_bear_10_n02134084_15118.png
subject-01,1,537,0.868230819702148,car,car,120,0537_ps_s01_120_car_10_n04285008_3884.png
subject-01,1,538,0.850200891494751,bear,boat,150,0538_ps_s01_150_boat_10_n04273569_1576.png
subject-01,1,539,0.838114023208618,bicycle,bicycle,120,0539_ps_s01_120_bicycle_10_n03792782_4600.png
subject-01,1,540,0.795757055282593,clock,clock,30,0540_ps_s01_30_clock_10_n03196217_4537.png
subject-01,1,541,0.853662014007568,airplane,airplane,60,0541_ps_s01_60_airplane_10_n02690373_10203.png
subject-01,1,542,0.835579872131348,truck,truck,30,0542_ps_s01_30_truck_10_n04467665_48875.png
subject-01,1,543,0.983250141143799,car,car,60,0543_ps_s01_60_car_10_n02814533_38071.png
subject-01,1,544,0.88699197769165,bird,bear,90,0544_ps_s01_90_bear_10_n02133161_160.png
subject-01,1,545,0.889034032821655,car,car,30,0545_ps_s01_30_car_10_n02814533_40344.png
subject-01,1,546,1.2246561050415,bird,oven,180,0546_ps_s01_180_oven_10_n04111531_9026.png
subject-01,1,547,0.744426012039185,cat,cat,0,0547_ps_s01_0_cat_10_n02123597_13755.png
subject-01,1,548,0.826220989227295,car,car,150,0548_ps_s01_150_car_10_n02814533_39485.png
subject-01,1,549,0.814107894897461,bottle,bottle,90,0549_ps_s01_90_bottle_10_n03937543_4512.png
subject-01,1,550,0.768113136291504,cat,cat,120,0550_ps_s01_120_cat_10_n02124075_2402.png
subject-01,1,551,1.04378986358643,bird,bird,0,0551_ps_s01_0_bird_10_n02056570_9835.png
subject-01,1,552,0.641552925109863,clock,clock,120,0552_ps_s01_120_clock_10_n04548280_13247.png
subject-01,1,553,0.997689962387085,truck,truck,60,0553_ps_s01_60_truck_10_n03417042_173.png
subject-01,1,554,1.21317291259766,cat,airplane,180,0554_ps_s01_180_airplane_10_n02690373_1592.png
subject-01,1,555,0.907192945480347,elephant,elephant,0,0555_ps_s01_0_elephant_10_n02504013_1953.png
subject-01,1,556,0.909054040908813,cat,elephant,150,0556_ps_s01_150_elephant_10_n02504458_4348.png
subject-01,1,557,1.07283902168274,airplane,airplane,90,0557_ps_s01_90_airplane_10_n02690373_1854.png
subject-01,1,558,1.15650510787964,elephant,cat,180,0558_ps_s01_180_cat_10_n02124075_14363.png
subject-01,1,559,0.840134859085083,bottle,bottle,30,0559_ps_s01_30_bottle_10_n03983396_3377.png
subject-01,1,560,0.787867069244385,clock,clock,90,0560_ps_s01_90_clock_10_n04548280_6743.png
subject-01,1,561,0.70871901512146,clock,clock,30,0561_ps_s01_30_clock_10_n03196217_8034.png
subject-01,1,562,1.01848697662354,bird,dog,150,0562_ps_s01_150_dog_10_n02088094_13992.png
subject-01,1,563,0.91233491897583,car,car,30,0563_ps_s01_30_car_10_n03100240_6216.png
subject-01,1,564,0.808161973953247,cat,oven,30,0564_ps_s01_30_oven_10_n04111531_2831.png
subject-01,1,565,0.743962049484253,knife,knife,0,0565_ps_s01_0_knife_10_n03041632_927.png
subject-01,1,566,0.804091930389404,bottle,knife,150,0566_ps_s01_150_knife_10_n03041632_5427.png
subject-01,1,567,1.28564691543579,boat,cat,180,0567_ps_s01_180_cat_10_n02123045_8690.png
subject-01,1,568,0.819522857666016,clock,clock,90,0568_ps_s01_90_clock_10_n02708093_6696.png
subject-01,1,569,0.967374086380005,airplane,airplane,60,0569_ps_s01_60_airplane_10_n02690373_7748.png
subject-01,1,570,0.887026071548462,airplane,airplane,0,0570_ps_s01_0_airplane_10_n02690373_20011.png
subject-01,1,571,0.866842985153198,boat,boat,150,0571_ps_s01_150_boat_10_n02951358_16728.png
subject-01,1,572,1.0845320224762,car,truck,60,0572_ps_s01_60_truck_10_n04467665_37833.png
subject-01,1,573,1.11252593994141,clock,oven,0,0573_ps_s01_0_oven_10_n04111531_22886.png
subject-01,1,574,0.852530956268311,car,car,30,0574_ps_s01_30_car_10_n04285008_5959.png
subject-01,1,575,1.06615900993347,knife,boat,120,0575_ps_s01_120_boat_10_n04273569_10840.png
subject-01,1,576,1.12385606765747,clock,clock,180,0576_ps_s01_180_clock_10_n02708093_1352.png
subject-01,1,577,1.099613904953,oven,oven,120,0577_ps_s01_120_oven_10_n04111531_1004.png
subject-01,1,578,1.119460105896,car,car,180,0578_ps_s01_180_car_10_n03100240_4619.png
subject-01,1,579,1.39121103286743,cat,oven,180,0579_ps_s01_180_oven_10_n04111531_15367.png
subject-01,1,580,1.24913501739502,chair,oven,30,0580_ps_s01_30_oven_10_n04111531_6903.png
subject-01,1,581,0.969064950942993,clock,oven,60,0581_ps_s01_60_oven_10_n04111531_1662.png
subject-01,1,582,1.0768301486969,keyboard,keyboard,0,0582_ps_s01_0_keyboard_10_n04505470_1342.png
subject-01,1,583,1.25451683998108,boat,boat,60,0583_ps_s01_60_boat_10_n02951358_1911.png
subject-01,1,584,1.07622814178467,bicycle,bicycle,30,0584_ps_s01_30_bicycle_10_n03792782_42927.png
subject-01,1,585,1.50002312660217,clock,chair,180,0585_ps_s01_180_chair_10_n02791124_3994.png
subject-01,1,586,0.900115013122559,dog,dog,0,0586_ps_s01_0_dog_10_n02101388_1383.png
subject-01,1,587,1.4058690071106,bear,bear,30,0587_ps_s01_30_bear_10_n02132136_9367.png
subject-01,1,588,1.00971794128418,cat,dog,150,0588_ps_s01_150_dog_10_n02108915_7875.png
subject-01,1,589,1.09388494491577,chair,chair,60,0589_ps_s01_60_chair_10_n02791124_6237.png
subject-01,1,590,1.11536502838135,cat,bird,60,0590_ps_s01_60_bird_10_n01622779_13896.png
subject-01,1,591,0.993025064468384,boat,boat,30,0591_ps_s01_30_boat_10_n04273569_15583.png
subject-01,1,592,0.982815027236938,bottle,bottle,0,0592_ps_s01_0_bottle_10_n03937543_3079.png
subject-01,1,593,1.11469006538391,car,dog,150,0593_ps_s01_150_dog_10_n02110063_5687.png
subject-01,1,594,0.956508874893188,truck,truck,30,0594_ps_s01_30_truck_10_n03417042_6685.png
subject-01,1,595,0.710580110549927,clock,clock,0,0595_ps_s01_0_clock_10_n02708093_340.png
subject-01,1,596,1.00627899169922,dog,dog,0,0596_ps_s01_0_dog_10_n02111129_5463.png
subject-01,1,597,0.691915988922119,bicycle,bicycle,90,0597_ps_s01_90_bicycle_10_n03792782_17503.png
subject-01,1,598,0.963850975036621,bear,bear,60,0598_ps_s01_60_bear_10_n02134084_9253.png
subject-01,1,599,0.957659959793091,car,car,30,0599_ps_s01_30_car_10_n04285008_3688.png
subject-01,1,600,1.33549189567566,bird,bird,150,0600_ps_s01_150_bird_10_n01795545_17324.png
subject-01,1,601,0.719504117965698,boat,boat,30,0601_ps_s01_30_boat_10_n04273569_16064.png
subject-01,1,602,0.969082117080688,elephant,elephant,180,0602_ps_s01_180_elephant_10_n02504458_4395.png
subject-01,1,603,0.926866054534912,oven,oven,30,0603_ps_s01_30_oven_10_n04111531_21855.png
subject-01,1,604,0.956451892852783,oven,oven,30,0604_ps_s01_30_oven_10_n04111531_11225.png
subject-01,1,605,1.19662117958069,bird,oven,150,0605_ps_s01_150_oven_10_n04111531_13486.png
subject-01,1,606,0.866251945495605,chair,chair,0,0606_ps_s01_0_chair_10_n02791124_1693.png
subject-01,1,607,1.10611605644226,chair,chair,150,0607_ps_s01_150_chair_10_n04099969_26462.png
subject-01,1,608,0.993827819824219,truck,chair,120,0608_ps_s01_120_chair_10_n04429376_16869.png
subject-01,1,609,0.999804019927979,clock,bottle,0,0609_ps_s01_0_bottle_10_n03983396_23471.png
subject-01,1,610,0.877660036087036,bear,bear,0,0610_ps_s01_0_bear_10_n02134084_5314.png
subject-01,1,611,1.04739022254944,oven,elephant,180,0611_ps_s01_180_elephant_10_n02504458_4564.png
subject-01,1,612,0.757259130477905,bear,bear,0,0612_ps_s01_0_bear_10_n02132136_6967.png
subject-01,1,613,0.751035928726196,cat,cat,0,0613_ps_s01_0_cat_10_n02123394_6517.png
subject-01,1,614,1.50007700920105,car,keyboard,150,0614_ps_s01_150_keyboard_10_n04505470_1076.png
subject-01,1,615,0.916653871536255,cat,knife,180,0615_ps_s01_180_knife_10_n03041632_5916.png
subject-01,1,616,0.92638897895813,car,car,90,0616_ps_s01_90_car_10_n03100240_4674.png
subject-01,1,617,1.50001192092896,cat,bottle,90,0617_ps_s01_90_bottle_10_n02823428_1602.png
subject-01,1,618,0.782025098800659,boat,boat,90,0618_ps_s01_90_boat_10_n04273569_27343.png
subject-01,1,619,1.07018113136292,cat,bottle,120,0619_ps_s01_120_bottle_10_n04560804_15162.png
subject-01,1,620,0.861806869506836,bottle,bottle,120,0620_ps_s01_120_bottle_10_n03937543_24.png
subject-01,1,621,1.03972601890564,elephant,dog,180,0621_ps_s01_180_dog_10_n02105162_9615.png
subject-01,1,622,1.1472589969635,cat,bird,150,0622_ps_s01_150_bird_10_n01582220_1150.png
subject-01,1,623,1.31310486793518,boat,clock,180,0623_ps_s01_180_clock_10_n04548280_4560.png
subject-01,1,624,1.31272888183594,cat,bottle,150,0624_ps_s01_150_bottle_10_n04560804_14605.png
subject-01,1,625,0.760588884353638,chair,chair,0,0625_ps_s01_0_chair_10_n03376595_262.png
subject-01,1,626,1.27462577819824,bear,dog,180,0626_ps_s01_180_dog_10_n02091032_6523.png
subject-01,1,627,0.882228851318359,cat,cat,150,0627_ps_s01_150_cat_10_n02123159_615.png
subject-01,1,628,1.03821492195129,oven,bottle,180,0628_ps_s01_180_bottle_10_n04579145_6049.png
subject-01,1,629,0.985782861709595,keyboard,bottle,90,0629_ps_s01_90_bottle_10_n02823428_4386.png
subject-01,1,630,1.14375495910645,cat,car,150,0630_ps_s01_150_car_10_n03100240_4594.png
subject-01,1,631,0.985554933547974,knife,knife,120,0631_ps_s01_120_knife_10_n03041632_51581.png
subject-01,1,632,1.01972985267639,keyboard,keyboard,60,0632_ps_s01_60_keyboard_10_n03085013_15836.png
subject-01,1,633,1.02512693405151,boat,bicycle,180,0633_ps_s01_180_bicycle_10_n03792782_34197.png
subject-01,1,634,1.28912901878357,boat,bicycle,180,0634_ps_s01_180_bicycle_10_n02835271_9314.png
subject-01,1,635,1.50009393692017,car,oven,150,0635_ps_s01_150_oven_10_n04111531_5643.png
subject-01,1,636,1.09863615036011,truck,cat,180,0636_ps_s01_180_cat_10_n02123394_6362.png
subject-01,1,637,0.922433137893677,elephant,elephant,60,0637_ps_s01_60_elephant_10_n02504458_3614.png
subject-01,1,638,0.824321985244751,oven,chair,180,0638_ps_s01_180_chair_10_n04099969_6691.png
subject-01,1,639,1.09611105918884,clock,dog,60,0639_ps_s01_60_dog_10_n02104365_1262.png
subject-01,1,640,1.14975905418396,truck,chair,180,0640_ps_s01_180_chair_10_n02791124_2611.png
subject-01,1,641,0.727508068084717,bird,bird,90,0641_ps_s01_90_bird_10_n02027492_211.png
subject-01,1,642,1.1272919178009,oven,keyboard,180,0642_ps_s01_180_keyboard_10_n03085013_15576.png
subject-01,1,643,0.691064119338989,cat,cat,30,0643_ps_s01_30_cat_10_n02123045_7255.png
subject-01,1,644,0.770756006240845,chair,chair,60,0644_ps_s01_60_chair_10_n04099969_16382.png
subject-01,1,645,0.922998189926147,bear,bear,0,0645_ps_s01_0_bear_10_n02134418_2324.png
subject-01,1,646,1.05464601516724,bird,dog,150,0646_ps_s01_150_dog_10_n02096585_271.png
subject-01,1,647,1.12431287765503,bird,oven,150,0647_ps_s01_150_oven_10_n04111531_4900.png
subject-01,1,648,1.20028185844421,oven,clock,150,0648_ps_s01_150_clock_10_n04548280_23221.png
subject-01,1,649,0.91637110710144,car,car,60,0649_ps_s01_60_car_10_n03100240_7753.png
subject-01,1,650,1.23198318481445,cat,bear,180,0650_ps_s01_180_bear_10_n02134084_1503.png
subject-01,1,651,0.859616994857788,keyboard,keyboard,90,0651_ps_s01_90_keyboard_10_n04505470_986.png
subject-01,1,652,0.942890882492065,boat,truck,180,0652_ps_s01_180_truck_10_n04467665_23758.png
subject-01,1,653,1.0672459602356,bicycle,chair,120,0653_ps_s01_120_chair_10_n03376595_4362.png
subject-01,1,654,1.02728486061096,keyboard,oven,180,0654_ps_s01_180_oven_10_n04111531_6958.png
subject-01,1,655,0.898829936981201,keyboard,keyboard,30,0655_ps_s01_30_keyboard_10_n03085013_6166.png
subject-01,1,656,1.00710105895996,cat,bicycle,120,0656_ps_s01_120_bicycle_10_n03792782_20475.png
subject-01,1,657,1.22246694564819,bird,cat,180,0657_ps_s01_180_cat_10_n02123394_2350.png
subject-01,1,658,0.916245937347412,elephant,elephant,0,0658_ps_s01_0_elephant_10_n02504458_4316.png
subject-01,1,659,0.618114948272705,clock,clock,30,0659_ps_s01_30_clock_10_n04548280_4390.png
subject-01,1,660,0.767845153808594,car,car,60,0660_ps_s01_60_car_10_n03100240_17421.png
subject-01,1,661,0.845730066299438,bottle,keyboard,60,0661_ps_s01_60_keyboard_10_n03085013_30073.png
subject-01,1,662,1.30557179450989,bicycle,knife,90,0662_ps_s01_90_knife_10_n03041632_89391.png
subject-01,1,663,1.02135896682739,chair,dog,90,0663_ps_s01_90_dog_10_n02100877_2341.png
subject-01,1,664,1.29716515541077,boat,boat,180,0664_ps_s01_180_boat_10_n03344393_7114.png
subject-01,1,665,0.888996839523315,oven,knife,0,0665_ps_s01_0_knife_10_n03041632_22051.png
subject-01,1,666,0.682694911956787,clock,clock,90,0666_ps_s01_90_clock_10_n02708093_6850.png
subject-01,1,667,0.936828136444092,bicycle,knife,60,0667_ps_s01_60_knife_10_n03041632_15299.png
subject-01,1,668,0.856476068496704,keyboard,keyboard,60,0668_ps_s01_60_keyboard_10_n03085013_21490.png
subject-01,1,669,1.01602983474731,knife,knife,60,0669_ps_s01_60_knife_10_n03041632_105081.png
subject-01,1,670,0.998197793960571,elephant,elephant,0,0670_ps_s01_0_elephant_10_n02504013_20805.png
subject-01,1,671,0.675794839859009,boat,boat,30,0671_ps_s01_30_boat_10_n02951358_10151.png
subject-01,1,672,0.861510992050171,boat,oven,90,0672_ps_s01_90_oven_10_n04111531_4944.png
subject-01,1,673,1.43132400512695,keyboard,bottle,180,0673_ps_s01_180_bottle_10_n04591713_644.png
subject-01,1,674,0.765188932418823,dog,dog,60,0674_ps_s01_60_dog_10_n02090721_1105.png
subject-01,1,675,0.799121856689453,keyboard,keyboard,60,0675_ps_s01_60_keyboard_10_n04505470_5880.png
subject-01,1,676,1.18086981773376,car,airplane,150,0676_ps_s01_150_airplane_10_n02690373_3589.png
subject-01,1,677,1.02672481536865,bird,bird,120,0677_ps_s01_120_bird_10_n01855672_3952.png
subject-01,1,678,0.844531059265137,truck,truck,60,0678_ps_s01_60_truck_10_n03796401_8037.png
subject-01,1,679,0.724289894104004,clock,clock,0,0679_ps_s01_0_clock_10_n03196217_5493.png
subject-01,1,680,1.01210808753967,knife,knife,30,0680_ps_s01_30_knife_10_n03041632_32208.png
subject-01,1,681,0.915854930877686,bicycle,bicycle,90,0681_ps_s01_90_bicycle_10_n03792782_5494.png
subject-01,1,682,1.16210985183716,truck,chair,180,0682_ps_s01_180_chair_10_n03376595_208.png
subject-01,1,683,1.08747792243958,car,bicycle,150,0683_ps_s01_150_bicycle_10_n02835271_3529.png
subject-01,1,684,1.48364996910095,bicycle,clock,180,0684_ps_s01_180_clock_10_n02708093_2482.png
subject-01,1,685,0.827012062072754,airplane,airplane,60,0685_ps_s01_60_airplane_10_n02690373_1706.png
subject-01,1,686,1.29114079475403,bear,knife,180,0686_ps_s01_180_knife_10_n03041632_2973.png
subject-01,1,687,0.802684783935547,oven,oven,90,0687_ps_s01_90_oven_10_n04111531_6346.png
subject-01,1,688,1.02070093154907,car,oven,180,0688_ps_s01_180_oven_10_n04111531_10336.png
subject-01,1,689,1.06452703475952,knife,elephant,120,0689_ps_s01_120_elephant_10_n02504013_25336.png
subject-01,1,690,1.09218597412109,car,oven,120,0690_ps_s01_120_oven_10_n04111531_4322.png
subject-01,1,691,0.912131071090698,truck,truck,0,0691_ps_s01_0_truck_10_n03417042_3482.png
subject-01,1,692,1.20602607727051,bear,bear,180,0692_ps_s01_180_bear_10_n02132136_5146.png
subject-01,1,693,0.865642786026001,bicycle,bicycle,90,0693_ps_s01_90_bicycle_10_n02835271_19853.png
subject-01,1,694,0.807426929473877,bicycle,bicycle,60,0694_ps_s01_60_bicycle_10_n03792782_1477.png
subject-01,1,695,0.899569988250732,knife,knife,90,0695_ps_s01_90_knife_10_n03041632_52371.png
subject-01,1,696,1.24907493591309,bicycle,bird,150,0696_ps_s01_150_bird_10_n02007558_7783.png
subject-01,1,697,0.71084189414978,boat,boat,90,0697_ps_s01_90_boat_10_n02951358_30773.png
subject-01,1,698,0.920872926712036,boat,keyboard,180,0698_ps_s01_180_keyboard_10_n03085013_4298.png
subject-01,1,699,1.00450801849365,car,airplane,150,0699_ps_s01_150_airplane_10_n02690373_13021.png
subject-01,1,700,0.90044093132019,keyboard,chair,90,0700_ps_s01_90_chair_10_n03376595_8490.png
subject-01,1,701,1.50010204315186,chair,chair,60,0701_ps_s01_60_chair_10_n02791124_5898.png
subject-01,1,702,0.606060981750488,clock,clock,90,0702_ps_s01_90_clock_10_n02708093_181.png
subject-01,1,703,0.721856117248535,airplane,airplane,30,0703_ps_s01_30_airplane_10_n02690373_190.png
subject-01,1,704,1.29172301292419,bottle,oven,180,0704_ps_s01_180_oven_10_n04111531_6756.png
subject-01,1,705,0.803329944610596,car,car,120,0705_ps_s01_120_car_10_n03100240_23906.png
subject-01,1,706,0.935139179229736,truck,truck,0,0706_ps_s01_0_truck_10_n03417042_16038.png
subject-01,1,707,0.891063928604126,elephant,elephant,30,0707_ps_s01_30_elephant_10_n02504458_6602.png
subject-01,1,708,0.792719125747681,truck,truck,0,0708_ps_s01_0_truck_10_n04467665_18234.png
subject-01,1,709,0.932503223419189,car,bottle,180,0709_ps_s01_180_bottle_10_n03937543_4259.png
subject-01,1,710,0.976437091827393,car,car,120,0710_ps_s01_120_car_10_n03100240_17523.png
subject-01,1,711,0.802273988723755,clock,clock,0,0711_ps_s01_0_clock_10_n02708093_1513.png
subject-01,1,712,1.4324049949646,oven,keyboard,180,0712_ps_s01_180_keyboard_10_n03085013_4553.png
subject-01,1,713,0.967893838882446,cat,oven,180,0713_ps_s01_180_oven_10_n04111531_8330.png
subject-01,1,714,1.06762003898621,bird,bird,90,0714_ps_s01_90_bird_10_n01530575_35115.png
subject-01,1,715,1.08167004585266,car,elephant,150,0715_ps_s01_150_elephant_10_n02504458_1600.png
subject-01,1,716,0.907404899597168,knife,knife,30,0716_ps_s01_30_knife_10_n03041632_3717.png
subject-01,1,717,0.993336915969849,car,truck,180,0717_ps_s01_180_truck_10_n04467665_39477.png
subject-01,1,718,1.14491200447083,car,bear,180,0718_ps_s01_180_bear_10_n02132136_20883.png
subject-01,1,719,1.17498803138733,bear,bear,150,0719_ps_s01_150_bear_10_n02133161_2340.png
subject-01,1,720,0.76287579536438,bear,bear,90,0720_ps_s01_90_bear_10_n02134084_4442.png
subject-01,1,721,1.50010180473328,clock,clock,150,0721_ps_s01_150_clock_10_n04548280_8314.png
subject-01,1,722,0.825625896453857,oven,oven,0,0722_ps_s01_0_oven_10_n04111531_13797.png
subject-01,1,723,0.853438138961792,car,car,30,0723_ps_s01_30_car_10_n04285008_13.png
subject-01,1,724,0.843401908874512,bear,bird,150,0724_ps_s01_150_bird_10_n02002724_5457.png
subject-01,1,725,0.789005041122437,airplane,airplane,0,0725_ps_s01_0_airplane_10_n02690373_1325.png
subject-01,1,726,0.755264043807983,knife,knife,0,0726_ps_s01_0_knife_10_n03041632_24561.png
subject-01,1,727,1.47675800323486,bird,chair,180,0727_ps_s01_180_chair_10_n03376595_2809.png
subject-01,1,728,0.974354982376099,bear,cat,90,0728_ps_s01_90_cat_10_n02125311_36331.png
subject-01,1,729,0.868361949920654,oven,oven,90,0729_ps_s01_90_oven_10_n04111531_7430.png
subject-01,1,730,0.914286136627197,bottle,bottle,30,0730_ps_s01_30_bottle_10_n04560804_8454.png
subject-01,1,731,0.894073963165283,bear,bear,150,0731_ps_s01_150_bear_10_n02132136_7067.png
subject-01,1,732,1.00768709182739,chair,knife,0,0732_ps_s01_0_knife_10_n03041632_33424.png
subject-01,1,733,0.957446098327637,keyboard,keyboard,30,0733_ps_s01_30_keyboard_10_n04505470_5171.png
subject-01,1,734,1.05546402931213,bear,oven,180,0734_ps_s01_180_oven_10_n04111531_14611.png
subject-01,1,735,0.967259883880615,bird,bird,180,0735_ps_s01_180_bird_10_n02028035_14461.png
subject-01,1,736,0.885058879852295,airplane,airplane,60,0736_ps_s01_60_airplane_10_n02690373_10232.png
subject-01,1,737,0.938906908035278,bear,knife,180,0737_ps_s01_180_knife_10_n03041632_18859.png
subject-01,1,738,0.90661096572876,cat,truck,150,0738_ps_s01_150_truck_10_n03417042_1279.png
subject-01,1,739,1.12830805778503,bird,airplane,180,0739_ps_s01_180_airplane_10_n02690373_4691.png
subject-01,1,740,1.22812795639038,bear,dog,120,0740_ps_s01_120_dog_10_n02111277_21922.png
subject-01,1,741,1.31207990646362,cat,dog,180,0741_ps_s01_180_dog_10_n02093991_2725.png
subject-01,1,742,1.42790699005127,clock,bottle,90,0742_ps_s01_90_bottle_10_n04557648_11847.png
subject-01,1,743,1.20403480529785,bottle,knife,180,0743_ps_s01_180_knife_10_n03041632_20697.png
subject-01,1,744,0.819894075393677,car,car,90,0744_ps_s01_90_car_10_n02814533_35102.png
subject-01,1,745,0.685333967208862,cat,cat,0,0745_ps_s01_0_cat_10_n02125311_19769.png
subject-01,1,746,0.831016063690186,keyboard,keyboard,60,0746_ps_s01_60_keyboard_10_n03085013_17795.png
subject-01,1,747,1.02486181259155,car,clock,150,0747_ps_s01_150_clock_10_n03196217_4019.png
subject-01,1,748,0.834796905517578,bear,bear,120,0748_ps_s01_120_bear_10_n02134418_2561.png
subject-01,1,749,1.29447889328003,boat,clock,150,0749_ps_s01_150_clock_10_n04548280_21545.png
subject-01,1,750,0.80440878868103,cat,elephant,150,0750_ps_s01_150_elephant_10_n02504458_952.png
subject-01,1,751,1.07610702514648,oven,clock,120,0751_ps_s01_120_clock_10_n02708093_1539.png
subject-01,1,752,1.27823495864868,cat,bird,90,0752_ps_s01_90_bird_10_n01820546_7575.png
subject-01,1,753,1.07396697998047,car,oven,0,0753_ps_s01_0_oven_10_n04111531_17576.png
subject-01,1,754,0.827579021453857,elephant,elephant,0,0754_ps_s01_0_elephant_10_n02504013_5217.png
subject-01,1,755,0.869451999664307,airplane,airplane,60,0755_ps_s01_60_airplane_10_n02690373_10399.png
subject-01,1,756,0.867215156555176,dog,dog,30,0756_ps_s01_30_dog_10_n02101388_5116.png
subject-01,1,757,1.39508509635925,keyboard,bottle,150,0757_ps_s01_150_bottle_10_n02823428_3711.png
subject-01,1,758,0.71697998046875,car,airplane,120,0758_ps_s01_120_airplane_10_n02690373_2648.png
subject-01,1,759,0.69879412651062,cat,cat,90,0759_ps_s01_90_cat_10_n02123597_13823.png
subject-01,1,760,0.900464773178101,cat,knife,180,0760_ps_s01_180_knife_10_n03041632_36814.png
subject-01,1,761,0.934344053268433,bottle,bottle,0,0761_ps_s01_0_bottle_10_n04560804_26318.png
subject-01,1,762,1.05014181137085,boat,boat,60,0762_ps_s01_60_boat_10_n03344393_1944.png
subject-01,1,763,1.41441011428833,bicycle,knife,120,0763_ps_s01_120_knife_10_n03041632_28129.png
subject-01,1,764,0.613778114318848,cat,cat,60,0764_ps_s01_60_cat_10_n02123045_7483.png
subject-01,1,765,1.50009393692017,keyboard,keyboard,0,0765_ps_s01_0_keyboard_10_n03085013_23192.png
subject-01,1,766,0.781265020370483,clock,clock,60,0766_ps_s01_60_clock_10_n04548280_7478.png
subject-01,1,767,1.24727487564087,cat,airplane,180,0767_ps_s01_180_airplane_10_n02690373_7536.png
subject-01,1,768,0.814917087554932,car,boat,180,0768_ps_s01_180_boat_10_n03662601_5223.png
subject-01,1,769,0.94293999671936,truck,truck,30,0769_ps_s01_30_truck_10_n04467665_7329.png
subject-01,1,770,0.832776069641113,bottle,bottle,0,0770_ps_s01_0_bottle_10_n03983396_15006.png
subject-01,1,771,1.37030386924744,oven,clock,180,0771_ps_s01_180_clock_10_n04548280_5527.png
subject-01,1,772,1.03629994392395,truck,oven,120,0772_ps_s01_120_oven_10_n04111531_924.png
subject-01,1,773,0.892459154129028,car,car,0,0773_ps_s01_0_car_10_n03100240_627.png
subject-01,1,774,0.868215084075928,bottle,bottle,0,0774_ps_s01_0_bottle_10_n02823428_2481.png
subject-01,1,775,0.869575023651123,cat,elephant,150,0775_ps_s01_150_elephant_10_n02504013_6659.png
subject-01,1,776,1.08753108978271,truck,truck,90,0776_ps_s01_90_truck_10_n03796401_27268.png
subject-01,1,777,1.09324407577515,bottle,elephant,150,0777_ps_s01_150_elephant_10_n02504013_6776.png
subject-01,1,778,0.895254135131836,car,car,180,0778_ps_s01_180_car_10_n02814533_66666.png
subject-01,1,779,0.814990997314453,bicycle,bicycle,90,0779_ps_s01_90_bicycle_10_n02835271_5821.png
subject-01,1,780,0.656720161437988,boat,boat,30,0780_ps_s01_30_boat_10_n02951358_16837.png
subject-01,1,781,0.874463081359863,bicycle,bicycle,30,0781_ps_s01_30_bicycle_10_n02835271_12188.png
subject-01,1,782,1.25272488594055,bicycle,bicycle,120,0782_ps_s01_120_bicycle_10_n02835271_9237.png
subject-01,1,783,0.686122894287109,bottle,bottle,60,0783_ps_s01_60_bottle_10_n04560804_13420.png
subject-01,1,784,1.02602195739746,truck,oven,150,0784_ps_s01_150_oven_10_n04111531_458.png
subject-01,1,785,1.1381151676178,clock,bottle,180,0785_ps_s01_180_bottle_10_n03983396_3408.png
subject-01,1,786,0.769650936126709,airplane,airplane,30,0786_ps_s01_30_airplane_10_n02690373_1928.png
subject-01,1,787,0.811442136764526,truck,truck,60,0787_ps_s01_60_truck_10_n03796401_1681.png
subject-01,1,788,0.987200021743774,car,clock,180,0788_ps_s01_180_clock_10_n02708093_2721.png
subject-01,1,789,1.22103190422058,cat,dog,150,0789_ps_s01_150_dog_10_n02108000_6454.png
subject-01,1,790,0.84703803062439,knife,knife,30,0790_ps_s01_30_knife_10_n03041632_56217.png
subject-01,1,791,0.916508197784424,car,truck,180,0791_ps_s01_180_truck_10_n04467665_23054.png
subject-01,1,792,0.898423194885254,car,truck,120,0792_ps_s01_120_truck_10_n03796401_28190.png
subject-01,1,793,1.01036691665649,cat,cat,0,0793_ps_s01_0_cat_10_n02123394_523.png
subject-01,1,794,0.766178846359253,elephant,elephant,0,0794_ps_s01_0_elephant_10_n02504013_7035.png
subject-01,1,795,1.03182697296143,bear,elephant,30,0795_ps_s01_30_elephant_10_n02504013_4386.png
subject-01,1,796,0.70173192024231,chair,chair,30,0796_ps_s01_30_chair_10_n03376595_10332.png
subject-01,1,797,1.11944699287415,keyboard,keyboard,120,0797_ps_s01_120_keyboard_10_n03085013_18763.png
subject-01,1,798,0.797424077987671,bird,bird,0,0798_ps_s01_0_bird_10_n02013706_3221.png
subject-01,1,799,0.937165975570679,bear,bear,30,0799_ps_s01_30_bear_10_n02134418_5664.png
subject-01,1,800,1.20491886138916,truck,keyboard,180,0800_ps_s01_180_keyboard_10_n03085013_24392.png
subject-01,1,801,1.1588408946991,keyboard,keyboard,90,0801_ps_s01_90_keyboard_10_n04505470_4454.png
subject-01,1,802,0.790588855743408,keyboard,keyboard,90,0802_ps_s01_90_keyboard_10_n03085013_20357.png
subject-01,1,803,0.792799949645996,boat,car,150,0803_ps_s01_150_car_10_n04285008_13076.png
subject-01,1,804,0.854151964187622,car,airplane,150,0804_ps_s01_150_airplane_10_n02690373_4070.png
subject-01,1,805,0.996119022369385,dog,dog,60,0805_ps_s01_60_dog_10_n02088094_1145.png
subject-01,1,806,1.1279239654541,truck,bicycle,90,0806_ps_s01_90_bicycle_10_n02835271_26731.png
subject-01,1,807,0.92778491973877,elephant,elephant,30,0807_ps_s01_30_elephant_10_n02504458_7033.png
subject-01,1,808,0.9238121509552,bear,dog,180,0808_ps_s01_180_dog_10_n02091244_11713.png
subject-01,1,809,1.19561314582825,bear,bear,90,0809_ps_s01_90_bear_10_n02133161_4043.png
subject-01,1,810,1.06118607521057,truck,truck,0,0810_ps_s01_0_truck_10_n03796401_3411.png
subject-01,1,811,0.980874061584473,elephant,elephant,90,0811_ps_s01_90_elephant_10_n02504458_3629.png
subject-01,1,812,1.21080303192139,truck,clock,60,0812_ps_s01_60_clock_10_n02708093_7973.png
subject-01,1,813,0.802515983581543,keyboard,keyboard,30,0813_ps_s01_30_keyboard_10_n03085013_19471.png
subject-01,1,814,1.20836305618286,knife,knife,60,0814_ps_s01_60_knife_10_n03041632_36806.png
subject-01,1,815,1.50012493133545,cat,bear,150,0815_ps_s01_150_bear_10_n02134084_17572.png
subject-01,1,816,0.865951061248779,boat,airplane,0,0816_ps_s01_0_airplane_10_n02690373_4119.png
subject-01,1,817,0.944092988967896,cat,clock,150,0817_ps_s01_150_clock_10_n04548280_3299.png
subject-01,1,818,0.879809141159058,bird,elephant,90,0818_ps_s01_90_elephant_10_n02504013_3567.png
subject-01,1,819,0.913265943527222,keyboard,keyboard,0,0819_ps_s01_0_keyboard_10_n04505470_3306.png
subject-01,1,820,0.979532957077026,bird,bird,60,0820_ps_s01_60_bird_10_n01560419_6863.png
subject-01,1,821,1.17120814323425,keyboard,boat,180,0821_ps_s01_180_boat_10_n03344393_2969.png
subject-01,1,822,0.747006893157959,oven,oven,90,0822_ps_s01_90_oven_10_n04111531_9304.png
subject-01,1,823,1.01270985603333,bear,clock,180,0823_ps_s01_180_clock_10_n04548280_9217.png
subject-01,1,824,0.798914909362793,airplane,airplane,30,0824_ps_s01_30_airplane_10_n02690373_9012.png
subject-01,1,825,0.898280143737793,knife,knife,90,0825_ps_s01_90_knife_10_n03041632_21472.png
subject-01,1,826,0.928217887878418,keyboard,keyboard,60,0826_ps_s01_60_keyboard_10_n04505470_4479.png
subject-01,1,827,0.94592809677124,bicycle,bicycle,120,0827_ps_s01_120_bicycle_10_n02835271_13644.png
subject-01,1,828,1.13559103012085,bear,cat,120,0828_ps_s01_120_cat_10_n02125311_9615.png
subject-01,1,829,1.0757851600647,bear,bear,30,0829_ps_s01_30_bear_10_n02134084_13394.png
subject-01,1,830,1.41340804100037,car,boat,30,0830_ps_s01_30_boat_10_n03344393_8374.png
subject-01,1,831,1.20517611503601,bird,clock,120,0831_ps_s01_120_clock_10_n02708093_111.png
subject-01,1,832,1.16326498985291,bicycle,bicycle,120,0832_ps_s01_120_bicycle_10_n03792782_11272.png
subject-01,1,833,0.798908948898315,bicycle,bicycle,60,0833_ps_s01_60_bicycle_10_n03792782_17673.png
subject-01,1,834,0.824679136276245,chair,chair,30,0834_ps_s01_30_chair_10_n03376595_12364.png
subject-01,1,835,0.998433828353882,truck,bicycle,150,0835_ps_s01_150_bicycle_10_n03792782_6731.png
subject-01,1,836,0.864227056503296,bicycle,bicycle,90,0836_ps_s01_90_bicycle_10_n02835271_22739.png
subject-01,1,837,0.718055009841919,boat,car,180,0837_ps_s01_180_car_10_n03100240_18276.png
subject-01,1,838,0.837961912155151,elephant,elephant,90,0838_ps_s01_90_elephant_10_n02504013_15805.png
subject-01,1,839,0.609846830368042,clock,clock,60,0839_ps_s01_60_clock_10_n04548280_4709.png
subject-01,1,840,0.627383947372437,boat,boat,0,0840_ps_s01_0_boat_10_n03662601_37095.png
subject-01,1,841,0.901374101638794,bird,bird,0,0841_ps_s01_0_bird_10_n01622779_6183.png
subject-01,1,842,0.861194849014282,keyboard,keyboard,90,0842_ps_s01_90_keyboard_10_n04505470_5063.png
subject-01,1,843,1.05491709709167,boat,bird,90,0843_ps_s01_90_bird_10_n01582220_261.png
subject-01,1,844,1.45665502548218,oven,bottle,150,0844_ps_s01_150_bottle_10_n03937543_4783.png
subject-01,1,845,0.96061897277832,bird,bear,30,0845_ps_s01_30_bear_10_n02133161_545.png
subject-01,1,846,0.732330083847046,clock,clock,60,0846_ps_s01_60_clock_10_n04548280_4178.png
subject-01,1,847,1.02609086036682,elephant,elephant,60,0847_ps_s01_60_elephant_10_n02504013_299.png
subject-01,1,848,0.789905071258545,clock,clock,90,0848_ps_s01_90_clock_10_n02708093_204.png
subject-01,1,849,0.933842182159424,car,chair,120,0849_ps_s01_120_chair_10_n03376595_10569.png
subject-01,1,850,0.795760154724121,keyboard,keyboard,30,0850_ps_s01_30_keyboard_10_n03085013_2842.png
subject-01,1,851,1.25549793243408,clock,knife,0,0851_ps_s01_0_knife_10_n03041632_9635.png
subject-01,1,852,0.989151000976562,truck,boat,30,0852_ps_s01_30_boat_10_n03662601_26273.png
subject-01,1,853,0.953057050704956,chair,chair,60,0853_ps_s01_60_chair_10_n04429376_10449.png
subject-01,1,854,1.11079788208008,keyboard,bottle,60,0854_ps_s01_60_bottle_10_n04557648_10582.png
subject-01,1,855,0.942926168441772,oven,oven,0,0855_ps_s01_0_oven_10_n04111531_6428.png
subject-01,1,856,0.838381052017212,car,car,30,0856_ps_s01_30_car_10_n03100240_12777.png
subject-01,1,857,0.892194032669067,bird,bird,30,0857_ps_s01_30_bird_10_n01860187_5008.png
subject-01,1,858,0.906399011611938,elephant,elephant,0,0858_ps_s01_0_elephant_10_n02504013_1698.png
subject-01,1,859,1.13589310646057,bird,cat,180,0859_ps_s01_180_cat_10_n02124075_8470.png
subject-01,1,860,1.27570295333862,bear,boat,180,0860_ps_s01_180_boat_10_n02951358_2999.png
subject-01,1,861,1.02959895133972,cat,cat,30,0861_ps_s01_30_cat_10_n02123045_9813.png
subject-01,1,862,1.11320304870605,dog,bird,150,0862_ps_s01_150_bird_10_n01833805_30804.png
subject-01,1,863,0.703158140182495,oven,oven,0,0863_ps_s01_0_oven_10_n04111531_2342.png
subject-01,1,864,0.878886938095093,truck,truck,90,0864_ps_s01_90_truck_10_n03417042_3238.png
subject-01,1,865,0.744671821594238,chair,chair,30,0865_ps_s01_30_chair_10_n03376595_15124.png
subject-01,1,866,0.932679176330566,bird,knife,0,0866_ps_s01_0_knife_10_n03041632_13225.png
subject-01,1,867,0.954656839370728,elephant,elephant,90,0867_ps_s01_90_elephant_10_n02504013_8856.png
subject-01,1,868,0.952142000198364,cat,cat,90,0868_ps_s01_90_cat_10_n02125311_36138.png
subject-01,1,869,0.974027156829834,bird,bird,60,0869_ps_s01_60_bird_10_n02011460_3509.png
subject-01,1,870,1.10208702087402,car,car,120,0870_ps_s01_120_car_10_n02814533_19373.png
subject-01,1,871,0.747540950775146,cat,cat,0,0871_ps_s01_0_cat_10_n02123045_10887.png
subject-01,1,872,1.30197501182556,chair,truck,90,0872_ps_s01_90_truck_10_n03796401_7104.png
subject-01,1,873,0.861151933670044,bird,clock,150,0873_ps_s01_150_clock_10_n04548280_8398.png
subject-01,1,874,0.8491370677948,bear,bear,0,0874_ps_s01_0_bear_10_n02133161_1032.png
subject-01,1,875,1.18501806259155,bear,bird,180,0875_ps_s01_180_bird_10_n01796340_5016.png
subject-01,1,876,0.97074294090271,knife,knife,30,0876_ps_s01_30_knife_10_n03041632_36277.png
subject-01,1,877,0.860536098480225,truck,truck,90,0877_ps_s01_90_truck_10_n03417042_1978.png
subject-01,1,878,1.47220301628113,bird,dog,150,0878_ps_s01_150_dog_10_n02110806_2269.png
subject-01,1,879,1.32214593887329,bear,boat,0,0879_ps_s01_0_boat_10_n02951358_12713.png
subject-01,1,880,1.01204109191895,cat,cat,120,0880_ps_s01_120_cat_10_n02123159_3289.png
subject-01,1,881,0.720272064208984,airplane,airplane,30,0881_ps_s01_30_airplane_10_n02690373_19107.png
subject-01,1,882,0.94595193862915,car,knife,150,0882_ps_s01_150_knife_10_n03041632_27879.png
subject-01,1,883,0.843453884124756,clock,clock,120,0883_ps_s01_120_clock_10_n02708093_4061.png
subject-01,1,884,0.905290842056274,cat,elephant,120,0884_ps_s01_120_elephant_10_n02504013_1908.png
subject-01,1,885,0.863127946853638,car,car,0,0885_ps_s01_0_car_10_n03100240_22290.png
subject-01,1,886,0.888906002044678,cat,cat,180,0886_ps_s01_180_cat_10_n02123045_5422.png
subject-01,1,887,1.01668310165405,oven,oven,60,0887_ps_s01_60_oven_10_n04111531_15912.png
subject-01,1,888,1.10856986045837,truck,truck,0,0888_ps_s01_0_truck_10_n03796401_4017.png
subject-01,1,889,0.998337030410767,truck,knife,150,0889_ps_s01_150_knife_10_n03041632_7064.png
subject-01,1,890,0.918373107910156,oven,oven,30,0890_ps_s01_30_oven_10_n04111531_22834.png
subject-01,1,891,1.02614402770996,oven,truck,0,0891_ps_s01_0_truck_10_n03417042_3389.png
subject-01,1,892,0.981894969940186,bear,bear,180,0892_ps_s01_180_bear_10_n02133161_832.png
subject-01,1,893,0.82374095916748,bear,bear,90,0893_ps_s01_90_bear_10_n02132136_9055.png
subject-01,1,894,1.04356813430786,truck,oven,60,0894_ps_s01_60_oven_10_n04111531_3886.png
subject-01,1,895,1.04560303688049,bicycle,bicycle,30,0895_ps_s01_30_bicycle_10_n02835271_11842.png
subject-01,1,896,0.763057231903076,bear,knife,150,0896_ps_s01_150_knife_10_n03041632_2319.png
subject-01,1,897,0.948766946792603,keyboard,keyboard,120,0897_ps_s01_120_keyboard_10_n04505470_4535.png
subject-01,1,898,0.828954935073853,bear,dog,150,0898_ps_s01_150_dog_10_n02109525_40708.png
subject-01,1,899,0.748883962631226,car,car,0,0899_ps_s01_0_car_10_n02814533_76388.png
subject-01,1,900,0.738672018051147,clock,clock,0,0900_ps_s01_0_clock_10_n02708093_1360.png
subject-01,1,901,0.836341142654419,oven,knife,120,0901_ps_s01_120_knife_10_n03041632_26340.png
subject-01,1,902,0.834068059921265,knife,knife,90,0902_ps_s01_90_knife_10_n03041632_24100.png
subject-01,1,903,0.871702909469604,keyboard,keyboard,60,0903_ps_s01_60_keyboard_10_n03085013_19565.png
subject-01,1,904,0.935532808303833,car,car,120,0904_ps_s01_120_car_10_n04285008_3268.png
subject-01,1,905,1.05331683158875,car,truck,120,0905_ps_s01_120_truck_10_n03796401_2007.png
subject-01,1,906,1.00923013687134,car,car,180,0906_ps_s01_180_car_10_n02814533_8490.png
subject-01,1,907,0.945153951644897,bear,bear,0,0907_ps_s01_0_bear_10_n02134084_42197.png
subject-01,1,908,0.918998956680298,dog,dog,0,0908_ps_s01_0_dog_10_n02095314_261.png
subject-01,1,909,0.907067060470581,cat,clock,150,0909_ps_s01_150_clock_10_n03196217_1153.png
subject-01,1,910,1.02679800987244,car,chair,150,0910_ps_s01_150_chair_10_n04429376_6242.png
subject-01,1,911,0.916251182556152,keyboard,keyboard,30,0911_ps_s01_30_keyboard_10_n03085013_3632.png
subject-01,1,912,0.960063934326172,car,elephant,60,0912_ps_s01_60_elephant_10_n02504458_2103.png
subject-01,1,913,0.953927040100098,bird,bird,0,0913_ps_s01_0_bird_10_n01537544_1943.png
subject-01,1,914,1.13799285888672,car,cat,180,0914_ps_s01_180_cat_10_n02125311_11440.png
subject-01,1,915,0.925596952438354,truck,chair,150,0915_ps_s01_150_chair_10_n02791124_7987.png
subject-01,1,916,0.919455051422119,car,bicycle,150,0916_ps_s01_150_bicycle_10_n02835271_10770.png
subject-01,1,917,1.25724196434021,car,knife,90,0917_ps_s01_90_knife_10_n03041632_25498.png
subject-01,1,918,0.75905704498291,cat,cat,60,0918_ps_s01_60_cat_10_n02124075_12059.png
subject-01,1,919,0.745098114013672,boat,boat,180,0919_ps_s01_180_boat_10_n04273569_12888.png
subject-01,1,920,0.646589040756226,clock,clock,0,0920_ps_s01_0_clock_10_n04548280_5699.png
subject-01,1,921,0.99462103843689,car,car,0,0921_ps_s01_0_car_10_n03100240_9982.png
subject-01,1,922,0.694432973861694,clock,clock,60,0922_ps_s01_60_clock_10_n04548280_11597.png
subject-01,1,923,1.11618995666504,car,bear,150,0923_ps_s01_150_bear_10_n02134418_10318.png
subject-01,1,924,0.721765041351318,oven,oven,30,0924_ps_s01_30_oven_10_n04111531_21733.png
subject-01,1,925,1.50000286102295,bottle,dog,150,0925_ps_s01_150_dog_10_n02089973_2756.png
subject-01,1,926,1.00946402549744,cat,dog,30,0926_ps_s01_30_dog_10_n02109961_14202.png
subject-01,1,927,1.01526999473572,keyboard,clock,0,0927_ps_s01_0_clock_10_n03196217_8020.png
subject-01,1,928,1.06909894943237,cat,chair,90,0928_ps_s01_90_chair_10_n03376595_14563.png
subject-01,1,929,0.94323992729187,car,elephant,120,0929_ps_s01_120_elephant_10_n02504013_2340.png
subject-01,1,930,0.776930093765259,bicycle,bicycle,60,0930_ps_s01_60_bicycle_10_n02835271_20714.png
subject-01,1,931,1.45053100585938,elephant,elephant,120,0931_ps_s01_120_elephant_10_n02504458_694.png
subject-01,1,932,0.730245113372803,oven,oven,0,0932_ps_s01_0_oven_10_n04111531_3202.png
subject-01,1,933,0.768217086791992,bottle,bottle,90,0933_ps_s01_90_bottle_10_n04579145_3149.png
subject-01,1,934,0.707885980606079,bottle,bottle,30,0934_ps_s01_30_bottle_10_n04591713_5558.png
subject-01,1,935,1.14989018440247,truck,elephant,150,0935_ps_s01_150_elephant_10_n02504458_5470.png
subject-01,1,936,0.843528985977173,bicycle,bicycle,0,0936_ps_s01_0_bicycle_10_n03792782_23912.png
subject-01,1,937,1.14741110801697,cat,cat,120,0937_ps_s01_120_cat_10_n02123597_5217.png
subject-01,1,938,1.02315282821655,bird,boat,150,0938_ps_s01_150_boat_10_n03662601_18953.png
subject-01,1,939,0.754887819290161,car,car,60,0939_ps_s01_60_car_10_n04285008_6410.png
subject-01,1,940,1.18473792076111,bird,keyboard,150,0940_ps_s01_150_keyboard_10_n03085013_15162.png
subject-01,1,941,0.908797025680542,car,boat,120,0941_ps_s01_120_boat_10_n03344393_8117.png
subject-01,1,942,1.45250606536865,bicycle,cat,180,0942_ps_s01_180_cat_10_n02123045_13220.png
subject-01,1,943,1.02856993675232,bear,bicycle,180,0943_ps_s01_180_bicycle_10_n02835271_1653.png
subject-01,1,944,0.858154058456421,car,elephant,180,0944_ps_s01_180_elephant_10_n02504458_4207.png
subject-01,1,945,0.904110908508301,clock,chair,0,0945_ps_s01_0_chair_10_n04429376_49351.png
subject-01,1,946,0.961704969406128,dog,dog,0,0946_ps_s01_0_dog_10_n02107908_1423.png
subject-01,1,947,0.70756196975708,cat,cat,0,0947_ps_s01_0_cat_10_n02124075_14800.png
subject-01,1,948,0.763514995574951,oven,oven,90,0948_ps_s01_90_oven_10_n04111531_2803.png
subject-01,1,949,1.1032509803772,bird,chair,180,0949_ps_s01_180_chair_10_n04099969_9960.png
subject-01,1,950,0.788886070251465,cat,cat,90,0950_ps_s01_90_cat_10_n02123394_6311.png
subject-01,1,951,0.732834815979004,car,car,90,0951_ps_s01_90_car_10_n02814533_52627.png
subject-01,1,952,1.00258612632751,airplane,airplane,90,0952_ps_s01_90_airplane_10_n02690373_5422.png
subject-01,1,953,1.13253092765808,oven,dog,180,0953_ps_s01_180_dog_10_n02108000_5623.png
subject-01,1,954,1.00654292106628,car,keyboard,150,0954_ps_s01_150_keyboard_10_n03085013_17884.png
subject-01,1,955,0.913967132568359,car,truck,180,0955_ps_s01_180_truck_10_n03417042_6809.png
subject-01,1,956,1.00598096847534,truck,truck,90,0956_ps_s01_90_truck_10_n03417042_12711.png
subject-01,1,957,0.852066040039062,elephant,elephant,0,0957_ps_s01_0_elephant_10_n02504013_5996.png
subject-01,1,958,0.833395004272461,oven,knife,150,0958_ps_s01_150_knife_10_n03041632_16606.png
subject-01,1,959,0.913280963897705,bottle,bottle,90,0959_ps_s01_90_bottle_10_n03983396_3185.png
subject-01,1,960,1.01107907295227,keyboard,chair,150,0960_ps_s01_150_chair_10_n03376595_1302.png
subject-01,1,961,0.923357963562012,bear,bicycle,150,0961_ps_s01_150_bicycle_10_n02835271_4396.png
subject-01,1,962,0.937087059020996,oven,chair,90,0962_ps_s01_90_chair_10_n02791124_1941.png
subject-01,1,963,0.951367139816284,keyboard,keyboard,120,0963_ps_s01_120_keyboard_10_n04505470_1157.png
subject-01,1,964,0.980870962142944,keyboard,keyboard,0,0964_ps_s01_0_keyboard_10_n04505470_1117.png
subject-01,1,965,0.974548101425171,airplane,airplane,120,0965_ps_s01_120_airplane_10_n02690373_10395.png
subject-01,1,966,0.834659099578857,bottle,bottle,30,0966_ps_s01_30_bottle_10_n04579145_3769.png
subject-01,1,967,0.846213817596436,truck,truck,0,0967_ps_s01_0_truck_10_n03417042_19650.png
subject-01,1,968,0.834068059921265,bear,chair,120,0968_ps_s01_120_chair_10_n02791124_5823.png
subject-01,1,969,0.867993116378784,bird,bird,120,0969_ps_s01_120_bird_10_n01614925_17980.png
subject-01,1,970,1.50003790855408,clock,chair,150,0970_ps_s01_150_chair_10_n04429376_20628.png
subject-01,1,971,0.729569911956787,boat,bear,150,0971_ps_s01_150_bear_10_n02133161_14317.png
subject-01,1,972,0.995217084884644,car,car,150,0972_ps_s01_150_car_10_n04285008_12696.png
subject-01,1,973,0.99517297744751,car,boat,120,0973_ps_s01_120_boat_10_n04612504_15155.png
subject-01,1,974,0.853024959564209,elephant,elephant,30,0974_ps_s01_30_elephant_10_n02504458_10332.png
subject-01,1,975,0.898788928985596,truck,chair,120,0975_ps_s01_120_chair_10_n02791124_4319.png
subject-01,1,976,0.970924854278564,knife,knife,0,0976_ps_s01_0_knife_10_n03041632_9157.png
subject-01,1,977,0.840436220169067,cat,dog,120,0977_ps_s01_120_dog_10_n02105855_17066.png
subject-01,1,978,0.742286920547485,boat,boat,30,0978_ps_s01_30_boat_10_n03344393_5296.png
subject-01,1,979,0.876028060913086,car,oven,30,0979_ps_s01_30_oven_10_n04111531_2770.png
subject-01,1,980,1.02192687988281,truck,car,150,0980_ps_s01_150_car_10_n03100240_16145.png
subject-01,1,981,1.12962508201599,elephant,elephant,150,0981_ps_s01_150_elephant_10_n02504013_10920.png
subject-01,1,982,0.995416164398193,car,car,150,0982_ps_s01_150_car_10_n04285008_810.png
subject-01,1,983,0.979285001754761,keyboard,keyboard,60,0983_ps_s01_60_keyboard_10_n03085013_6424.png
subject-01,1,984,0.713495016098022,cat,cat,30,0984_ps_s01_30_cat_10_n02125311_15293.png
subject-01,1,985,1.28727912902832,bird,bottle,90,0985_ps_s01_90_bottle_10_n04591713_2014.png
subject-01,1,986,0.932589054107666,car,bear,120,0986_ps_s01_120_bear_10_n02132136_3616.png
subject-01,1,987,0.95285701751709,car,car,0,0987_ps_s01_0_car_10_n03100240_18069.png
subject-01,1,988,0.968262910842896,truck,truck,120,0988_ps_s01_120_truck_10_n03796401_25021.png
subject-01,1,989,0.620101928710938,clock,clock,0,0989_ps_s01_0_clock_10_n03196217_3605.png
subject-01,1,990,0.833953142166138,keyboard,keyboard,30,0990_ps_s01_30_keyboard_10_n04505470_6963.png
subject-01,1,991,0.883809804916382,truck,truck,60,0991_ps_s01_60_truck_10_n03417042_18374.png
subject-01,1,992,0.725619077682495,keyboard,keyboard,60,0992_ps_s01_60_keyboard_10_n04505470_2597.png
subject-01,1,993,1.27736902236938,keyboard,oven,0,0993_ps_s01_0_oven_10_n04111531_1488.png
subject-01,1,994,0.855355978012085,oven,knife,60,0994_ps_s01_60_knife_10_n03041632_105581.png
subject-01,1,995,0.95108699798584,elephant,elephant,60,0995_ps_s01_60_elephant_10_n02504013_4229.png
subject-01,1,996,0.930962085723877,car,truck,150,0996_ps_s01_150_truck_10_n03417042_18705.png
subject-01,1,997,0.756675004959106,oven,oven,30,0997_ps_s01_30_oven_10_n04111531_16198.png
subject-01,1,998,0.866380929946899,truck,truck,0,0998_ps_s01_0_truck_10_n03796401_24543.png
subject-01,1,999,0.908406019210815,truck,clock,90,0999_ps_s01_90_clock_10_n04548280_548.png
subject-01,1,1000,1.28414702415466,truck,dog,180,1000_ps_s01_180_dog_10_n02106166_134.png
subject-01,1,1001,0.810068130493164,boat,cat,120,1001_ps_s01_120_cat_10_n02123045_8336.png
subject-01,1,1002,1.30983304977417,truck,bottle,120,1002_ps_s01_120_bottle_10_n03937543_10666.png
subject-01,1,1003,1.14365005493164,car,bear,120,1003_ps_s01_120_bear_10_n02134084_4028.png
subject-01,1,1004,0.779371023178101,knife,knife,30,1004_ps_s01_30_knife_10_n03041632_20770.png
subject-01,1,1005,0.761380910873413,car,car,150,1005_ps_s01_150_car_10_n04285008_7511.png
subject-01,1,1006,1.06287598609924,car,keyboard,180,1006_ps_s01_180_keyboard_10_n03085013_25675.png
subject-01,1,1007,1.09875202178955,bear,elephant,120,1007_ps_s01_120_elephant_10_n02504458_3511.png
subject-01,1,1008,0.904680013656616,elephant,elephant,90,1008_ps_s01_90_elephant_10_n02504458_2662.png
subject-01,1,1009,0.700286149978638,bicycle,bicycle,0,1009_ps_s01_0_bicycle_10_n02835271_759.png
subject-01,1,1010,1.19652199745178,bottle,bottle,30,1010_ps_s01_30_bottle_10_n04557648_7693.png
subject-01,1,1011,1.02397799491882,boat,chair,150,1011_ps_s01_150_chair_10_n03376595_10700.png
subject-01,1,1012,0.755830049514771,keyboard,keyboard,60,1012_ps_s01_60_keyboard_10_n04505470_46.png
subject-01,1,1013,0.925686120986938,cat,bear,150,1013_ps_s01_150_bear_10_n02134084_3860.png
subject-01,1,1014,1.09733891487122,dog,dog,60,1014_ps_s01_60_dog_10_n02099429_3814.png
subject-01,1,1015,0.753371953964233,car,car,30,1015_ps_s01_30_car_10_n03100240_1294.png
subject-01,1,1016,0.63113808631897,cat,cat,30,1016_ps_s01_30_cat_10_n02123159_677.png
subject-01,1,1017,0.83294415473938,airplane,airplane,60,1017_ps_s01_60_airplane_10_n02690373_13078.png
subject-01,1,1018,0.971161127090454,car,truck,150,1018_ps_s01_150_truck_10_n03417042_10476.png
subject-01,1,1019,0.988481044769287,cat,bottle,150,1019_ps_s01_150_bottle_10_n03937543_793.png
subject-01,1,1020,0.728382110595703,bicycle,bicycle,120,1020_ps_s01_120_bicycle_10_n02835271_4138.png
subject-01,1,1021,0.946085929870605,truck,truck,30,1021_ps_s01_30_truck_10_n04467665_23914.png
subject-01,1,1022,0.67589807510376,bicycle,bicycle,30,1022_ps_s01_30_bicycle_10_n02835271_22143.png
subject-01,1,1023,1.08973097801208,truck,oven,120,1023_ps_s01_120_oven_10_n04111531_2385.png
subject-01,1,1024,0.853883981704712,clock,clock,120,1024_ps_s01_120_clock_10_n03196217_5745.png
subject-01,1,1025,0.777523994445801,bottle,bottle,60,1025_ps_s01_60_bottle_10_n03983396_10027.png
subject-01,1,1026,1.05516004562378,bicycle,oven,90,1026_ps_s01_90_oven_10_n04111531_30110.png
subject-01,1,1027,1.14506912231445,boat,bear,120,1027_ps_s01_120_bear_10_n02134084_825.png
subject-01,1,1028,1.23715400695801,oven,keyboard,180,1028_ps_s01_180_keyboard_10_n03085013_23254.png
subject-01,1,1029,0.908670902252197,car,keyboard,120,1029_ps_s01_120_keyboard_10_n03085013_7752.png
subject-01,1,1030,1.11689591407776,cat,dog,90,1030_ps_s01_90_dog_10_n02095314_5408.png
subject-01,1,1031,1.22864580154419,bird,bottle,90,1031_ps_s01_90_bottle_10_n02823428_14196.png
subject-01,1,1032,0.721989870071411,boat,boat,90,1032_ps_s01_90_boat_10_n04273569_7733.png
subject-01,1,1033,0.66397500038147,cat,cat,0,1033_ps_s01_0_cat_10_n02123597_2232.png
subject-01,1,1034,0.8560631275177,airplane,airplane,120,1034_ps_s01_120_airplane_10_n02690373_3709.png
subject-01,1,1035,0.887550115585327,bicycle,bicycle,30,1035_ps_s01_30_bicycle_10_n02835271_807.png
subject-01,1,1036,1.50013089179993,chair,clock,180,1036_ps_s01_180_clock_10_n04548280_2334.png
subject-01,1,1037,0.953306913375854,chair,chair,90,1037_ps_s01_90_chair_10_n02791124_538.png
subject-01,1,1038,0.706846952438354,cat,dog,0,1038_ps_s01_0_dog_10_n02097047_705.png
subject-01,1,1039,0.730629920959473,car,car,0,1039_ps_s01_0_car_10_n03100240_4343.png
subject-01,1,1040,0.690905094146729,cat,cat,90,1040_ps_s01_90_cat_10_n02123394_702.png
subject-01,1,1041,0.843846082687378,bear,bear,0,1041_ps_s01_0_bear_10_n02134418_2254.png
subject-01,1,1042,0.767717123031616,bicycle,bicycle,0,1042_ps_s01_0_bicycle_10_n02835271_9866.png
subject-01,1,1043,0.96957802772522,cat,cat,30,1043_ps_s01_30_cat_10_n02125311_46527.png
subject-01,1,1044,0.955549955368042,bird,bird,60,1044_ps_s01_60_bird_10_n02056570_8536.png
subject-01,1,1045,1.20915603637695,chair,dog,120,1045_ps_s01_120_dog_10_n02099849_2217.png
subject-01,1,1046,0.879055976867676,oven,oven,60,1046_ps_s01_60_oven_10_n04111531_22263.png
subject-01,1,1047,1.08269286155701,keyboard,bottle,150,1047_ps_s01_150_bottle_10_n02823428_8543.png
subject-01,1,1048,0.962656021118164,bird,dog,60,1048_ps_s01_60_dog_10_n02111129_8015.png
subject-01,1,1049,0.942308187484741,knife,knife,60,1049_ps_s01_60_knife_10_n03041632_4714.png
subject-01,1,1050,0.826229095458984,bicycle,bicycle,30,1050_ps_s01_30_bicycle_10_n03792782_4277.png
subject-01,1,1051,0.830097913742065,chair,chair,0,1051_ps_s01_0_chair_10_n02791124_2928.png
subject-01,1,1052,1.18009901046753,boat,bicycle,150,1052_ps_s01_150_bicycle_10_n02835271_783.png
subject-01,1,1053,0.668227195739746,clock,clock,0,1053_ps_s01_0_clock_10_n04548280_4426.png
subject-01,1,1054,0.689598798751831,boat,boat,60,1054_ps_s01_60_boat_10_n02951358_12080.png
subject-01,1,1055,0.983336925506592,keyboard,keyboard,90,1055_ps_s01_90_keyboard_10_n03085013_5726.png
subject-01,1,1056,0.749446868896484,bicycle,bicycle,0,1056_ps_s01_0_bicycle_10_n02835271_7256.png
subject-01,1,1057,0.922993898391724,elephant,elephant,90,1057_ps_s01_90_elephant_10_n02504458_7857.png
subject-01,1,1058,0.770771980285645,car,chair,150,1058_ps_s01_150_chair_10_n04099969_16178.png
subject-01,1,1059,0.624480009078979,boat,boat,0,1059_ps_s01_0_boat_10_n04273569_4330.png
subject-01,1,1060,0.986410856246948,car,car,180,1060_ps_s01_180_car_10_n02814533_39517.png
subject-01,1,1061,0.816092014312744,airplane,airplane,30,1061_ps_s01_30_airplane_10_n02690373_2882.png
subject-01,1,1062,0.96589994430542,bear,dog,120,1062_ps_s01_120_dog_10_n02086240_7359.png
subject-01,1,1063,1.38387298583984,keyboard,oven,120,1063_ps_s01_120_oven_10_n04111531_3286.png
subject-01,1,1064,0.739634990692139,car,truck,120,1064_ps_s01_120_truck_10_n03796401_7518.png
subject-01,1,1065,1.37942695617676,boat,elephant,180,1065_ps_s01_180_elephant_10_n02504458_1929.png
subject-01,1,1066,0.905086994171143,chair,chair,30,1066_ps_s01_30_chair_10_n04099969_26310.png
subject-01,1,1067,1.19906306266785,cat,bottle,150,1067_ps_s01_150_bottle_10_n03937543_964.png
subject-01,1,1068,1.00876617431641,bear,bird,180,1068_ps_s01_180_bird_10_n01818515_11687.png
subject-01,1,1069,0.84660005569458,chair,chair,60,1069_ps_s01_60_chair_10_n02791124_13469.png
subject-01,1,1070,0.68437385559082,cat,cat,30,1070_ps_s01_30_cat_10_n02123045_13172.png
subject-01,1,1071,1.13825607299805,elephant,elephant,120,1071_ps_s01_120_elephant_10_n02504013_22557.png
