subj,Session,trial,rt,object_response,category,condition,imagename
subject-02,1,1,0.892426013946533,oven,keyboard,150,0001_ps_s02_150_keyboard_10_n03085013_22821.png
subject-02,1,2,0.816164016723633,chair,chair,30,0002_ps_s02_30_chair_10_n04099969_26310.png
subject-02,1,3,0.686225891113281,oven,oven,60,0003_ps_s02_60_oven_10_n04111531_1662.png
subject-02,1,4,1.35604214668274,bird,airplane,180,0004_ps_s02_180_airplane_10_n02690373_4691.png
subject-02,1,5,0.587377071380615,clock,clock,60,0005_ps_s02_60_clock_10_n04548280_5866.png
subject-02,1,6,1.19134593009949,car,car,0,0006_ps_s02_0_car_10_n03100240_9982.png
subject-02,1,7,1.29306793212891,bear,knife,180,0007_ps_s02_180_knife_10_n03041632_44230.png
subject-02,1,8,1.3450710773468,elephant,oven,180,0008_ps_s02_180_oven_10_n04111531_10336.png
subject-02,1,9,1.0827739238739,bird,clock,180,0009_ps_s02_180_clock_10_n04548280_4560.png
subject-02,1,10,1.00040602684021,truck,truck,90,0010_ps_s02_90_truck_10_n03417042_5228.png
subject-02,1,11,0.770298004150391,elephant,elephant,0,0011_ps_s02_0_elephant_10_n02504458_62.png
subject-02,1,12,0.885956048965454,bird,bottle,150,0012_ps_s02_150_bottle_10_n04560804_26326.png
subject-02,1,13,0.642051935195923,clock,clock,90,0013_ps_s02_90_clock_10_n02708093_204.png
subject-02,1,14,0.649811029434204,oven,oven,30,0014_ps_s02_30_oven_10_n04111531_16198.png
subject-02,1,15,1.3374240398407,elephant,bear,150,0015_ps_s02_150_bear_10_n02133161_4820.png
subject-02,1,16,0.717394828796387,airplane,airplane,0,0016_ps_s02_0_airplane_10_n02690373_1325.png
subject-02,1,17,0.849266767501831,car,oven,150,0017_ps_s02_150_oven_10_n04111531_22084.png
subject-02,1,18,0.865154981613159,bicycle,bicycle,60,0018_ps_s02_60_bicycle_10_n02835271_4730.png
subject-02,1,19,1.12068390846252,oven,chair,120,0019_ps_s02_120_chair_10_n03376595_4362.png
subject-02,1,20,0.778729200363159,bicycle,bicycle,90,0020_ps_s02_90_bicycle_10_n03792782_55532.png
subject-02,1,21,1.4684841632843,clock,clock,150,0021_ps_s02_150_clock_10_n04548280_3299.png
subject-02,1,22,1.19412302970886,bird,clock,120,0022_ps_s02_120_clock_10_n04548280_5295.png
subject-02,1,23,1.28598594665527,cat,chair,60,0023_ps_s02_60_chair_10_n04099969_16266.png
subject-02,1,24,1.13381600379944,dog,dog,30,0024_ps_s02_30_dog_10_n02086646_7362.png
subject-02,1,25,1.13171601295471,knife,clock,120,0025_ps_s02_120_clock_10_n02708093_111.png
subject-02,1,26,1.25347208976746,bird,clock,150,0026_ps_s02_150_clock_10_n04548280_8535.png
subject-02,1,27,0.97319507598877,bird,bird,60,0027_ps_s02_60_bird_10_n02056570_8536.png
subject-02,1,28,1.17543005943298,elephant,elephant,60,0028_ps_s02_60_elephant_10_n02504458_6715.png
subject-02,1,29,0.984846830368042,bicycle,keyboard,120,0029_ps_s02_120_keyboard_10_n04505470_4535.png
subject-02,1,30,1.24261999130249,bear,oven,120,0030_ps_s02_120_oven_10_n04111531_924.png
subject-02,1,31,1.2005090713501,car,car,180,0031_ps_s02_180_car_10_n04285008_11770.png
subject-02,1,32,1.09835481643677,clock,clock,0,0032_ps_s02_0_clock_10_n03196217_5493.png
subject-02,1,33,1.13432788848877,bird,bird,0,0033_ps_s02_0_bird_10_n02006656_7153.png
subject-02,1,34,1.07800698280334,bicycle,chair,120,0034_ps_s02_120_chair_10_n04429376_16869.png
subject-02,1,35,0.874264001846313,clock,clock,60,0035_ps_s02_60_clock_10_n04548280_4709.png
subject-02,1,36,0.862127065658569,airplane,airplane,60,0036_ps_s02_60_airplane_10_n02690373_10399.png
subject-02,1,37,1.46731805801392,car,bottle,0,0037_ps_s02_0_bottle_10_n02823428_685.png
subject-02,1,38,1.23710298538208,bird,bear,60,0038_ps_s02_60_bear_10_n02134084_9253.png
subject-02,1,39,0.683182954788208,cat,cat,30,0039_ps_s02_30_cat_10_n02123159_677.png
subject-02,1,40,0.72094988822937,cat,cat,30,0040_ps_s02_30_cat_10_n02125311_46527.png
subject-02,1,41,1.15661787986755,boat,bottle,60,0041_ps_s02_60_bottle_10_n03983396_2205.png
subject-02,1,42,1.08054900169373,bear,elephant,180,0042_ps_s02_180_elephant_10_n02504013_17589.png
subject-02,1,43,1.07435417175293,bottle,keyboard,150,0043_ps_s02_150_keyboard_10_n03085013_15162.png
subject-02,1,44,0.704216957092285,boat,boat,90,0044_ps_s02_90_boat_10_n04273569_7733.png
subject-02,1,45,1.16641402244568,airplane,airplane,90,0045_ps_s02_90_airplane_10_n02690373_1436.png
subject-02,1,46,1.20381498336792,bicycle,bicycle,120,0046_ps_s02_120_bicycle_10_n03792782_4600.png
subject-02,1,47,1.21938800811768,bear,cat,120,0047_ps_s02_120_cat_10_n02123045_12046.png
subject-02,1,48,1.12751197814941,airplane,car,120,0048_ps_s02_120_car_10_n04285008_3268.png
subject-02,1,49,1.18535590171814,bottle,knife,120,0049_ps_s02_120_knife_10_n03041632_28129.png
subject-02,1,50,0.857347965240479,elephant,elephant,60,0050_ps_s02_60_elephant_10_n02504013_299.png
subject-02,1,51,0.678890943527222,bicycle,bicycle,30,0051_ps_s02_30_bicycle_10_n02835271_2505.png
subject-02,1,52,1.46051597595215,knife,car,0,0052_ps_s02_0_car_10_n03100240_2108.png
subject-02,1,53,1.408616065979,boat,elephant,150,0053_ps_s02_150_elephant_10_n02504013_7305.png
subject-02,1,54,1.10026001930237,bird,bird,0,0054_ps_s02_0_bird_10_n02027492_15639.png
subject-02,1,55,0.865991115570068,bottle,bottle,120,0055_ps_s02_120_bottle_10_n03937543_24.png
subject-02,1,56,1.42611885070801,bottle,bottle,120,0056_ps_s02_120_bottle_10_n04557648_1136.png
subject-02,1,57,1.38185811042786,bear,bear,150,0057_ps_s02_150_bear_10_n02133161_14317.png
subject-02,1,58,0.675890922546387,bottle,bottle,30,0058_ps_s02_30_bottle_10_n04560804_8454.png
subject-02,1,59,0.919360876083374,bottle,bottle,0,0059_ps_s02_0_bottle_10_n04579145_5621.png
subject-02,1,60,1.44516205787659,oven,bear,180,0060_ps_s02_180_bear_10_n02134084_1503.png
subject-02,1,61,1.11098408699036,boat,bird,90,0061_ps_s02_90_bird_10_n02056570_10881.png
subject-02,1,62,NaN,na,bottle,30,0062_ps_s02_30_bottle_10_n03937543_3133.png
subject-02,1,63,0.612558841705322,boat,boat,0,0063_ps_s02_0_boat_10_n03344393_3032.png
subject-02,1,64,0.728646039962769,boat,boat,0,0064_ps_s02_0_boat_10_n04612504_15237.png
subject-02,1,65,1.31026101112366,bear,knife,120,0065_ps_s02_120_knife_10_n03041632_26340.png
subject-02,1,66,1.03386306762695,boat,elephant,90,0066_ps_s02_90_elephant_10_n02504013_3640.png
subject-02,1,67,1.23408913612366,elephant,dog,180,0067_ps_s02_180_dog_10_n02091244_11713.png
subject-02,1,68,1.05962610244751,bird,cat,120,0068_ps_s02_120_cat_10_n02123159_3289.png
subject-02,1,69,0.685544013977051,cat,knife,180,0069_ps_s02_180_knife_10_n03041632_5916.png
subject-02,1,70,1.04311990737915,bear,cat,150,0070_ps_s02_150_cat_10_n02124075_2080.png
subject-02,1,71,0.891059160232544,bicycle,bear,150,0071_ps_s02_150_bear_10_n02134084_17572.png
subject-02,1,72,0.925226211547852,cat,truck,150,0072_ps_s02_150_truck_10_n03417042_18705.png
subject-02,1,73,1.21056079864502,dog,bicycle,120,0073_ps_s02_120_bicycle_10_n02835271_9237.png
subject-02,1,74,1.04849886894226,bird,truck,120,0074_ps_s02_120_truck_10_n03796401_9198.png
subject-02,1,75,1.15639781951904,cat,elephant,120,0075_ps_s02_120_elephant_10_n02504013_2340.png
subject-02,1,76,1.07232308387756,truck,truck,60,0076_ps_s02_60_truck_10_n04467665_50648.png
subject-02,1,77,1.14030408859253,boat,chair,180,0077_ps_s02_180_chair_10_n02791124_3994.png
subject-02,1,78,0.807942867279053,airplane,airplane,30,0078_ps_s02_30_airplane_10_n02690373_1928.png
subject-02,1,79,1.10153293609619,truck,truck,30,0079_ps_s02_30_truck_10_n04467665_6523.png
subject-02,1,80,1.24749803543091,truck,truck,60,0080_ps_s02_60_truck_10_n04467665_30461.png
subject-02,1,81,0.786942005157471,cat,oven,150,0081_ps_s02_150_oven_10_n04111531_15296.png
subject-02,1,82,0.72663402557373,cat,bear,180,0082_ps_s02_180_bear_10_n02133161_832.png
subject-02,1,83,0.962284088134766,oven,car,120,0083_ps_s02_120_car_10_n04285008_3884.png
subject-02,1,84,0.76436185836792,bicycle,bicycle,90,0084_ps_s02_90_bicycle_10_n02835271_19853.png
subject-02,1,85,1.10245490074158,truck,bear,120,0085_ps_s02_120_bear_10_n02133161_361.png
subject-02,1,86,0.830060005187988,bottle,bottle,30,0086_ps_s02_30_bottle_10_n04557648_7693.png
subject-02,1,87,0.835713148117065,keyboard,chair,180,0087_ps_s02_180_chair_10_n04099969_19484.png
subject-02,1,88,0.777840852737427,truck,truck,30,0088_ps_s02_30_truck_10_n04467665_20622.png
subject-02,1,89,1.17351508140564,keyboard,keyboard,90,0089_ps_s02_90_keyboard_10_n04505470_986.png
subject-02,1,90,0.999120950698853,elephant,elephant,90,0090_ps_s02_90_elephant_10_n02504458_2662.png
subject-02,1,91,0.827243089675903,bird,bear,180,0091_ps_s02_180_bear_10_n02134084_23061.png
subject-02,1,92,1.09883499145508,bird,bird,30,0092_ps_s02_30_bird_10_n01843065_2664.png
subject-02,1,93,0.742723941802979,cat,cat,120,0093_ps_s02_120_cat_10_n02123045_8336.png
subject-02,1,94,0.882598876953125,bird,knife,90,0094_ps_s02_90_knife_10_n03041632_21859.png
subject-02,1,95,0.958329916000366,truck,truck,90,0095_ps_s02_90_truck_10_n03417042_1978.png
subject-02,1,96,0.656527996063232,cat,dog,90,0096_ps_s02_90_dog_10_n02085782_4522.png
subject-02,1,97,1.09203600883484,bear,chair,30,0097_ps_s02_30_chair_10_n04099969_8401.png
subject-02,1,98,0.90565013885498,bicycle,bicycle,60,0098_ps_s02_60_bicycle_10_n03792782_24591.png
subject-02,1,99,0.699486017227173,cat,cat,90,0099_ps_s02_90_cat_10_n02124075_81.png
subject-02,1,100,0.875362873077393,car,car,150,0100_ps_s02_150_car_10_n03100240_4594.png
subject-02,1,101,0.759142160415649,cat,cat,0,0101_ps_s02_0_cat_10_n02123394_6517.png
subject-02,1,102,0.766916036605835,cat,cat,60,0102_ps_s02_60_cat_10_n02123159_3201.png
subject-02,1,103,0.837055921554565,bear,chair,150,0103_ps_s02_150_chair_10_n04099969_26462.png
subject-02,1,104,1.08448386192322,airplane,airplane,0,0104_ps_s02_0_airplane_10_n02690373_4110.png
subject-02,1,105,0.948340892791748,knife,knife,90,0105_ps_s02_90_knife_10_n03041632_3171.png
subject-02,1,106,1.16052293777466,airplane,airplane,60,0106_ps_s02_60_airplane_10_n02690373_4728.png
subject-02,1,107,0.721903085708618,cat,cat,60,0107_ps_s02_60_cat_10_n02123045_7483.png
subject-02,1,108,0.829888820648193,bird,bird,90,0108_ps_s02_90_bird_10_n02027492_211.png
subject-02,1,109,0.707863092422485,cat,cat,30,0109_ps_s02_30_cat_10_n02123045_11826.png
subject-02,1,110,0.825586080551147,boat,oven,120,0110_ps_s02_120_oven_10_n04111531_9344.png
subject-02,1,111,1.20718383789062,elephant,elephant,90,0111_ps_s02_90_elephant_10_n02504013_2233.png
subject-02,1,112,1.17114090919495,elephant,elephant,0,0112_ps_s02_0_elephant_10_n02504013_20805.png
subject-02,1,113,1.07877898216248,elephant,elephant,0,0113_ps_s02_0_elephant_10_n02504458_4316.png
subject-02,1,114,0.802678108215332,bear,keyboard,150,0114_ps_s02_150_keyboard_10_n03085013_20570.png
subject-02,1,115,0.926512956619263,truck,truck,30,0115_ps_s02_30_truck_10_n03417042_14861.png
subject-02,1,116,0.814321994781494,airplane,airplane,60,0116_ps_s02_60_airplane_10_n02690373_243.png
subject-02,1,117,1.16607689857483,knife,bird,30,0117_ps_s02_30_bird_10_n02056570_4808.png
subject-02,1,118,0.729813098907471,cat,cat,0,0118_ps_s02_0_cat_10_n02123045_13354.png
subject-02,1,119,1.02366018295288,keyboard,keyboard,90,0119_ps_s02_90_keyboard_10_n03085013_1797.png
subject-02,1,120,1.12950992584229,cat,bottle,90,0120_ps_s02_90_bottle_10_n03937543_4512.png
subject-02,1,121,0.895394802093506,bird,elephant,150,0121_ps_s02_150_elephant_10_n02504013_6659.png
subject-02,1,122,0.759188890457153,bear,boat,180,0122_ps_s02_180_boat_10_n03662601_8065.png
subject-02,1,123,1.0709400177002,dog,dog,30,0123_ps_s02_30_dog_10_n02097047_4189.png
subject-02,1,124,0.69687294960022,bicycle,bicycle,90,0124_ps_s02_90_bicycle_10_n02835271_13180.png
subject-02,1,125,0.876538038253784,keyboard,keyboard,150,0125_ps_s02_150_keyboard_10_n03085013_4999.png
subject-02,1,126,0.904294967651367,boat,elephant,150,0126_ps_s02_150_elephant_10_n02504458_7827.png
subject-02,1,127,1.28617596626282,bear,bottle,90,0127_ps_s02_90_bottle_10_n04579145_3149.png
subject-02,1,128,0.941914081573486,elephant,elephant,90,0128_ps_s02_90_elephant_10_n02504013_15805.png
subject-02,1,129,0.705996036529541,bicycle,bicycle,60,0129_ps_s02_60_bicycle_10_n02835271_24639.png
subject-02,1,130,0.965544939041138,airplane,airplane,0,0130_ps_s02_0_airplane_10_n02690373_1952.png
subject-02,1,131,1.50005292892456,airplane,airplane,60,0131_ps_s02_60_airplane_10_n02690373_10203.png
subject-02,1,132,0.849543809890747,keyboard,keyboard,30,0132_ps_s02_30_keyboard_10_n03085013_25066.png
subject-02,1,133,0.77525782585144,airplane,airplane,90,0133_ps_s02_90_airplane_10_n02690373_1696.png
subject-02,1,134,1.50006604194641,clock,keyboard,90,0134_ps_s02_90_keyboard_10_n04505470_4454.png
subject-02,1,135,1.40688681602478,bicycle,car,150,0135_ps_s02_150_car_10_n02814533_87140.png
subject-02,1,136,0.902812004089355,car,car,0,0136_ps_s02_0_car_10_n03100240_4343.png
subject-02,1,137,1.01839208602905,boat,truck,60,0137_ps_s02_60_truck_10_n04467665_67115.png
subject-02,1,138,0.886294841766357,bear,airplane,180,0138_ps_s02_180_airplane_10_n02690373_8382.png
subject-02,1,139,1.1619861125946,bottle,bottle,90,0139_ps_s02_90_bottle_10_n04579145_4594.png
subject-02,1,140,1.07788681983948,bird,bicycle,180,0140_ps_s02_180_bicycle_10_n03792782_3334.png
subject-02,1,141,1.20759415626526,bear,bird,120,0141_ps_s02_120_bird_10_n01798484_12863.png
subject-02,1,142,0.923338890075684,bicycle,bear,180,0142_ps_s02_180_bear_10_n02132136_20883.png
subject-02,1,143,1.09510803222656,bottle,knife,180,0143_ps_s02_180_knife_10_n03041632_20697.png
subject-02,1,144,0.911221981048584,bird,bird,30,0144_ps_s02_30_bird_10_n02007558_4009.png
subject-02,1,145,0.664726972579956,boat,truck,180,0145_ps_s02_180_truck_10_n04467665_23173.png
subject-02,1,146,0.818655014038086,airplane,airplane,90,0146_ps_s02_90_airplane_10_n02690373_17937.png
subject-02,1,147,0.776458978652954,keyboard,keyboard,60,0147_ps_s02_60_keyboard_10_n04505470_2597.png
subject-02,1,148,1.11635494232178,truck,car,180,0148_ps_s02_180_car_10_n04285008_9080.png
subject-02,1,149,0.768064975738525,dog,dog,90,0149_ps_s02_90_dog_10_n02101388_11601.png
subject-02,1,150,1.12573194503784,elephant,elephant,120,0150_ps_s02_120_elephant_10_n02504013_22557.png
subject-02,1,151,0.633756875991821,bicycle,bicycle,30,0151_ps_s02_30_bicycle_10_n02835271_807.png
subject-02,1,152,1.1496570110321,cat,keyboard,180,0152_ps_s02_180_keyboard_10_n03085013_24392.png
subject-02,1,153,0.791735172271729,bear,dog,180,0153_ps_s02_180_dog_10_n02093991_2725.png
subject-02,1,154,0.887227058410645,knife,knife,30,0154_ps_s02_30_knife_10_n03041632_15444.png
subject-02,1,155,0.978840112686157,oven,chair,150,0155_ps_s02_150_chair_10_n04429376_16002.png
subject-02,1,156,0.694674015045166,cat,cat,30,0156_ps_s02_30_cat_10_n02123045_7255.png
subject-02,1,157,1.01466298103333,bird,bird,60,0157_ps_s02_60_bird_10_n01592084_5833.png
subject-02,1,158,0.800425052642822,keyboard,keyboard,0,0158_ps_s02_0_keyboard_10_n04505470_3306.png
subject-02,1,159,0.82863187789917,dog,dog,30,0159_ps_s02_30_dog_10_n02090622_1485.png
subject-02,1,160,0.950111865997314,bottle,bottle,60,0160_ps_s02_60_bottle_10_n02823428_4108.png
subject-02,1,161,0.926638126373291,knife,knife,0,0161_ps_s02_0_knife_10_n03041632_13225.png
subject-02,1,162,0.864339828491211,chair,chair,0,0162_ps_s02_0_chair_10_n02791124_1049.png
subject-02,1,163,1.04655885696411,chair,chair,0,0163_ps_s02_0_chair_10_n02791124_16885.png
subject-02,1,164,0.817984104156494,airplane,airplane,120,0164_ps_s02_120_airplane_10_n02690373_10309.png
subject-02,1,165,1.13374805450439,bear,car,180,0165_ps_s02_180_car_10_n04285008_15213.png
subject-02,1,166,0.707576990127563,chair,chair,90,0166_ps_s02_90_chair_10_n04099969_36004.png
subject-02,1,167,0.743499994277954,bear,bottle,180,0167_ps_s02_180_bottle_10_n04557648_3637.png
subject-02,1,168,0.74962306022644,keyboard,keyboard,30,0168_ps_s02_30_keyboard_10_n03085013_7520.png
subject-02,1,169,1.23911809921265,airplane,bear,180,0169_ps_s02_180_bear_10_n02132136_110.png
subject-02,1,170,0.928863048553467,bicycle,bicycle,60,0170_ps_s02_60_bicycle_10_n03792782_17673.png
subject-02,1,171,0.938817977905273,boat,keyboard,180,0171_ps_s02_180_keyboard_10_n03085013_4298.png
subject-02,1,172,1.02254891395569,cat,keyboard,120,0172_ps_s02_120_keyboard_10_n04505470_8386.png
subject-02,1,173,0.820373058319092,bicycle,bicycle,30,0173_ps_s02_30_bicycle_10_n02835271_12188.png
subject-02,1,174,0.702046155929565,boat,boat,30,0174_ps_s02_30_boat_10_n02951358_16837.png
subject-02,1,175,0.986058950424194,knife,knife,120,0175_ps_s02_120_knife_10_n03041632_51581.png
subject-02,1,176,0.790134906768799,boat,boat,90,0176_ps_s02_90_boat_10_n04273569_18037.png
subject-02,1,177,0.803828001022339,keyboard,keyboard,120,0177_ps_s02_120_keyboard_10_n04505470_4385.png
subject-02,1,178,1.10336112976074,chair,chair,60,0178_ps_s02_60_chair_10_n02791124_13057.png
subject-02,1,179,0.797298908233643,dog,dog,0,0179_ps_s02_0_dog_10_n02095314_261.png
subject-02,1,180,0.762890100479126,bear,bear,60,0180_ps_s02_60_bear_10_n02134084_15118.png
subject-02,1,181,0.648802995681763,boat,boat,60,0181_ps_s02_60_boat_10_n03662601_9590.png
subject-02,1,182,0.760549068450928,bottle,bottle,30,0182_ps_s02_30_bottle_10_n04560804_5769.png
subject-02,1,183,1.12853384017944,bicycle,bottle,120,0183_ps_s02_120_bottle_10_n02823428_3111.png
subject-02,1,184,1.25840592384338,dog,bear,60,0184_ps_s02_60_bear_10_n02134084_21921.png
subject-02,1,185,1.28599286079407,bird,dog,150,0185_ps_s02_150_dog_10_n02096585_271.png
subject-02,1,186,1.50010299682617,airplane,keyboard,180,0186_ps_s02_180_keyboard_10_n04505470_5062.png
subject-02,1,187,0.895512104034424,car,car,90,0187_ps_s02_90_car_10_n04285008_17056.png
subject-02,1,188,0.941869974136353,oven,chair,90,0188_ps_s02_90_chair_10_n02791124_6550.png
subject-02,1,189,1.26534605026245,bear,oven,90,0189_ps_s02_90_oven_10_n04111531_5965.png
subject-02,1,190,0.59944486618042,clock,clock,90,0190_ps_s02_90_clock_10_n02708093_6850.png
subject-02,1,191,1.20702910423279,elephant,dog,90,0191_ps_s02_90_dog_10_n02100877_2341.png
subject-02,1,192,0.808547019958496,boat,car,180,0192_ps_s02_180_car_10_n02814533_8490.png
subject-02,1,193,0.618918180465698,cat,cat,0,0193_ps_s02_0_cat_10_n02123597_2232.png
subject-02,1,194,1.05234313011169,car,bear,180,0194_ps_s02_180_bear_10_n02133161_2316.png
subject-02,1,195,1.02431893348694,boat,car,150,0195_ps_s02_150_car_10_n04285008_7511.png
subject-02,1,196,0.885972023010254,boat,boat,30,0196_ps_s02_30_boat_10_n04273569_15583.png
subject-02,1,197,0.773812055587769,boat,boat,0,0197_ps_s02_0_boat_10_n04273569_15322.png
subject-02,1,198,0.829732894897461,bicycle,bicycle,0,0198_ps_s02_0_bicycle_10_n02835271_7256.png
subject-02,1,199,0.783308029174805,boat,boat,90,0199_ps_s02_90_boat_10_n02951358_14341.png
subject-02,1,200,0.883428812026978,bear,dog,60,0200_ps_s02_60_dog_10_n02104365_1262.png
subject-02,1,201,0.971259117126465,airplane,truck,180,0201_ps_s02_180_truck_10_n03417042_6780.png
subject-02,1,202,1.00676703453064,clock,clock,0,0202_ps_s02_0_clock_10_n02708093_1360.png
subject-02,1,203,0.94461989402771,airplane,airplane,60,0203_ps_s02_60_airplane_10_n02690373_10232.png
subject-02,1,204,1.27042388916016,truck,boat,150,0204_ps_s02_150_boat_10_n03344393_4944.png
subject-02,1,205,1.14441990852356,bear,cat,90,0205_ps_s02_90_cat_10_n02125311_36331.png
subject-02,1,206,1.16047406196594,chair,oven,30,0206_ps_s02_30_oven_10_n04111531_6903.png
subject-02,1,207,1.41210699081421,knife,keyboard,180,0207_ps_s02_180_keyboard_10_n03085013_23014.png
subject-02,1,208,1.4478440284729,bear,bear,180,0208_ps_s02_180_bear_10_n02134418_25040.png
subject-02,1,209,1.46962308883667,oven,elephant,180,0209_ps_s02_180_elephant_10_n02504458_4564.png
subject-02,1,210,1.03735399246216,bicycle,boat,150,0210_ps_s02_150_boat_10_n02951358_11586.png
subject-02,1,211,1.5000741481781,clock,bottle,90,0211_ps_s02_90_bottle_10_n04591713_2014.png
subject-02,1,212,0.839216947555542,keyboard,keyboard,0,0212_ps_s02_0_keyboard_10_n03085013_2166.png
subject-02,1,213,1.16273403167725,boat,truck,180,0213_ps_s02_180_truck_10_n04467665_39477.png
subject-02,1,214,1.50009989738464,cat,keyboard,120,0214_ps_s02_120_keyboard_10_n03085013_18763.png
subject-02,1,215,1.32653498649597,bird,cat,180,0215_ps_s02_180_cat_10_n02123394_7859.png
subject-02,1,216,1.42653894424438,bird,bottle,150,0216_ps_s02_150_bottle_10_n02823428_8543.png
subject-02,1,217,1.50010108947754,bear,bear,120,0217_ps_s02_120_bear_10_n02134418_14451.png
subject-02,1,218,1.06994795799255,elephant,clock,150,0218_ps_s02_150_clock_10_n04548280_23221.png
subject-02,1,219,1.10775709152222,elephant,oven,60,0219_ps_s02_60_oven_10_n04111531_13542.png
subject-02,1,220,0.99584698677063,car,car,120,0220_ps_s02_120_car_10_n03100240_17523.png
subject-02,1,221,0.737189054489136,cat,cat,60,0221_ps_s02_60_cat_10_n02123597_14647.png
subject-02,1,222,1.30715990066528,bottle,oven,180,0222_ps_s02_180_oven_10_n04111531_6756.png
subject-02,1,223,1.35287880897522,oven,knife,60,0223_ps_s02_60_knife_10_n03041632_105581.png
subject-02,1,224,1.06086611747742,bear,bird,150,0224_ps_s02_150_bird_10_n01828970_22.png
subject-02,1,225,1.50010704994202,elephant,bear,150,0225_ps_s02_150_bear_10_n02134084_20261.png
subject-02,1,226,1.3982470035553,elephant,knife,60,0226_ps_s02_60_knife_10_n03041632_87380.png
subject-02,1,227,1.17605018615723,bird,bird,60,0227_ps_s02_60_bird_10_n01622779_13896.png
subject-02,1,228,0.746047019958496,bicycle,bicycle,150,0228_ps_s02_150_bicycle_10_n02835271_783.png
subject-02,1,229,0.935847043991089,bicycle,bicycle,90,0229_ps_s02_90_bicycle_10_n03792782_17503.png
subject-02,1,230,1.09746408462524,bear,bicycle,180,0230_ps_s02_180_bicycle_10_n02835271_1653.png
subject-02,1,231,1.12547898292542,cat,elephant,150,0231_ps_s02_150_elephant_10_n02504013_10920.png
subject-02,1,232,1.0491931438446,oven,dog,180,0232_ps_s02_180_dog_10_n02110063_869.png
subject-02,1,233,0.947017908096313,oven,oven,30,0233_ps_s02_30_oven_10_n04111531_21733.png
subject-02,1,234,0.838859796524048,airplane,airplane,90,0234_ps_s02_90_airplane_10_n02690373_21731.png
subject-02,1,235,1.06885409355164,boat,cat,150,0235_ps_s02_150_cat_10_n02124075_14020.png
subject-02,1,236,0.742460012435913,oven,oven,60,0236_ps_s02_60_oven_10_n04111531_249.png
subject-02,1,237,1.15810513496399,truck,truck,0,0237_ps_s02_0_truck_10_n03417042_19650.png
subject-02,1,238,1.42016291618347,cat,bottle,120,0238_ps_s02_120_bottle_10_n04560804_15162.png
subject-02,1,239,0.995772123336792,chair,chair,60,0239_ps_s02_60_chair_10_n02791124_6237.png
subject-02,1,240,1.23564505577087,airplane,cat,150,0240_ps_s02_150_cat_10_n02123159_3524.png
subject-02,1,241,0.857329845428467,car,car,0,0241_ps_s02_0_car_10_n02814533_76388.png
subject-02,1,242,0.775198936462402,airplane,airplane,30,0242_ps_s02_30_airplane_10_n02690373_19107.png
subject-02,1,243,0.844930171966553,boat,truck,150,0243_ps_s02_150_truck_10_n03796401_7261.png
subject-02,1,244,0.890626907348633,elephant,elephant,60,0244_ps_s02_60_elephant_10_n02504013_10389.png
subject-02,1,245,0.832337856292725,car,car,90,0245_ps_s02_90_car_10_n02814533_84296.png
subject-02,1,246,0.842375993728638,car,car,90,0246_ps_s02_90_car_10_n02814533_52627.png
subject-02,1,247,0.950109958648682,bear,bicycle,180,0247_ps_s02_180_bicycle_10_n02835271_4789.png
subject-02,1,248,1.22406506538391,bird,bird,90,0248_ps_s02_90_bird_10_n01819313_2770.png
subject-02,1,249,1.49417591094971,boat,boat,90,0249_ps_s02_90_boat_10_n03662601_9069.png
subject-02,1,250,0.917671918869019,bicycle,bicycle,0,0250_ps_s02_0_bicycle_10_n02835271_759.png
subject-02,1,251,0.971354961395264,knife,dog,150,0251_ps_s02_150_dog_10_n02088094_13992.png
subject-02,1,252,0.971251010894775,clock,clock,30,0252_ps_s02_30_clock_10_n02708093_899.png
subject-02,1,253,0.756962060928345,clock,clock,60,0253_ps_s02_60_clock_10_n03196217_7414.png
subject-02,1,254,1.10682106018066,bicycle,keyboard,150,0254_ps_s02_150_keyboard_10_n04505470_1076.png
subject-02,1,255,1.50002408027649,boat,airplane,90,0255_ps_s02_90_airplane_10_n02690373_3147.png
subject-02,1,256,0.922404050827026,cat,cat,60,0256_ps_s02_60_cat_10_n02125311_17002.png
subject-02,1,257,1.2022659778595,boat,keyboard,150,0257_ps_s02_150_keyboard_10_n03085013_17884.png
subject-02,1,258,1.22412610054016,bicycle,bottle,150,0258_ps_s02_150_bottle_10_n03937543_793.png
subject-02,1,259,1.22800183296204,oven,oven,0,0259_ps_s02_0_oven_10_n04111531_17576.png
subject-02,1,260,1.25410914421082,airplane,dog,180,0260_ps_s02_180_dog_10_n02108000_5623.png
subject-02,1,261,1.16940307617188,dog,elephant,120,0261_ps_s02_120_elephant_10_n02504458_1698.png
subject-02,1,262,0.865669965744019,elephant,elephant,60,0262_ps_s02_60_elephant_10_n02504013_8905.png
subject-02,1,263,0.777248859405518,cat,cat,120,0263_ps_s02_120_cat_10_n02123045_567.png
subject-02,1,264,0.955064058303833,boat,boat,60,0264_ps_s02_60_boat_10_n03344393_3499.png
subject-02,1,265,0.764815092086792,clock,clock,30,0265_ps_s02_30_clock_10_n03196217_8034.png
subject-02,1,266,1.06899404525757,dog,dog,90,0266_ps_s02_90_dog_10_n02110063_16680.png
subject-02,1,267,0.836396932601929,car,bear,120,0267_ps_s02_120_bear_10_n02132136_3616.png
subject-02,1,268,1.17615604400635,bear,bottle,180,0268_ps_s02_180_bottle_10_n03983396_5532.png
subject-02,1,269,0.907964944839478,bicycle,oven,150,0269_ps_s02_150_oven_10_n04111531_13486.png
subject-02,1,270,1.34802794456482,knife,clock,180,0270_ps_s02_180_clock_10_n04548280_2334.png
subject-02,1,271,1.09777212142944,truck,bicycle,150,0271_ps_s02_150_bicycle_10_n03792782_4544.png
subject-02,1,272,0.833448171615601,bicycle,bicycle,30,0272_ps_s02_30_bicycle_10_n03792782_8374.png
subject-02,1,273,1.25317287445068,chair,chair,60,0273_ps_s02_60_chair_10_n04429376_6141.png
subject-02,1,274,1.2350389957428,truck,truck,90,0274_ps_s02_90_truck_10_n03796401_6772.png
subject-02,1,275,0.6649329662323,clock,clock,90,0275_ps_s02_90_clock_10_n04548280_764.png
subject-02,1,276,1.12263011932373,boat,bird,180,0276_ps_s02_180_bird_10_n01824575_3556.png
subject-02,1,277,1.05248308181763,car,dog,60,0277_ps_s02_60_dog_10_n02097658_759.png
subject-02,1,278,1.43236398696899,boat,keyboard,120,0278_ps_s02_120_keyboard_10_n04505470_1516.png
subject-02,1,279,0.73851490020752,cat,cat,0,0279_ps_s02_0_cat_10_n02123159_6206.png
subject-02,1,280,0.826276063919067,bottle,bottle,0,0280_ps_s02_0_bottle_10_n02823428_2481.png
subject-02,1,281,1.00576710700989,bird,clock,150,0281_ps_s02_150_clock_10_n03196217_1153.png
subject-02,1,282,0.953451871871948,chair,chair,60,0282_ps_s02_60_chair_10_n02791124_13469.png
subject-02,1,283,1.25329685211182,chair,elephant,30,0283_ps_s02_30_elephant_10_n02504013_7010.png
subject-02,1,284,0.835326910018921,boat,boat,120,0284_ps_s02_120_boat_10_n03662601_7885.png
subject-02,1,285,1.04311895370483,bear,cat,180,0285_ps_s02_180_cat_10_n02123394_2350.png
subject-02,1,286,0.995154857635498,truck,truck,90,0286_ps_s02_90_truck_10_n04467665_29260.png
subject-02,1,287,0.682621002197266,bottle,knife,150,0287_ps_s02_150_knife_10_n03041632_5427.png
subject-02,1,288,1.28643488883972,bicycle,bird,120,0288_ps_s02_120_bird_10_n02009229_5172.png
subject-02,1,289,1.04834699630737,truck,truck,60,0289_ps_s02_60_truck_10_n03417042_18374.png
subject-02,1,290,0.662067174911499,boat,boat,60,0290_ps_s02_60_boat_10_n04612504_14699.png
subject-02,1,291,0.891776084899902,keyboard,keyboard,0,0291_ps_s02_0_keyboard_10_n04505470_9514.png
subject-02,1,292,1.18780493736267,boat,boat,150,0292_ps_s02_150_boat_10_n03662601_18953.png
subject-02,1,293,1.35950088500977,knife,cat,120,0293_ps_s02_120_cat_10_n02123597_7297.png
subject-02,1,294,0.773514986038208,bottle,car,120,0294_ps_s02_120_car_10_n04285008_13247.png
subject-02,1,295,1.1913161277771,bird,bird,150,0295_ps_s02_150_bird_10_n01795545_17324.png
subject-02,1,296,1.46291899681091,bear,oven,180,0296_ps_s02_180_oven_10_n04111531_9026.png
subject-02,1,297,1.25858092308044,keyboard,bird,150,0297_ps_s02_150_bird_10_n02018207_69.png
subject-02,1,298,1.02868509292603,bear,elephant,30,0298_ps_s02_30_elephant_10_n02504013_4386.png
subject-02,1,299,1.15051102638245,cat,knife,180,0299_ps_s02_180_knife_10_n03041632_24277.png
subject-02,1,300,1.14619398117065,car,bottle,90,0300_ps_s02_90_bottle_10_n04557648_11847.png
subject-02,1,301,0.73816704750061,oven,oven,30,0301_ps_s02_30_oven_10_n04111531_22834.png
subject-02,1,302,0.88581395149231,bear,bear,0,0302_ps_s02_0_bear_10_n02133161_5292.png
subject-02,1,303,0.927558898925781,cat,knife,120,0303_ps_s02_120_knife_10_n03041632_14546.png
subject-02,1,304,1.18948698043823,airplane,oven,120,0304_ps_s02_120_oven_10_n04111531_4322.png
subject-02,1,305,1.00759816169739,airplane,airplane,90,0305_ps_s02_90_airplane_10_n02690373_19118.png
subject-02,1,306,1.02105903625488,truck,clock,60,0306_ps_s02_60_clock_10_n02708093_7973.png
subject-02,1,307,0.930814027786255,boat,boat,180,0307_ps_s02_180_boat_10_n02951358_2999.png
subject-02,1,308,1.07677292823792,oven,clock,120,0308_ps_s02_120_clock_10_n04548280_3968.png
subject-02,1,309,0.984443187713623,elephant,elephant,90,0309_ps_s02_90_elephant_10_n02504458_3629.png
subject-02,1,310,0.722393989562988,boat,boat,120,0310_ps_s02_120_boat_10_n04612504_15256.png
subject-02,1,311,1.29832911491394,bear,cat,180,0311_ps_s02_180_cat_10_n02123394_6362.png
subject-02,1,312,0.948130130767822,truck,truck,0,0312_ps_s02_0_truck_10_n03417042_28794.png
subject-02,1,313,1.32803297042847,boat,car,180,0313_ps_s02_180_car_10_n03100240_18276.png
subject-02,1,314,1.50009298324585,clock,keyboard,120,0314_ps_s02_120_keyboard_10_n04505470_1157.png
subject-02,1,315,0.75727915763855,boat,boat,60,0315_ps_s02_60_boat_10_n02951358_1911.png
subject-02,1,316,1.09720683097839,boat,boat,180,0316_ps_s02_180_boat_10_n03344393_7114.png
subject-02,1,317,1.25891613960266,dog,dog,60,0317_ps_s02_60_dog_10_n02099429_3814.png
subject-02,1,318,0.974790096282959,bird,bear,30,0318_ps_s02_30_bear_10_n02133161_545.png
subject-02,1,319,1.002925157547,car,car,30,0319_ps_s02_30_car_10_n04285008_3688.png
subject-02,1,320,0.898318767547607,chair,chair,60,0320_ps_s02_60_chair_10_n04429376_10449.png
subject-02,1,321,0.781553030014038,boat,boat,180,0321_ps_s02_180_boat_10_n03662601_15915.png
subject-02,1,322,1.09713101387024,bear,bear,90,0322_ps_s02_90_bear_10_n02134084_4442.png
subject-02,1,323,1.07471084594727,dog,dog,60,0323_ps_s02_60_dog_10_n02088094_1145.png
subject-02,1,324,1.0966169834137,bird,bird,30,0324_ps_s02_30_bird_10_n01860187_5008.png
subject-02,1,325,0.934312105178833,keyboard,keyboard,60,0325_ps_s02_60_keyboard_10_n04505470_4479.png
subject-02,1,326,1.50009799003601,keyboard,keyboard,30,0326_ps_s02_30_keyboard_10_n03085013_19471.png
subject-02,1,327,0.70650315284729,bicycle,bicycle,90,0327_ps_s02_90_bicycle_10_n02835271_22739.png
subject-02,1,328,1.08601307868958,airplane,elephant,180,0328_ps_s02_180_elephant_10_n02504013_5021.png
subject-02,1,329,1.16152787208557,bicycle,oven,150,0329_ps_s02_150_oven_10_n04111531_458.png
subject-02,1,330,0.951429843902588,bear,cat,150,0330_ps_s02_150_cat_10_n02125311_20241.png
subject-02,1,331,0.93327808380127,airplane,airplane,120,0331_ps_s02_120_airplane_10_n02690373_3709.png
subject-02,1,332,1.123046875,cat,bear,90,0332_ps_s02_90_bear_10_n02134418_270.png
subject-02,1,333,1.28907418251038,airplane,clock,180,0333_ps_s02_180_clock_10_n03196217_4492.png
subject-02,1,334,1.38488984107971,bear,bear,30,0334_ps_s02_30_bear_10_n02133161_6861.png
subject-02,1,335,1.05462503433228,elephant,elephant,30,0335_ps_s02_30_elephant_10_n02504013_8308.png
subject-02,1,336,1.17461609840393,airplane,airplane,60,0336_ps_s02_60_airplane_10_n02690373_13078.png
subject-02,1,337,0.984222173690796,boat,dog,120,0337_ps_s02_120_dog_10_n02092002_9876.png
subject-02,1,338,1.5001368522644,truck,truck,150,0338_ps_s02_150_truck_10_n03417042_6250.png
subject-02,1,339,1.26403594017029,boat,chair,120,0339_ps_s02_120_chair_10_n03376595_8302.png
subject-02,1,340,0.669631958007812,cat,bird,120,0340_ps_s02_120_bird_10_n01616318_4652.png
subject-02,1,341,0.867457866668701,bird,elephant,150,0341_ps_s02_150_elephant_10_n02504458_5470.png
subject-02,1,342,1.17727112770081,elephant,elephant,60,0342_ps_s02_60_elephant_10_n02504013_4229.png
subject-02,1,343,1.18322396278381,bird,bird,0,0343_ps_s02_0_bird_10_n01537544_1943.png
subject-02,1,344,0.958975076675415,bicycle,bicycle,120,0344_ps_s02_120_bicycle_10_n02835271_12346.png
subject-02,1,345,0.704690933227539,boat,keyboard,150,0345_ps_s02_150_keyboard_10_n03085013_20730.png
subject-02,1,346,0.818493127822876,bear,bird,120,0346_ps_s02_120_bird_10_n01614925_17980.png
subject-02,1,347,0.78826904296875,cat,bicycle,150,0347_ps_s02_150_bicycle_10_n03792782_27445.png
subject-02,1,348,0.778239965438843,boat,car,180,0348_ps_s02_180_car_10_n03100240_6750.png
subject-02,1,349,0.697806835174561,clock,truck,180,0349_ps_s02_180_truck_10_n03417042_6809.png
subject-02,1,350,1.02368903160095,bear,bear,0,0350_ps_s02_0_bear_10_n02132136_6967.png
subject-02,1,351,0.783852100372314,bear,bear,0,0351_ps_s02_0_bear_10_n02134084_5314.png
subject-02,1,352,0.667277097702026,clock,clock,30,0352_ps_s02_30_clock_10_n04548280_4390.png
subject-02,1,353,1.03334307670593,boat,bottle,150,0353_ps_s02_150_bottle_10_n03937543_71.png
subject-02,1,354,1.3150839805603,cat,boat,90,0354_ps_s02_90_boat_10_n04273569_13972.png
subject-02,1,355,0.779355049133301,airplane,airplane,30,0355_ps_s02_30_airplane_10_n02690373_1950.png
subject-02,1,356,1.40276479721069,bear,bicycle,120,0356_ps_s02_120_bicycle_10_n02835271_19213.png
subject-02,1,357,0.94849705696106,bear,bear,30,0357_ps_s02_30_bear_10_n02134418_5664.png
subject-02,1,358,0.758599042892456,bird,truck,150,0358_ps_s02_150_truck_10_n03417042_1279.png
subject-02,1,359,0.953959941864014,elephant,elephant,60,0359_ps_s02_60_elephant_10_n02504458_3614.png
subject-02,1,360,0.635839939117432,clock,clock,0,0360_ps_s02_0_clock_10_n04548280_487.png
subject-02,1,361,1.47197198867798,car,car,150,0361_ps_s02_150_car_10_n04285008_13076.png
subject-02,1,362,0.949492216110229,car,car,60,0362_ps_s02_60_car_10_n04285008_10755.png
subject-02,1,363,1.06346201896667,dog,dog,90,0363_ps_s02_90_dog_10_n02091244_2626.png
subject-02,1,364,1.22914505004883,bicycle,bird,180,0364_ps_s02_180_bird_10_n02011460_7629.png
subject-02,1,365,0.958786964416504,elephant,elephant,90,0365_ps_s02_90_elephant_10_n02504013_3081.png
subject-02,1,366,0.814736127853394,cat,cat,0,0366_ps_s02_0_cat_10_n02125311_19769.png
subject-02,1,367,1.16468214988708,bird,bicycle,150,0367_ps_s02_150_bicycle_10_n02835271_10770.png
subject-02,1,368,0.740425825119019,airplane,airplane,0,0368_ps_s02_0_airplane_10_n02690373_4144.png
subject-02,1,369,0.888154029846191,cat,bird,150,0369_ps_s02_150_bird_10_n02002556_2917.png
subject-02,1,370,1.16783618927002,dog,chair,150,0370_ps_s02_150_chair_10_n04429376_20628.png
subject-02,1,371,0.839953184127808,bottle,bottle,90,0371_ps_s02_90_bottle_10_n02823428_1602.png
subject-02,1,372,1.40748906135559,truck,bottle,150,0372_ps_s02_150_bottle_10_n03937543_964.png
subject-02,1,373,0.753570079803467,oven,oven,90,0373_ps_s02_90_oven_10_n04111531_6346.png
subject-02,1,374,1.13911509513855,clock,chair,180,0374_ps_s02_180_chair_10_n04099969_6691.png
subject-02,1,375,0.979278087615967,cat,bicycle,150,0375_ps_s02_150_bicycle_10_n02835271_3529.png
subject-02,1,376,1.16481900215149,elephant,oven,180,0376_ps_s02_180_oven_10_n04111531_14611.png
subject-02,1,377,0.842520952224731,bear,bear,30,0377_ps_s02_30_bear_10_n02133161_1560.png
subject-02,1,378,1.00683903694153,chair,chair,30,0378_ps_s02_30_chair_10_n04099969_52474.png
subject-02,1,379,0.924731969833374,boat,truck,120,0379_ps_s02_120_truck_10_n03796401_25021.png
subject-02,1,380,0.899886846542358,chair,chair,90,0380_ps_s02_90_chair_10_n03376595_8490.png
subject-02,1,381,0.795749187469482,bottle,bottle,0,0381_ps_s02_0_bottle_10_n03937543_3253.png
subject-02,1,382,1.10581302642822,bird,bicycle,180,0382_ps_s02_180_bicycle_10_n03792782_50673.png
subject-02,1,383,1.13952398300171,chair,knife,30,0383_ps_s02_30_knife_10_n03041632_32208.png
subject-02,1,384,0.713317155838013,bicycle,bicycle,30,0384_ps_s02_30_bicycle_10_n03792782_42927.png
subject-02,1,385,0.665081024169922,bottle,keyboard,60,0385_ps_s02_60_keyboard_10_n03085013_30073.png
subject-02,1,386,1.01105499267578,bottle,keyboard,180,0386_ps_s02_180_keyboard_10_n03085013_23254.png
subject-02,1,387,0.796756029129028,bottle,truck,150,0387_ps_s02_150_truck_10_n03417042_17911.png
subject-02,1,388,1.50008201599121,bicycle,bird,180,0388_ps_s02_180_bird_10_n02013706_3032.png
subject-02,1,389,0.996299028396606,elephant,elephant,30,0389_ps_s02_30_elephant_10_n02504458_9835.png
subject-02,1,390,1.38405108451843,elephant,bird,120,0390_ps_s02_120_bird_10_n01796340_12914.png
subject-02,1,391,0.6319580078125,cat,cat,90,0391_ps_s02_90_cat_10_n02123394_6311.png
subject-02,1,392,0.887923002243042,cat,cat,0,0392_ps_s02_0_cat_10_n02123394_523.png
subject-02,1,393,1.21167397499084,bicycle,cat,180,0393_ps_s02_180_cat_10_n02124075_8470.png
subject-02,1,394,0.965512037277222,bicycle,bicycle,60,0394_ps_s02_60_bicycle_10_n02835271_21185.png
subject-02,1,395,1.27719497680664,bear,airplane,150,0395_ps_s02_150_airplane_10_n02690373_1751.png
subject-02,1,396,0.869029998779297,oven,oven,0,0396_ps_s02_0_oven_10_n04111531_2342.png
subject-02,1,397,1.06921696662903,bottle,boat,30,0397_ps_s02_30_boat_10_n02951358_12664.png
subject-02,1,398,0.992902994155884,elephant,elephant,60,0398_ps_s02_60_elephant_10_n02504458_9516.png
subject-02,1,399,0.962584972381592,elephant,elephant,30,0399_ps_s02_30_elephant_10_n02504458_10332.png
subject-02,1,400,1.23436307907104,truck,truck,30,0400_ps_s02_30_truck_10_n03417042_6685.png
subject-02,1,401,1.03181099891663,truck,truck,30,0401_ps_s02_30_truck_10_n04467665_7329.png
subject-02,1,402,1.01781892776489,bicycle,bicycle,30,0402_ps_s02_30_bicycle_10_n02835271_11842.png
subject-02,1,403,0.997613906860352,cat,cat,60,0403_ps_s02_60_cat_10_n02125311_54015.png
subject-02,1,404,0.971375942230225,boat,oven,120,0404_ps_s02_120_oven_10_n04111531_1004.png
subject-02,1,405,1.0354859828949,bicycle,airplane,150,0405_ps_s02_150_airplane_10_n02690373_3589.png
subject-02,1,406,1.01498007774353,cat,cat,0,0406_ps_s02_0_cat_10_n02124075_14800.png
subject-02,1,407,0.862745046615601,knife,knife,90,0407_ps_s02_90_knife_10_n03041632_52371.png
subject-02,1,408,0.866477966308594,bottle,oven,150,0408_ps_s02_150_oven_10_n04111531_7923.png
subject-02,1,409,1.20632410049438,bird,elephant,60,0409_ps_s02_60_elephant_10_n02504013_7314.png
subject-02,1,410,1.05027604103088,truck,truck,0,0410_ps_s02_0_truck_10_n03417042_16038.png
subject-02,1,411,1.29607105255127,cat,clock,180,0411_ps_s02_180_clock_10_n02708093_1352.png
subject-02,1,412,0.687829971313477,boat,boat,30,0412_ps_s02_30_boat_10_n04612504_8407.png
subject-02,1,413,1.10815787315369,car,truck,120,0413_ps_s02_120_truck_10_n03796401_2007.png
subject-02,1,414,0.647485971450806,boat,boat,60,0414_ps_s02_60_boat_10_n02951358_12080.png
subject-02,1,415,1.26728200912476,dog,cat,120,0415_ps_s02_120_cat_10_n02125311_9615.png
subject-02,1,416,1.41311287879944,oven,bird,90,0416_ps_s02_90_bird_10_n01582220_261.png
subject-02,1,417,0.877156019210815,oven,oven,0,0417_ps_s02_0_oven_10_n04111531_10077.png
subject-02,1,418,1.34076309204102,knife,truck,150,0418_ps_s02_150_truck_10_n04467665_48953.png
subject-02,1,419,1.45077300071716,bird,bird,150,0419_ps_s02_150_bird_10_n01798484_55.png
subject-02,1,420,1.20438599586487,airplane,airplane,120,0420_ps_s02_120_airplane_10_n02690373_13610.png
subject-02,1,421,1.29413604736328,truck,boat,150,0421_ps_s02_150_boat_10_n03344393_6854.png
subject-02,1,422,1.18833923339844,knife,bottle,0,0422_ps_s02_0_bottle_10_n03983396_23471.png
subject-02,1,423,1.08377408981323,chair,chair,0,0423_ps_s02_0_chair_10_n02791124_1693.png
subject-02,1,424,1.25579500198364,bear,clock,150,0424_ps_s02_150_clock_10_n04548280_4524.png
subject-02,1,425,1.01131391525269,bear,bear,60,0425_ps_s02_60_bear_10_n02134418_5971.png
subject-02,1,426,0.901188850402832,cat,knife,180,0426_ps_s02_180_knife_10_n03041632_5820.png
subject-02,1,427,1.10918521881104,bear,boat,0,0427_ps_s02_0_boat_10_n02951358_12713.png
subject-02,1,428,1.22505712509155,airplane,oven,180,0428_ps_s02_180_oven_10_n04111531_23830.png
subject-02,1,429,1.19285011291504,dog,bird,150,0429_ps_s02_150_bird_10_n01582220_1150.png
subject-02,1,430,1.1984498500824,elephant,truck,120,0430_ps_s02_120_truck_10_n03796401_8254.png
subject-02,1,431,0.974308967590332,oven,oven,90,0431_ps_s02_90_oven_10_n04111531_9304.png
subject-02,1,432,0.958093881607056,airplane,airplane,120,0432_ps_s02_120_airplane_10_n02690373_13206.png
subject-02,1,433,1.04789209365845,chair,cat,30,0433_ps_s02_30_cat_10_n02123045_9813.png
subject-02,1,434,0.763758897781372,bicycle,bicycle,0,0434_ps_s02_0_bicycle_10_n02835271_7794.png
subject-02,1,435,1.15752196311951,car,bicycle,150,0435_ps_s02_150_bicycle_10_n02835271_4396.png
subject-02,1,436,1.13152003288269,dog,dog,0,0436_ps_s02_0_dog_10_n02111129_5463.png
subject-02,1,437,0.933151960372925,elephant,elephant,30,0437_ps_s02_30_elephant_10_n02504458_7033.png
subject-02,1,438,1.50009608268738,elephant,elephant,0,0438_ps_s02_0_elephant_10_n02504013_1698.png
subject-02,1,439,0.966928958892822,elephant,elephant,0,0439_ps_s02_0_elephant_10_n02504013_3087.png
subject-02,1,440,1.2904839515686,cat,dog,60,0440_ps_s02_60_dog_10_n02113712_5829.png
subject-02,1,441,0.688565969467163,boat,boat,60,0441_ps_s02_60_boat_10_n04273569_15906.png
subject-02,1,442,0.964172124862671,oven,oven,60,0442_ps_s02_60_oven_10_n04111531_6590.png
subject-02,1,443,1.06802797317505,elephant,elephant,90,0443_ps_s02_90_elephant_10_n02504458_7857.png
subject-02,1,444,1.06190299987793,bear,bottle,150,0444_ps_s02_150_bottle_10_n04591713_5851.png
subject-02,1,445,1.09977293014526,bicycle,cat,180,0445_ps_s02_180_cat_10_n02123045_8690.png
subject-02,1,446,0.983443975448608,elephant,elephant,0,0446_ps_s02_0_elephant_10_n02504013_5996.png
subject-02,1,447,0.849426984786987,bird,chair,180,0447_ps_s02_180_chair_10_n02791124_5109.png
subject-02,1,448,0.717172861099243,keyboard,keyboard,30,0448_ps_s02_30_keyboard_10_n04505470_6963.png
subject-02,1,449,1.12900590896606,knife,knife,30,0449_ps_s02_30_knife_10_n03041632_11327.png
subject-02,1,450,0.890753984451294,clock,clock,0,0450_ps_s02_0_clock_10_n04548280_4426.png
subject-02,1,451,0.8107750415802,cat,cat,90,0451_ps_s02_90_cat_10_n02123394_702.png
subject-02,1,452,1.19436192512512,elephant,bird,180,0452_ps_s02_180_bird_10_n01833805_8179.png
subject-02,1,453,0.624067068099976,cat,cat,0,0453_ps_s02_0_cat_10_n02123045_12297.png
subject-02,1,454,1.24195909500122,dog,dog,0,0454_ps_s02_0_dog_10_n02107574_1277.png
subject-02,1,455,1.14207887649536,chair,oven,60,0455_ps_s02_60_oven_10_n04111531_15912.png
subject-02,1,456,1.15565800666809,bear,boat,120,0456_ps_s02_120_boat_10_n03662601_4541.png
subject-02,1,457,1.2833468914032,knife,truck,120,0457_ps_s02_120_truck_10_n03796401_7518.png
subject-02,1,458,1.32713603973389,bird,chair,150,0458_ps_s02_150_chair_10_n03376595_1302.png
subject-02,1,459,1.15711212158203,bicycle,knife,90,0459_ps_s02_90_knife_10_n03041632_89391.png
subject-02,1,460,1.08681988716125,oven,bird,180,0460_ps_s02_180_bird_10_n02028035_14461.png
subject-02,1,461,NaN,na,airplane,180,0461_ps_s02_180_airplane_10_n02690373_4375.png
subject-02,1,462,0.762389183044434,clock,clock,60,0462_ps_s02_60_clock_10_n04548280_1304.png
subject-02,1,463,0.752249002456665,chair,chair,0,0463_ps_s02_0_chair_10_n03376595_262.png
subject-02,1,464,0.944156169891357,car,bear,150,0464_ps_s02_150_bear_10_n02133161_2340.png
subject-02,1,465,0.771904945373535,bicycle,bicycle,0,0465_ps_s02_0_bicycle_10_n03792782_23912.png
subject-02,1,466,1.16353106498718,boat,boat,30,0466_ps_s02_30_boat_10_n03662601_26273.png
subject-02,1,467,1.10153079032898,bicycle,chair,180,0467_ps_s02_180_chair_10_n04099969_9960.png
subject-02,1,468,1.48145413398743,bicycle,knife,180,0468_ps_s02_180_knife_10_n03041632_44212.png
subject-02,1,469,1.50012898445129,bicycle,bicycle,60,0469_ps_s02_60_bicycle_10_n03792782_31010.png
subject-02,1,470,0.896906852722168,chair,chair,60,0470_ps_s02_60_chair_10_n04099969_246.png
subject-02,1,471,0.646739959716797,clock,clock,90,0471_ps_s02_90_clock_10_n02708093_6696.png
subject-02,1,472,0.83104419708252,bicycle,bicycle,90,0472_ps_s02_90_bicycle_10_n02835271_5821.png
subject-02,1,473,0.97448205947876,airplane,airplane,0,0473_ps_s02_0_airplane_10_n02690373_7355.png
subject-02,1,474,1.27814197540283,bird,chair,180,0474_ps_s02_180_chair_10_n02791124_1258.png
subject-02,1,475,1.03407597541809,airplane,boat,90,0475_ps_s02_90_boat_10_n04273569_32786.png
subject-02,1,476,0.803719043731689,clock,clock,0,0476_ps_s02_0_clock_10_n02708093_1513.png
subject-02,1,477,0.903780937194824,chair,oven,120,0477_ps_s02_120_oven_10_n04111531_2922.png
subject-02,1,478,0.66957688331604,cat,bird,90,0478_ps_s02_90_bird_10_n01530575_35115.png
subject-02,1,479,1.3315761089325,boat,boat,90,0479_ps_s02_90_boat_10_n04273569_4772.png
subject-02,1,480,0.705504894256592,oven,oven,90,0480_ps_s02_90_oven_10_n04111531_4879.png
subject-02,1,481,0.809552907943726,boat,bear,120,0481_ps_s02_120_bear_10_n02133161_1629.png
subject-02,1,482,0.72967004776001,clock,clock,120,0482_ps_s02_120_clock_10_n04548280_354.png
subject-02,1,483,0.989274024963379,bicycle,clock,180,0483_ps_s02_180_clock_10_n04548280_5527.png
subject-02,1,484,0.88691520690918,boat,boat,90,0484_ps_s02_90_boat_10_n04273569_27343.png
subject-02,1,485,0.897109031677246,keyboard,keyboard,120,0485_ps_s02_120_keyboard_10_n04505470_2909.png
subject-02,1,486,0.780647993087769,elephant,elephant,30,0486_ps_s02_30_elephant_10_n02504458_8644.png
subject-02,1,487,0.764707088470459,truck,truck,30,0487_ps_s02_30_truck_10_n03796401_11628.png
subject-02,1,488,0.89615797996521,keyboard,keyboard,90,0488_ps_s02_90_keyboard_10_n03085013_20247.png
subject-02,1,489,1.01039886474609,airplane,car,180,0489_ps_s02_180_car_10_n02814533_66666.png
subject-02,1,490,0.709882020950317,bottle,bottle,30,0490_ps_s02_30_bottle_10_n03983396_3377.png
subject-02,1,491,NaN,na,cat,180,0491_ps_s02_180_cat_10_n02124075_14363.png
subject-02,1,492,0.777505874633789,car,car,60,0492_ps_s02_60_car_10_n03100240_17421.png
subject-02,1,493,1.11931300163269,bottle,dog,60,0493_ps_s02_60_dog_10_n02107683_2484.png
subject-02,1,494,1.5001540184021,boat,oven,180,0494_ps_s02_180_oven_10_n04111531_15367.png
subject-02,1,495,0.824749946594238,boat,boat,120,0495_ps_s02_120_boat_10_n04612504_15155.png
subject-02,1,496,0.916629076004028,bicycle,dog,150,0496_ps_s02_150_dog_10_n02110806_2269.png
subject-02,1,497,1.10651803016663,bicycle,bicycle,60,0497_ps_s02_60_bicycle_10_n02835271_1075.png
subject-02,1,498,0.914268016815186,keyboard,keyboard,60,0498_ps_s02_60_keyboard_10_n03085013_17795.png
subject-02,1,499,0.880060911178589,cat,dog,120,0499_ps_s02_120_dog_10_n02111277_21922.png
subject-02,1,500,0.803865909576416,bear,bear,60,0500_ps_s02_60_bear_10_n02134418_5537.png
subject-02,1,501,1.21152114868164,dog,knife,120,0501_ps_s02_120_knife_10_n03041632_36280.png
subject-02,1,502,1.50004911422729,bicycle,chair,90,0502_ps_s02_90_chair_10_n04099969_18380.png
subject-02,1,503,0.927436113357544,keyboard,keyboard,60,0503_ps_s02_60_keyboard_10_n03085013_21490.png
subject-02,1,504,1.00321006774902,car,dog,180,0504_ps_s02_180_dog_10_n02106662_43958.png
subject-02,1,505,1.34692597389221,chair,oven,30,0505_ps_s02_30_oven_10_n04111531_2831.png
subject-02,1,506,1.09305000305176,car,car,90,0506_ps_s02_90_car_10_n04285008_3096.png
subject-02,1,507,0.988550186157227,clock,clock,0,0507_ps_s02_0_clock_10_n02708093_340.png
subject-02,1,508,0.984228849411011,car,car,120,0508_ps_s02_120_car_10_n03100240_23906.png
subject-02,1,509,1.07625102996826,chair,chair,30,0509_ps_s02_30_chair_10_n04099969_15882.png
subject-02,1,510,0.976130962371826,keyboard,keyboard,30,0510_ps_s02_30_keyboard_10_n03085013_6166.png
subject-02,1,511,0.683806896209717,bear,bear,0,0511_ps_s02_0_bear_10_n02134418_2324.png
subject-02,1,512,0.92760705947876,cat,cat,120,0512_ps_s02_120_cat_10_n02124075_2402.png
subject-02,1,513,1.29195499420166,bird,dog,60,0513_ps_s02_60_dog_10_n02086240_7247.png
subject-02,1,514,1.25138401985168,bicycle,clock,150,0514_ps_s02_150_clock_10_n03196217_4019.png
subject-02,1,515,1.18533992767334,airplane,bicycle,180,0515_ps_s02_180_bicycle_10_n03792782_34197.png
subject-02,1,516,0.788941860198975,boat,boat,0,0516_ps_s02_0_boat_10_n02951358_15218.png
subject-02,1,517,1.47468400001526,dog,dog,0,0517_ps_s02_0_dog_10_n02106662_15515.png
subject-02,1,518,1.28441500663757,boat,car,150,0518_ps_s02_150_car_10_n03100240_16145.png
subject-02,1,519,0.854404211044312,oven,oven,0,0519_ps_s02_0_oven_10_n04111531_13797.png
subject-02,1,520,0.672137975692749,boat,boat,0,0520_ps_s02_0_boat_10_n03662601_23248.png
subject-02,1,521,0.827920913696289,oven,oven,30,0521_ps_s02_30_oven_10_n04111531_11225.png
subject-02,1,522,0.993950128555298,cat,bird,120,0522_ps_s02_120_bird_10_n01798484_2289.png
subject-02,1,523,1.08573913574219,airplane,airplane,30,0523_ps_s02_30_airplane_10_n02690373_13324.png
subject-02,1,524,1.16923213005066,knife,knife,0,0524_ps_s02_0_knife_10_n03041632_42526.png
subject-02,1,525,1.29345297813416,bottle,bottle,0,0525_ps_s02_0_bottle_10_n03937543_4850.png
subject-02,1,526,0.961276054382324,chair,chair,30,0526_ps_s02_30_chair_10_n02791124_1292.png
subject-02,1,527,1.18103098869324,oven,oven,90,0527_ps_s02_90_oven_10_n04111531_7430.png
subject-02,1,528,0.846503973007202,truck,truck,0,0528_ps_s02_0_truck_10_n04467665_18234.png
subject-02,1,529,1.32062315940857,truck,truck,60,0529_ps_s02_60_truck_10_n03796401_1681.png
subject-02,1,530,0.994848966598511,truck,truck,90,0530_ps_s02_90_truck_10_n03417042_3238.png
subject-02,1,531,0.908163070678711,bicycle,truck,120,0531_ps_s02_120_truck_10_n04467665_69970.png
subject-02,1,532,1.23595118522644,cat,cat,30,0532_ps_s02_30_cat_10_n02123394_4633.png
subject-02,1,533,1.07782793045044,bicycle,boat,60,0533_ps_s02_60_boat_10_n04273569_1457.png
subject-02,1,534,0.90169095993042,knife,knife,30,0534_ps_s02_30_knife_10_n03041632_10140.png
subject-02,1,535,1.50002408027649,bird,bear,120,0535_ps_s02_120_bear_10_n02133161_2270.png
subject-02,1,536,1.25948190689087,keyboard,keyboard,0,0536_ps_s02_0_keyboard_10_n03085013_2189.png
subject-02,1,537,1.05704689025879,keyboard,keyboard,180,0537_ps_s02_180_keyboard_10_n04505470_4579.png
subject-02,1,538,1.48094797134399,dog,dog,90,0538_ps_s02_90_dog_10_n02095314_5408.png
subject-02,1,539,0.896667003631592,bear,bear,60,0539_ps_s02_60_bear_10_n02133161_4294.png
subject-02,1,540,1.50006079673767,boat,bottle,180,0540_ps_s02_180_bottle_10_n04579145_6049.png
subject-02,1,541,1.1463360786438,elephant,bird,60,0541_ps_s02_60_bird_10_n02002724_3345.png
subject-02,1,542,0.987916946411133,cat,bear,0,0542_ps_s02_0_bear_10_n02134084_16632.png
subject-02,1,543,0.942253112792969,chair,chair,0,0543_ps_s02_0_chair_10_n04429376_49351.png
subject-02,1,544,1.29970502853394,oven,oven,120,0544_ps_s02_120_oven_10_n04111531_3286.png
subject-02,1,545,1.21555995941162,truck,clock,180,0545_ps_s02_180_clock_10_n04548280_9217.png
subject-02,1,546,1.47152996063232,boat,airplane,180,0546_ps_s02_180_airplane_10_n02690373_1316.png
subject-02,1,547,1.1470000743866,bird,bird,90,0547_ps_s02_90_bird_10_n02006656_7456.png
subject-02,1,548,0.860805034637451,bicycle,truck,180,0548_ps_s02_180_truck_10_n04467665_23758.png
subject-02,1,549,0.653017997741699,cat,truck,180,0549_ps_s02_180_truck_10_n03417042_1149.png
subject-02,1,550,1.22065210342407,keyboard,boat,120,0550_ps_s02_120_boat_10_n03344393_8117.png
subject-02,1,551,0.740262985229492,clock,clock,90,0551_ps_s02_90_clock_10_n02708093_181.png
subject-02,1,552,1.38425397872925,keyboard,keyboard,60,0552_ps_s02_60_keyboard_10_n04505470_5880.png
subject-02,1,553,1.00791597366333,bird,clock,30,0553_ps_s02_30_clock_10_n03196217_6348.png
subject-02,1,554,1.07583093643188,bottle,boat,60,0554_ps_s02_60_boat_10_n03344393_1944.png
subject-02,1,555,0.827728986740112,boat,chair,150,0555_ps_s02_150_chair_10_n03376595_10700.png
subject-02,1,556,0.841462850570679,bicycle,bicycle,0,0556_ps_s02_0_bicycle_10_n02835271_4963.png
subject-02,1,557,1.08915996551514,bird,bird,30,0557_ps_s02_30_bird_10_n01798484_5355.png
subject-02,1,558,1.25695490837097,chair,chair,120,0558_ps_s02_120_chair_10_n04099969_7545.png
subject-02,1,559,0.886853933334351,boat,keyboard,150,0559_ps_s02_150_keyboard_10_n04505470_2113.png
subject-02,1,560,0.852742910385132,bottle,bottle,60,0560_ps_s02_60_bottle_10_n04557648_4133.png
subject-02,1,561,0.734709024429321,cat,cat,90,0561_ps_s02_90_cat_10_n02123597_3821.png
subject-02,1,562,0.898256063461304,bottle,bottle,0,0562_ps_s02_0_bottle_10_n03937543_3079.png
subject-02,1,563,1.01205015182495,car,car,30,0563_ps_s02_30_car_10_n04285008_14128.png
subject-02,1,564,0.589805126190186,clock,clock,60,0564_ps_s02_60_clock_10_n04548280_11597.png
subject-02,1,565,0.939552068710327,elephant,bicycle,90,0565_ps_s02_90_bicycle_10_n02835271_2581.png
subject-02,1,566,1.02142310142517,knife,knife,30,0566_ps_s02_30_knife_10_n03041632_3063.png
subject-02,1,567,1.08515000343323,boat,keyboard,120,0567_ps_s02_120_keyboard_10_n03085013_7752.png
subject-02,1,568,0.835190773010254,chair,chair,0,0568_ps_s02_0_chair_10_n03376595_3062.png
subject-02,1,569,1.17493009567261,airplane,airplane,120,0569_ps_s02_120_airplane_10_n02690373_8446.png
subject-02,1,570,0.869041919708252,bird,bird,90,0570_ps_s02_90_bird_10_n01601694_2723.png
subject-02,1,571,0.762573957443237,cat,bicycle,90,0571_ps_s02_90_bicycle_10_n03792782_12561.png
subject-02,1,572,0.934600114822388,bear,bicycle,120,0572_ps_s02_120_bicycle_10_n02835271_9669.png
subject-02,1,573,0.742449998855591,boat,boat,90,0573_ps_s02_90_boat_10_n02951358_30773.png
subject-02,1,574,0.845907926559448,airplane,airplane,0,0574_ps_s02_0_airplane_10_n02690373_3899.png
subject-02,1,575,0.959810972213745,cat,oven,90,0575_ps_s02_90_oven_10_n04111531_8852.png
subject-02,1,576,1.01345181465149,bear,clock,150,0576_ps_s02_150_clock_10_n04548280_8398.png
subject-02,1,577,0.959281921386719,car,bird,180,0577_ps_s02_180_bird_10_n01818515_11687.png
subject-02,1,578,1.21932411193848,bird,truck,180,0578_ps_s02_180_truck_10_n04467665_35490.png
subject-02,1,579,1.40311288833618,car,elephant,120,0579_ps_s02_120_elephant_10_n02504013_1908.png
subject-02,1,580,0.998796939849854,clock,clock,120,0580_ps_s02_120_clock_10_n02708093_118.png
subject-02,1,581,0.730704069137573,cat,bear,90,0581_ps_s02_90_bear_10_n02132136_8358.png
subject-02,1,582,0.778350114822388,keyboard,keyboard,120,0582_ps_s02_120_keyboard_10_n04505470_4724.png
subject-02,1,583,1.096195936203,knife,knife,30,0583_ps_s02_30_knife_10_n03041632_56217.png
subject-02,1,584,1.1962730884552,car,bottle,180,0584_ps_s02_180_bottle_10_n04560804_3959.png
subject-02,1,585,0.889883041381836,cat,oven,180,0585_ps_s02_180_oven_10_n04111531_6474.png
subject-02,1,586,0.653563976287842,clock,clock,60,0586_ps_s02_60_clock_10_n04548280_4178.png
subject-02,1,587,0.865633010864258,bear,bear,0,0587_ps_s02_0_bear_10_n02134418_2254.png
subject-02,1,588,1.11741399765015,bicycle,bicycle,0,0588_ps_s02_0_bicycle_10_n02835271_8417.png
subject-02,1,589,1.34903597831726,bicycle,chair,150,0589_ps_s02_150_chair_10_n02791124_5685.png
subject-02,1,590,1.10878109931946,chair,chair,90,0590_ps_s02_90_chair_10_n02791124_15407.png
subject-02,1,591,1.32663798332214,truck,bottle,180,0591_ps_s02_180_bottle_10_n04579145_1856.png
subject-02,1,592,0.756947994232178,boat,airplane,0,0592_ps_s02_0_airplane_10_n02690373_4119.png
subject-02,1,593,1.50003790855408,oven,knife,0,0593_ps_s02_0_knife_10_n03041632_62810.png
subject-02,1,594,0.788151025772095,boat,elephant,150,0594_ps_s02_150_elephant_10_n02504458_4348.png
subject-02,1,595,0.822316884994507,dog,dog,0,0595_ps_s02_0_dog_10_n02104365_1500.png
subject-02,1,596,1.02183389663696,car,oven,120,0596_ps_s02_120_oven_10_n04111531_1220.png
subject-02,1,597,1.16962885856628,boat,airplane,180,0597_ps_s02_180_airplane_10_n02690373_6144.png
subject-02,1,598,0.825598955154419,car,car,90,0598_ps_s02_90_car_10_n04285008_203.png
subject-02,1,599,1.24510502815247,dog,dog,90,0599_ps_s02_90_dog_10_n02112018_10082.png
subject-02,1,600,0.979326963424683,bear,bear,0,0600_ps_s02_0_bear_10_n02133161_1032.png
subject-02,1,601,1.28477716445923,knife,knife,60,0601_ps_s02_60_knife_10_n03041632_4714.png
subject-02,1,602,0.986761093139648,bottle,bottle,60,0602_ps_s02_60_bottle_10_n03983396_10027.png
subject-02,1,603,1.5000422000885,truck,keyboard,180,0603_ps_s02_180_keyboard_10_n03085013_1808.png
subject-02,1,604,0.968401908874512,bottle,oven,0,0604_ps_s02_0_oven_10_n04111531_21404.png
subject-02,1,605,1.19407200813293,knife,knife,0,0605_ps_s02_0_knife_10_n03041632_9635.png
subject-02,1,606,1.30778002738953,car,dog,180,0606_ps_s02_180_dog_10_n02091032_6523.png
subject-02,1,607,0.827708005905151,truck,truck,0,0607_ps_s02_0_truck_10_n03796401_24543.png
subject-02,1,608,0.90541410446167,bear,bear,90,0608_ps_s02_90_bear_10_n02132136_5778.png
subject-02,1,609,0.859216928482056,bottle,clock,120,0609_ps_s02_120_clock_10_n02708093_1539.png
subject-02,1,610,1.27719402313232,oven,cat,150,0610_ps_s02_150_cat_10_n02123159_799.png
subject-02,1,611,1.07092905044556,truck,chair,120,0611_ps_s02_120_chair_10_n04099969_13901.png
subject-02,1,612,0.820747137069702,keyboard,keyboard,0,0612_ps_s02_0_keyboard_10_n03085013_21967.png
subject-02,1,613,0.858490943908691,bird,bird,150,0613_ps_s02_150_bird_10_n02002724_5457.png
subject-02,1,614,0.85049295425415,bear,dog,90,0614_ps_s02_90_dog_10_n02108551_14704.png
subject-02,1,615,0.698167085647583,cat,knife,90,0615_ps_s02_90_knife_10_n03041632_32896.png
subject-02,1,616,0.838123083114624,keyboard,keyboard,0,0616_ps_s02_0_keyboard_10_n03085013_25476.png
subject-02,1,617,1.15010714530945,bicycle,airplane,180,0617_ps_s02_180_airplane_10_n02690373_9959.png
subject-02,1,618,0.869802951812744,cat,bear,90,0618_ps_s02_90_bear_10_n02133161_8856.png
subject-02,1,619,1.18153405189514,bottle,bottle,0,0619_ps_s02_0_bottle_10_n04560804_26318.png
subject-02,1,620,0.951502799987793,bear,bear,90,0620_ps_s02_90_bear_10_n02134084_5733.png
subject-02,1,621,1.19698214530945,bicycle,cat,180,0621_ps_s02_180_cat_10_n02123045_13220.png
subject-02,1,622,1.50013995170593,chair,chair,30,0622_ps_s02_30_chair_10_n03376595_10332.png
subject-02,1,623,1.12319898605347,bird,dog,150,0623_ps_s02_150_dog_10_n02110063_3399.png
subject-02,1,624,1.05464601516724,truck,truck,90,0624_ps_s02_90_truck_10_n03417042_10243.png
subject-02,1,625,1.01025009155273,bicycle,bicycle,0,0625_ps_s02_0_bicycle_10_n03792782_54196.png
subject-02,1,626,1.13820195198059,bear,dog,90,0626_ps_s02_90_dog_10_n02107908_3447.png
subject-02,1,627,0.774322032928467,car,car,30,0627_ps_s02_30_car_10_n03100240_12777.png
subject-02,1,628,1.33400297164917,knife,dog,150,0628_ps_s02_150_dog_10_n02108000_6454.png
subject-02,1,629,1.27801012992859,elephant,bear,150,0629_ps_s02_150_bear_10_n02132136_10577.png
subject-02,1,630,1.24953198432922,airplane,oven,150,0630_ps_s02_150_oven_10_n04111531_15735.png
subject-02,1,631,1.00526285171509,chair,chair,30,0631_ps_s02_30_chair_10_n02791124_4192.png
subject-02,1,632,1.13088893890381,cat,bird,150,0632_ps_s02_150_bird_10_n02007558_7783.png
subject-02,1,633,0.711075067520142,clock,clock,60,0633_ps_s02_60_clock_10_n04548280_5734.png
subject-02,1,634,0.950802087783813,dog,dog,60,0634_ps_s02_60_dog_10_n02106550_6424.png
subject-02,1,635,0.832414865493774,bear,bear,0,0635_ps_s02_0_bear_10_n02134084_42197.png
subject-02,1,636,1.22442507743835,car,car,30,0636_ps_s02_30_car_10_n02814533_40344.png
subject-02,1,637,1.05800604820251,bicycle,bicycle,60,0637_ps_s02_60_bicycle_10_n02835271_25519.png
subject-02,1,638,0.978029012680054,cat,cat,150,0638_ps_s02_150_cat_10_n02125311_11409.png
subject-02,1,639,0.853600978851318,clock,clock,60,0639_ps_s02_60_clock_10_n03196217_599.png
subject-02,1,640,1.10741901397705,chair,truck,0,0640_ps_s02_0_truck_10_n03417042_3389.png
subject-02,1,641,1.34446907043457,boat,bird,0,0641_ps_s02_0_bird_10_n01616318_1831.png
subject-02,1,642,0.982344150543213,boat,truck,150,0642_ps_s02_150_truck_10_n03417042_6480.png
subject-02,1,643,0.894221782684326,airplane,airplane,120,0643_ps_s02_120_airplane_10_n02690373_10395.png
subject-02,1,644,0.954042911529541,knife,knife,90,0644_ps_s02_90_knife_10_n03041632_24100.png
subject-02,1,645,0.933912992477417,oven,oven,60,0645_ps_s02_60_oven_10_n04111531_22263.png
subject-02,1,646,1.11557078361511,keyboard,keyboard,30,0646_ps_s02_30_keyboard_10_n04505470_5171.png
subject-02,1,647,0.721529960632324,boat,boat,0,0647_ps_s02_0_boat_10_n04273569_2449.png
subject-02,1,648,0.803308010101318,truck,truck,60,0648_ps_s02_60_truck_10_n03796401_8037.png
subject-02,1,649,0.94520092010498,car,car,60,0649_ps_s02_60_car_10_n03100240_8107.png
subject-02,1,650,0.677134037017822,cat,elephant,180,0650_ps_s02_180_elephant_10_n02504458_4395.png
subject-02,1,651,1.16071200370789,airplane,bird,180,0651_ps_s02_180_bird_10_n01534433_10801.png
subject-02,1,652,1.12258505821228,car,oven,150,0652_ps_s02_150_oven_10_n04111531_5643.png
subject-02,1,653,0.954403162002563,boat,bicycle,180,0653_ps_s02_180_bicycle_10_n02835271_9314.png
subject-02,1,654,0.972612142562866,keyboard,keyboard,90,0654_ps_s02_90_keyboard_10_n04505470_5063.png
subject-02,1,655,1.06405305862427,bicycle,bicycle,120,0655_ps_s02_120_bicycle_10_n02835271_10822.png
subject-02,1,656,0.95588207244873,bird,bird,0,0656_ps_s02_0_bird_10_n01622779_6183.png
subject-02,1,657,0.7237389087677,oven,oven,30,0657_ps_s02_30_oven_10_n04111531_21822.png
subject-02,1,658,0.643336057662964,boat,boat,30,0658_ps_s02_30_boat_10_n03344393_5296.png
subject-02,1,659,1.50012111663818,bicycle,knife,150,0659_ps_s02_150_knife_10_n03041632_19614.png
subject-02,1,660,1.3891921043396,knife,elephant,150,0660_ps_s02_150_elephant_10_n02504458_1600.png
subject-02,1,661,0.834939956665039,bottle,bottle,30,0661_ps_s02_30_bottle_10_n03983396_11519.png
subject-02,1,662,0.792618036270142,car,car,0,0662_ps_s02_0_car_10_n03100240_9610.png
subject-02,1,663,0.744407892227173,keyboard,keyboard,60,0663_ps_s02_60_keyboard_10_n03085013_6424.png
subject-02,1,664,1.30634212493896,car,truck,60,0664_ps_s02_60_truck_10_n03417042_173.png
subject-02,1,665,1.42219305038452,boat,truck,180,0665_ps_s02_180_truck_10_n04467665_670.png
subject-02,1,666,0.667925119400024,clock,clock,30,0666_ps_s02_30_clock_10_n03196217_5267.png
subject-02,1,667,1.07164311408997,cat,chair,120,0667_ps_s02_120_chair_10_n04099969_9005.png
subject-02,1,668,1.11559700965881,elephant,elephant,90,0668_ps_s02_90_elephant_10_n02504013_3567.png
subject-02,1,669,0.785234928131104,car,truck,120,0669_ps_s02_120_truck_10_n03796401_28190.png
subject-02,1,670,1.15706896781921,bear,bear,120,0670_ps_s02_120_bear_10_n02133161_2304.png
subject-02,1,671,1.02302002906799,cat,bear,60,0671_ps_s02_60_bear_10_n02134418_5807.png
subject-02,1,672,1.3008451461792,bottle,chair,90,0672_ps_s02_90_chair_10_n03376595_14563.png
subject-02,1,673,0.854947090148926,truck,truck,0,0673_ps_s02_0_truck_10_n03796401_3411.png
subject-02,1,674,0.954286098480225,dog,dog,60,0674_ps_s02_60_dog_10_n02111129_8015.png
subject-02,1,675,1.41219305992126,bottle,chair,90,0675_ps_s02_90_chair_10_n02791124_1941.png
subject-02,1,676,0.992044925689697,cat,cat,60,0676_ps_s02_60_cat_10_n02123394_6487.png
subject-02,1,677,0.955857992172241,bear,boat,180,0677_ps_s02_180_boat_10_n03344393_5566.png
subject-02,1,678,0.763637065887451,bird,bird,30,0678_ps_s02_30_bird_10_n01796340_2973.png
subject-02,1,679,0.879581928253174,oven,oven,150,0679_ps_s02_150_oven_10_n04111531_5737.png
subject-02,1,680,0.893265008926392,bear,bicycle,150,0680_ps_s02_150_bicycle_10_n03792782_5133.png
subject-02,1,681,0.77702808380127,dog,dog,30,0681_ps_s02_30_dog_10_n02109525_72594.png
subject-02,1,682,0.700866937637329,bicycle,bicycle,0,0682_ps_s02_0_bicycle_10_n02835271_9866.png
subject-02,1,683,1.44063496589661,car,bottle,180,0683_ps_s02_180_bottle_10_n03937543_4259.png
subject-02,1,684,0.760408163070679,clock,clock,30,0684_ps_s02_30_clock_10_n03196217_2536.png
subject-02,1,685,1.0163300037384,bear,boat,180,0685_ps_s02_180_boat_10_n04273569_568.png
subject-02,1,686,0.818027973175049,clock,car,150,0686_ps_s02_150_car_10_n04285008_810.png
subject-02,1,687,0.966079950332642,bird,clock,180,0687_ps_s02_180_clock_10_n02708093_2721.png
subject-02,1,688,0.631850004196167,bicycle,bicycle,60,0688_ps_s02_60_bicycle_10_n02835271_20714.png
subject-02,1,689,1.03745007514954,car,bear,150,0689_ps_s02_150_bear_10_n02134084_3860.png
subject-02,1,690,1.30357098579407,keyboard,boat,120,0690_ps_s02_120_boat_10_n04273569_20587.png
subject-02,1,691,0.761548042297363,cat,cat,30,0691_ps_s02_30_cat_10_n02123045_13172.png
subject-02,1,692,0.601109027862549,car,car,60,0692_ps_s02_60_car_10_n02814533_38071.png
subject-02,1,693,0.846946954727173,car,car,30,0693_ps_s02_30_car_10_n03100240_16775.png
subject-02,1,694,0.930740118026733,car,car,120,0694_ps_s02_120_car_10_n02814533_2923.png
subject-02,1,695,1.29246187210083,truck,airplane,180,0695_ps_s02_180_airplane_10_n02690373_8765.png
subject-02,1,696,1.12434387207031,bicycle,bird,180,0696_ps_s02_180_bird_10_n02018207_14738.png
subject-02,1,697,1.12422895431519,bear,bear,30,0697_ps_s02_30_bear_10_n02134084_10766.png
subject-02,1,698,0.831928014755249,bird,bird,30,0698_ps_s02_30_bird_10_n01532829_2492.png
subject-02,1,699,0.872144937515259,bicycle,bicycle,0,0699_ps_s02_0_bicycle_10_n03792782_11824.png
subject-02,1,700,1.12359499931335,bird,bird,60,0700_ps_s02_60_bird_10_n01817953_6333.png
subject-02,1,701,0.839398860931396,bear,bear,90,0701_ps_s02_90_bear_10_n02133161_4043.png
subject-02,1,702,0.939568042755127,oven,oven,90,0702_ps_s02_90_oven_10_n04111531_2803.png
subject-02,1,703,0.88316798210144,truck,truck,90,0703_ps_s02_90_truck_10_n03417042_12711.png
subject-02,1,704,0.978665113449097,bird,bird,60,0704_ps_s02_60_bird_10_n02011460_3509.png
subject-02,1,705,0.772743940353394,bicycle,bicycle,30,0705_ps_s02_30_bicycle_10_n02835271_22143.png
subject-02,1,706,0.966811895370483,bear,bottle,120,0706_ps_s02_120_bottle_10_n02823428_14453.png
subject-02,1,707,1.15426397323608,car,dog,180,0707_ps_s02_180_dog_10_n02105162_9615.png
subject-02,1,708,0.838310956954956,oven,bicycle,120,0708_ps_s02_120_bicycle_10_n03792782_20475.png
subject-02,1,709,0.829736948013306,car,car,90,0709_ps_s02_90_car_10_n03100240_4674.png
subject-02,1,710,1.07778096199036,car,airplane,120,0710_ps_s02_120_airplane_10_n02690373_2092.png
subject-02,1,711,1.50006604194641,oven,boat,150,0711_ps_s02_150_boat_10_n04273569_1145.png
subject-02,1,712,0.72720193862915,keyboard,keyboard,0,0712_ps_s02_0_keyboard_10_n04505470_1117.png
subject-02,1,713,1.05694317817688,chair,chair,0,0713_ps_s02_0_chair_10_n03376595_16306.png
subject-02,1,714,1.50002717971802,bird,bottle,180,0714_ps_s02_180_bottle_10_n03983396_4775.png
subject-02,1,715,0.908769130706787,bottle,bottle,60,0715_ps_s02_60_bottle_10_n04560804_13420.png
subject-02,1,716,NaN,na,knife,90,0716_ps_s02_90_knife_10_n03041632_25498.png
subject-02,1,717,0.950297117233276,chair,chair,0,0717_ps_s02_0_chair_10_n02791124_2928.png
subject-02,1,718,1.2942841053009,cat,cat,60,0718_ps_s02_60_cat_10_n02124075_13587.png
subject-02,1,719,0.989976167678833,airplane,airplane,120,0719_ps_s02_120_airplane_10_n02690373_4495.png
subject-02,1,720,0.62782096862793,cat,cat,60,0720_ps_s02_60_cat_10_n02123045_568.png
subject-02,1,721,0.873275995254517,bear,bear,150,0721_ps_s02_150_bear_10_n02132136_7067.png
subject-02,1,722,0.731022834777832,clock,clock,0,0722_ps_s02_0_clock_10_n04548280_5699.png
subject-02,1,723,0.802916049957275,clock,clock,30,0723_ps_s02_30_clock_10_n02708093_51.png
subject-02,1,724,0.810556173324585,keyboard,keyboard,60,0724_ps_s02_60_keyboard_10_n03085013_19565.png
subject-02,1,725,1.07039999961853,car,car,150,0725_ps_s02_150_car_10_n02814533_85659.png
subject-02,1,726,1.28666591644287,oven,knife,120,0726_ps_s02_120_knife_10_n03041632_24541.png
subject-02,1,727,0.862066984176636,bicycle,bicycle,30,0727_ps_s02_30_bicycle_10_n02835271_5886.png
subject-02,1,728,1.06378793716431,boat,airplane,180,0728_ps_s02_180_airplane_10_n02690373_2874.png
subject-02,1,729,1.15994596481323,bird,bicycle,180,0729_ps_s02_180_bicycle_10_n02835271_7296.png
subject-02,1,730,1.08762311935425,bottle,dog,120,0730_ps_s02_120_dog_10_n02099849_2217.png
subject-02,1,731,0.737578153610229,keyboard,keyboard,0,0731_ps_s02_0_keyboard_10_n04505470_1342.png
subject-02,1,732,0.699383974075317,dog,dog,30,0732_ps_s02_30_dog_10_n02093647_1022.png
subject-02,1,733,0.946907997131348,airplane,airplane,90,0733_ps_s02_90_airplane_10_n02690373_5422.png
subject-02,1,734,1.02269697189331,bear,bear,120,0734_ps_s02_120_bear_10_n02134084_7441.png
subject-02,1,735,0.826962947845459,keyboard,keyboard,30,0735_ps_s02_30_keyboard_10_n03085013_2842.png
subject-02,1,736,1.11056709289551,keyboard,bottle,180,0736_ps_s02_180_bottle_10_n04591713_644.png
subject-02,1,737,1.27032899856567,airplane,boat,150,0737_ps_s02_150_boat_10_n03344393_5265.png
subject-02,1,738,1.19017314910889,truck,truck,180,0738_ps_s02_180_truck_10_n04467665_23054.png
subject-02,1,739,1.08601403236389,bicycle,elephant,120,0739_ps_s02_120_elephant_10_n02504458_694.png
subject-02,1,740,1.3617570400238,bear,bicycle,180,0740_ps_s02_180_bicycle_10_n02835271_5554.png
subject-02,1,741,0.983782052993774,truck,truck,90,0741_ps_s02_90_truck_10_n03796401_27268.png
subject-02,1,742,0.879364967346191,elephant,elephant,30,0742_ps_s02_30_elephant_10_n02504458_4696.png
subject-02,1,743,1.17512702941895,cat,knife,150,0743_ps_s02_150_knife_10_n03041632_2319.png
subject-02,1,744,0.726822137832642,bird,bird,120,0744_ps_s02_120_bird_10_n02018207_6296.png
subject-02,1,745,0.763115882873535,bicycle,bicycle,30,0745_ps_s02_30_bicycle_10_n03792782_4277.png
subject-02,1,746,0.88272500038147,dog,chair,150,0746_ps_s02_150_chair_10_n04099969_16178.png
subject-02,1,747,1.44418787956238,dog,dog,30,0747_ps_s02_30_dog_10_n02109961_14202.png
subject-02,1,748,0.85616397857666,bear,bear,0,0748_ps_s02_0_bear_10_n02133161_355.png
subject-02,1,749,0.825926780700684,boat,boat,60,0749_ps_s02_60_boat_10_n04273569_4978.png
subject-02,1,750,0.95383095741272,car,car,0,0750_ps_s02_0_car_10_n02814533_95144.png
subject-02,1,751,0.836055040359497,keyboard,keyboard,30,0751_ps_s02_30_keyboard_10_n03085013_3632.png
subject-02,1,752,1.19143295288086,bird,bird,60,0752_ps_s02_60_bird_10_n02018207_12233.png
subject-02,1,753,1.15728187561035,bear,bear,30,0753_ps_s02_30_bear_10_n02134084_13394.png
subject-02,1,754,1.04535913467407,airplane,airplane,0,0754_ps_s02_0_airplane_10_n02690373_20011.png
subject-02,1,755,0.906954050064087,airplane,airplane,30,0755_ps_s02_30_airplane_10_n02690373_9012.png
subject-02,1,756,0.894653081893921,keyboard,keyboard,0,0756_ps_s02_0_keyboard_10_n03085013_23192.png
subject-02,1,757,1.13474106788635,boat,boat,30,0757_ps_s02_30_boat_10_n03344393_8374.png
subject-02,1,758,1.49999904632568,bottle,elephant,180,0758_ps_s02_180_elephant_10_n02504013_3029.png
subject-02,1,759,1.18395614624023,cat,cat,0,0759_ps_s02_0_cat_10_n02123045_10887.png
subject-02,1,760,0.79991888999939,airplane,airplane,60,0760_ps_s02_60_airplane_10_n02690373_6314.png
subject-02,1,761,0.985869884490967,oven,oven,30,0761_ps_s02_30_oven_10_n04111531_21855.png
subject-02,1,762,0.95986795425415,boat,dog,180,0762_ps_s02_180_dog_10_n02106166_134.png
subject-02,1,763,1.44149112701416,car,bicycle,180,0763_ps_s02_180_bicycle_10_n03792782_8080.png
subject-02,1,764,0.827342987060547,bird,cat,150,0764_ps_s02_150_cat_10_n02125311_5570.png
subject-02,1,765,1.01900601387024,dog,dog,60,0765_ps_s02_60_dog_10_n02090721_1105.png
subject-02,1,766,0.748785972595215,car,car,30,0766_ps_s02_30_car_10_n02814533_40773.png
subject-02,1,767,0.804740905761719,boat,boat,120,0767_ps_s02_120_boat_10_n04273569_10840.png
subject-02,1,768,0.854811906814575,knife,knife,60,0768_ps_s02_60_knife_10_n03041632_24060.png
subject-02,1,769,0.726274967193604,cat,knife,90,0769_ps_s02_90_knife_10_n03041632_84086.png
subject-02,1,770,0.77006196975708,car,car,60,0770_ps_s02_60_car_10_n03100240_17349.png
subject-02,1,771,0.679733991622925,airplane,airplane,30,0771_ps_s02_30_airplane_10_n02690373_11799.png
subject-02,1,772,1.06148505210876,car,car,90,0772_ps_s02_90_car_10_n02814533_35102.png
subject-02,1,773,0.873486995697021,airplane,car,180,0773_ps_s02_180_car_10_n03100240_4619.png
subject-02,1,774,0.807444095611572,cat,cat,0,0774_ps_s02_0_cat_10_n02123597_13755.png
subject-02,1,775,0.955106973648071,boat,bicycle,90,0775_ps_s02_90_bicycle_10_n02835271_26731.png
subject-02,1,776,1.22314500808716,truck,keyboard,180,0776_ps_s02_180_keyboard_10_n03085013_25675.png
subject-02,1,777,0.938850164413452,dog,dog,0,0777_ps_s02_0_dog_10_n02105641_6503.png
subject-02,1,778,1.28854703903198,dog,dog,120,0778_ps_s02_120_dog_10_n02104029_7335.png
subject-02,1,779,1.500079870224,elephant,elephant,120,0779_ps_s02_120_elephant_10_n02504013_25336.png
subject-02,1,780,0.854059219360352,elephant,elephant,120,0780_ps_s02_120_elephant_10_n02504458_9213.png
subject-02,1,781,1.03995013237,bottle,bear,180,0781_ps_s02_180_bear_10_n02134084_10289.png
subject-02,1,782,0.812205076217651,bicycle,bear,180,0782_ps_s02_180_bear_10_n02133161_897.png
subject-02,1,783,0.731721878051758,clock,chair,60,0783_ps_s02_60_chair_10_n03376595_3910.png
subject-02,1,784,1.18381714820862,bottle,bottle,120,0784_ps_s02_120_bottle_10_n03983396_8143.png
subject-02,1,785,0.907202005386353,bottle,knife,180,0785_ps_s02_180_knife_10_n03041632_2973.png
subject-02,1,786,1.06085205078125,keyboard,keyboard,60,0786_ps_s02_60_keyboard_10_n03085013_15836.png
subject-02,1,787,1.23882699012756,knife,bicycle,150,0787_ps_s02_150_bicycle_10_n03792782_378.png
subject-02,1,788,0.802568912506104,clock,clock,90,0788_ps_s02_90_clock_10_n03196217_5827.png
subject-02,1,789,1.1382839679718,bear,bird,0,0789_ps_s02_0_bird_10_n01530575_5222.png
subject-02,1,790,0.744270086288452,bird,bird,30,0790_ps_s02_30_bird_10_n01843383_13894.png
subject-02,1,791,1.01611304283142,bicycle,cat,150,0791_ps_s02_150_cat_10_n02123159_615.png
subject-02,1,792,0.93595290184021,bird,bird,0,0792_ps_s02_0_bird_10_n01817953_2257.png
subject-02,1,793,0.957878828048706,clock,chair,90,0793_ps_s02_90_chair_10_n04429376_41755.png
subject-02,1,794,1.18351316452026,bottle,chair,180,0794_ps_s02_180_chair_10_n02791124_2611.png
subject-02,1,795,1.12529182434082,bicycle,elephant,180,0795_ps_s02_180_elephant_10_n02504458_1929.png
subject-02,1,796,0.877243995666504,bird,bicycle,150,0796_ps_s02_150_bicycle_10_n02835271_4887.png
subject-02,1,797,0.710866928100586,dog,dog,0,0797_ps_s02_0_dog_10_n02101388_1383.png
subject-02,1,798,0.964912891387939,keyboard,knife,180,0798_ps_s02_180_knife_10_n03041632_9406.png
subject-02,1,799,1.1263861656189,bicycle,elephant,60,0799_ps_s02_60_elephant_10_n02504458_8141.png
subject-02,1,800,1.11041307449341,airplane,airplane,60,0800_ps_s02_60_airplane_10_n02690373_9376.png
subject-02,1,801,0.999105930328369,cat,dog,120,0801_ps_s02_120_dog_10_n02105855_17066.png
subject-02,1,802,0.949080944061279,airplane,boat,180,0802_ps_s02_180_boat_10_n04273569_12888.png
subject-02,1,803,0.704734086990356,bottle,bottle,60,0803_ps_s02_60_bottle_10_n04557648_10582.png
subject-02,1,804,0.843053817749023,truck,truck,30,0804_ps_s02_30_truck_10_n03796401_22643.png
subject-02,1,805,1.08855581283569,chair,chair,90,0805_ps_s02_90_chair_10_n02791124_538.png
subject-02,1,806,0.98833179473877,elephant,elephant,0,0806_ps_s02_0_elephant_10_n02504013_1953.png
subject-02,1,807,0.690255880355835,cat,bird,90,0807_ps_s02_90_bird_10_n01820546_7575.png
subject-02,1,808,0.947781085968018,oven,bottle,120,0808_ps_s02_120_bottle_10_n03937543_10666.png
subject-02,1,809,0.65201997756958,chair,chair,30,0809_ps_s02_30_chair_10_n03376595_12364.png
subject-02,1,810,0.853622913360596,keyboard,keyboard,30,0810_ps_s02_30_keyboard_10_n04505470_494.png
subject-02,1,811,1.3376989364624,cat,bear,120,0811_ps_s02_120_bear_10_n02134084_4028.png
subject-02,1,812,1.18913292884827,elephant,knife,150,0812_ps_s02_150_knife_10_n03041632_14132.png
subject-02,1,813,1.01905298233032,truck,truck,60,0813_ps_s02_60_truck_10_n04467665_37833.png
subject-02,1,814,0.890641927719116,knife,knife,60,0814_ps_s02_60_knife_10_n03041632_20662.png
subject-02,1,815,1.03843116760254,bear,bear,120,0815_ps_s02_120_bear_10_n02134418_2561.png
subject-02,1,816,1.29636788368225,bottle,oven,30,0816_ps_s02_30_oven_10_n04111531_3902.png
subject-02,1,817,0.996196985244751,boat,elephant,150,0817_ps_s02_150_elephant_10_n02504458_952.png
subject-02,1,818,1.50005888938904,bicycle,truck,150,0818_ps_s02_150_truck_10_n03417042_5503.png
subject-02,1,819,0.967983961105347,airplane,airplane,30,0819_ps_s02_30_airplane_10_n02690373_3639.png
subject-02,1,820,1.14575600624084,bird,clock,180,0820_ps_s02_180_clock_10_n02708093_2482.png
subject-02,1,821,1.48957800865173,bird,dog,150,0821_ps_s02_150_dog_10_n02097209_821.png
subject-02,1,822,0.797666072845459,dog,dog,0,0822_ps_s02_0_dog_10_n02090379_3514.png
subject-02,1,823,0.887092113494873,elephant,elephant,120,0823_ps_s02_120_elephant_10_n02504013_1784.png
subject-02,1,824,1.50001287460327,bear,elephant,150,0824_ps_s02_150_elephant_10_n02504013_6776.png
subject-02,1,825,0.880974769592285,knife,knife,30,0825_ps_s02_30_knife_10_n03041632_20770.png
subject-02,1,826,1.06644487380981,dog,dog,0,0826_ps_s02_0_dog_10_n02107908_1423.png
subject-02,1,827,1.42460894584656,elephant,bottle,150,0827_ps_s02_150_bottle_10_n02823428_3711.png
subject-02,1,828,1.12220692634583,cat,airplane,150,0828_ps_s02_150_airplane_10_n02690373_9432.png
subject-02,1,829,1.22604990005493,airplane,dog,150,0829_ps_s02_150_dog_10_n02110063_5687.png
subject-02,1,830,0.723670959472656,oven,oven,0,0830_ps_s02_0_oven_10_n04111531_3202.png
subject-02,1,831,1.02550601959229,knife,knife,30,0831_ps_s02_30_knife_10_n03041632_36277.png
subject-02,1,832,1.50014805793762,keyboard,keyboard,90,0832_ps_s02_90_keyboard_10_n03085013_4914.png
subject-02,1,833,0.829203844070435,bottle,cat,180,0833_ps_s02_180_cat_10_n02123597_3944.png
subject-02,1,834,0.822973966598511,boat,chair,120,0834_ps_s02_120_chair_10_n03376595_10569.png
subject-02,1,835,0.796797037124634,car,car,30,0835_ps_s02_30_car_10_n04285008_5959.png
subject-02,1,836,1.02273201942444,cat,bottle,150,0836_ps_s02_150_bottle_10_n03937543_4783.png
subject-02,1,837,1.18843007087708,bird,oven,120,0837_ps_s02_120_oven_10_n04111531_986.png
subject-02,1,838,1.22235298156738,knife,clock,180,0838_ps_s02_180_clock_10_n03196217_6257.png
subject-02,1,839,0.632020950317383,cat,cat,90,0839_ps_s02_90_cat_10_n02124075_15001.png
subject-02,1,840,0.729988098144531,car,car,60,0840_ps_s02_60_car_10_n04285008_6410.png
subject-02,1,841,1.14981198310852,car,chair,120,0841_ps_s02_120_chair_10_n02791124_4319.png
subject-02,1,842,1.35550904273987,boat,bicycle,180,0842_ps_s02_180_bicycle_10_n02835271_7350.png
subject-02,1,843,0.79726505279541,bear,bear,30,0843_ps_s02_30_bear_10_n02133161_959.png
subject-02,1,844,0.647171974182129,clock,clock,120,0844_ps_s02_120_clock_10_n02708093_4061.png
subject-02,1,845,1.34711003303528,bear,cat,150,0845_ps_s02_150_cat_10_n02123394_270.png
subject-02,1,846,1.32864093780518,bird,dog,120,0846_ps_s02_120_dog_10_n02099849_4250.png
subject-02,1,847,1.06061196327209,airplane,airplane,150,0847_ps_s02_150_airplane_10_n02690373_8252.png
subject-02,1,848,0.852453947067261,car,car,30,0848_ps_s02_30_car_10_n03100240_6216.png
subject-02,1,849,0.976257085800171,truck,truck,0,0849_ps_s02_0_truck_10_n04467665_13231.png
subject-02,1,850,0.981886863708496,knife,knife,0,0850_ps_s02_0_knife_10_n03041632_927.png
subject-02,1,851,0.743638038635254,bottle,bottle,60,0851_ps_s02_60_bottle_10_n04579145_4385.png
subject-02,1,852,0.887541055679321,bottle,knife,150,0852_ps_s02_150_knife_10_n03041632_19275.png
subject-02,1,853,1.16933298110962,cat,bear,60,0853_ps_s02_60_bear_10_n02134418_2185.png
subject-02,1,854,0.88525390625,car,truck,120,0854_ps_s02_120_truck_10_n03417042_20962.png
subject-02,1,855,1.09535694122314,knife,airplane,90,0855_ps_s02_90_airplane_10_n02690373_1854.png
subject-02,1,856,1.10494303703308,elephant,elephant,0,0856_ps_s02_0_elephant_10_n02504013_5217.png
subject-02,1,857,0.896685838699341,bird,bird,180,0857_ps_s02_180_bird_10_n01820546_3828.png
subject-02,1,858,0.694520950317383,cat,cat,60,0858_ps_s02_60_cat_10_n02124075_12059.png
subject-02,1,859,0.956225872039795,keyboard,keyboard,30,0859_ps_s02_30_keyboard_10_n04505470_5111.png
subject-02,1,860,1.03008508682251,boat,dog,180,0860_ps_s02_180_dog_10_n02099429_4843.png
subject-02,1,861,1.22385716438293,truck,bottle,180,0861_ps_s02_180_bottle_10_n04579145_3302.png
subject-02,1,862,1.19776582717896,bicycle,knife,150,0862_ps_s02_150_knife_10_n03041632_16606.png
subject-02,1,863,0.891479015350342,keyboard,keyboard,60,0863_ps_s02_60_keyboard_10_n04505470_46.png
subject-02,1,864,1.19331097602844,cat,chair,120,0864_ps_s02_120_chair_10_n02791124_5823.png
subject-02,1,865,0.961179971694946,truck,truck,30,0865_ps_s02_30_truck_10_n04467665_23914.png
subject-02,1,866,0.873080015182495,airplane,airplane,60,0866_ps_s02_60_airplane_10_n02690373_7748.png
subject-02,1,867,1.00281882286072,bird,airplane,150,0867_ps_s02_150_airplane_10_n02690373_4070.png
subject-02,1,868,1.27292203903198,chair,oven,0,0868_ps_s02_0_oven_10_n04111531_22886.png
subject-02,1,869,1.18846797943115,knife,knife,0,0869_ps_s02_0_knife_10_n03041632_24561.png
subject-02,1,870,0.988157987594604,knife,knife,0,0870_ps_s02_0_knife_10_n03041632_22051.png
subject-02,1,871,0.923951148986816,bear,bear,60,0871_ps_s02_60_bear_10_n02133161_6152.png
subject-02,1,872,0.950155019760132,truck,truck,90,0872_ps_s02_90_truck_10_n04467665_22731.png
subject-02,1,873,0.837661981582642,boat,airplane,180,0873_ps_s02_180_airplane_10_n02690373_1592.png
subject-02,1,874,0.679394006729126,oven,oven,30,0874_ps_s02_30_oven_10_n04111531_2770.png
subject-02,1,875,0.907105922698975,cat,bear,180,0875_ps_s02_180_bear_10_n02132136_5146.png
subject-02,1,876,1.10897493362427,car,car,30,0876_ps_s02_30_car_10_n03100240_1294.png
subject-02,1,877,1.12276601791382,oven,chair,120,0877_ps_s02_120_chair_10_n02791124_2773.png
subject-02,1,878,1.2446300983429,chair,dog,150,0878_ps_s02_150_dog_10_n02108915_7875.png
subject-02,1,879,0.670495986938477,boat,bottle,150,0879_ps_s02_150_bottle_10_n04560804_14605.png
subject-02,1,880,NaN,na,keyboard,120,0880_ps_s02_120_keyboard_10_n03085013_23267.png
subject-02,1,881,0.983911037445068,keyboard,keyboard,90,0881_ps_s02_90_keyboard_10_n03085013_25443.png
subject-02,1,882,0.801704883575439,cat,bird,90,0882_ps_s02_90_bird_10_n01819313_5521.png
subject-02,1,883,1.0653018951416,cat,elephant,120,0883_ps_s02_120_elephant_10_n02504013_5945.png
subject-02,1,884,1.10312390327454,bird,bird,120,0884_ps_s02_120_bird_10_n02007558_7614.png
subject-02,1,885,0.917054176330566,bicycle,chair,180,0885_ps_s02_180_chair_10_n03376595_8377.png
subject-02,1,886,0.942840099334717,dog,dog,30,0886_ps_s02_30_dog_10_n02110958_1335.png
subject-02,1,887,0.910690069198608,bicycle,bicycle,120,0887_ps_s02_120_bicycle_10_n03792782_11272.png
subject-02,1,888,0.769030094146729,knife,knife,60,0888_ps_s02_60_knife_10_n03041632_1671.png
subject-02,1,889,0.992202043533325,oven,truck,180,0889_ps_s02_180_truck_10_n04467665_25129.png
subject-02,1,890,0.944278001785278,bird,bird,0,0890_ps_s02_0_bird_10_n02056570_9835.png
subject-02,1,891,1.06804585456848,dog,dog,90,0891_ps_s02_90_dog_10_n02100583_24297.png
subject-02,1,892,0.857891082763672,knife,knife,120,0892_ps_s02_120_knife_10_n03041632_48151.png
subject-02,1,893,1.30750799179077,boat,clock,120,0893_ps_s02_120_clock_10_n02708093_480.png
subject-02,1,894,1.05524587631226,bear,knife,150,0894_ps_s02_150_knife_10_n03041632_27879.png
subject-02,1,895,0.677284955978394,boat,truck,120,0895_ps_s02_120_truck_10_n03796401_4370.png
subject-02,1,896,0.820924043655396,cat,bottle,180,0896_ps_s02_180_bottle_10_n03983396_3408.png
subject-02,1,897,1.27692198753357,chair,chair,0,0897_ps_s02_0_chair_10_n02791124_16127.png
subject-02,1,898,0.814728021621704,cat,cat,30,0898_ps_s02_30_cat_10_n02125311_15293.png
subject-02,1,899,0.600489139556885,boat,boat,0,0899_ps_s02_0_boat_10_n04273569_4330.png
subject-02,1,900,1.12615609169006,bird,dog,120,0900_ps_s02_120_dog_10_n02086240_7359.png
subject-02,1,901,0.892040014266968,knife,car,120,0901_ps_s02_120_car_10_n03100240_14794.png
subject-02,1,902,0.6458580493927,bicycle,bicycle,0,0902_ps_s02_0_bicycle_10_n02835271_22549.png
subject-02,1,903,0.659664154052734,clock,clock,120,0903_ps_s02_120_clock_10_n04548280_13247.png
subject-02,1,904,1.10142803192139,bird,bird,0,0904_ps_s02_0_bird_10_n02013706_3221.png
subject-02,1,905,0.799417018890381,oven,bicycle,150,0905_ps_s02_150_bicycle_10_n03792782_6731.png
subject-02,1,906,1.0472240447998,airplane,airplane,30,0906_ps_s02_30_airplane_10_n02690373_2882.png
subject-02,1,907,0.772809028625488,boat,clock,150,0907_ps_s02_150_clock_10_n04548280_3301.png
subject-02,1,908,0.878777980804443,cat,clock,180,0908_ps_s02_180_clock_10_n02708093_960.png
subject-02,1,909,0.978656053543091,bear,knife,180,0909_ps_s02_180_knife_10_n03041632_18859.png
subject-02,1,910,1.15644192695618,bird,oven,180,0910_ps_s02_180_oven_10_n04111531_8330.png
subject-02,1,911,0.970489025115967,elephant,dog,120,0911_ps_s02_120_dog_10_n02100583_13688.png
subject-02,1,912,0.822187900543213,bear,airplane,150,0912_ps_s02_150_airplane_10_n02690373_13021.png
subject-02,1,913,0.961452007293701,keyboard,oven,0,0913_ps_s02_0_oven_10_n04111531_1488.png
subject-02,1,914,1.05791306495667,cat,keyboard,180,0914_ps_s02_180_keyboard_10_n03085013_4553.png
subject-02,1,915,0.78987717628479,keyboard,keyboard,90,0915_ps_s02_90_keyboard_10_n03085013_24192.png
subject-02,1,916,1.13563108444214,keyboard,keyboard,90,0916_ps_s02_90_keyboard_10_n03085013_20357.png
subject-02,1,917,0.749072074890137,bottle,bottle,30,0917_ps_s02_30_bottle_10_n04591713_5558.png
subject-02,1,918,0.698875904083252,car,car,120,0918_ps_s02_120_car_10_n02814533_13533.png
subject-02,1,919,0.876766920089722,oven,oven,60,0919_ps_s02_60_oven_10_n04111531_21980.png
subject-02,1,920,0.758533954620361,car,car,0,0920_ps_s02_0_car_10_n03100240_22290.png
subject-02,1,921,1.26038503646851,elephant,elephant,0,0921_ps_s02_0_elephant_10_n02504458_7200.png
subject-02,1,922,0.798096895217896,oven,oven,0,0922_ps_s02_0_oven_10_n04111531_15267.png
subject-02,1,923,1.20982980728149,bottle,oven,90,0923_ps_s02_90_oven_10_n04111531_274.png
subject-02,1,924,1.50005698204041,bird,bird,90,0924_ps_s02_90_bird_10_n02002724_12183.png
subject-02,1,925,0.833592891693115,car,car,150,0925_ps_s02_150_car_10_n04285008_8813.png
subject-02,1,926,0.667388916015625,bottle,bottle,60,0926_ps_s02_60_bottle_10_n02823428_880.png
subject-02,1,927,0.759037017822266,dog,dog,30,0927_ps_s02_30_dog_10_n02101388_5116.png
subject-02,1,928,1.13503384590149,bear,chair,150,0928_ps_s02_150_chair_10_n04099969_3768.png
subject-02,1,929,1.04320502281189,boat,airplane,150,0929_ps_s02_150_airplane_10_n02690373_3407.png
subject-02,1,930,1.17074108123779,oven,oven,60,0930_ps_s02_60_oven_10_n04111531_7345.png
subject-02,1,931,0.910322904586792,bear,bear,60,0931_ps_s02_60_bear_10_n02132136_686.png
subject-02,1,932,1.03421497344971,truck,truck,60,0932_ps_s02_60_truck_10_n03417042_13055.png
subject-02,1,933,1.01189613342285,airplane,airplane,0,0933_ps_s02_0_airplane_10_n02690373_4294.png
subject-02,1,934,0.853697061538696,bottle,bottle,30,0934_ps_s02_30_bottle_10_n04579145_3769.png
subject-02,1,935,1.43760204315186,airplane,oven,150,0935_ps_s02_150_oven_10_n04111531_7965.png
subject-02,1,936,1.08581495285034,bear,dog,120,0936_ps_s02_120_dog_10_n02086646_8144.png
subject-02,1,937,1.32528901100159,truck,chair,180,0937_ps_s02_180_chair_10_n03376595_208.png
subject-02,1,938,1.03109312057495,boat,oven,180,0938_ps_s02_180_oven_10_n04111531_6958.png
subject-02,1,939,0.822875022888184,bear,bear,30,0939_ps_s02_30_bear_10_n02133161_7032.png
subject-02,1,940,1.12257289886475,oven,clock,0,0940_ps_s02_0_clock_10_n03196217_8020.png
subject-02,1,941,1.04243516921997,cat,chair,180,0941_ps_s02_180_chair_10_n03376595_2809.png
subject-02,1,942,0.822350978851318,car,car,60,0942_ps_s02_60_car_10_n02814533_46401.png
subject-02,1,943,0.756052017211914,car,car,60,0943_ps_s02_60_car_10_n04285008_11990.png
subject-02,1,944,1.06432890892029,cat,bird,120,0944_ps_s02_120_bird_10_n02002556_2350.png
subject-02,1,945,0.929754972457886,knife,knife,90,0945_ps_s02_90_knife_10_n03041632_12242.png
subject-02,1,946,0.62165093421936,cat,cat,60,0946_ps_s02_60_cat_10_n02123159_6873.png
subject-02,1,947,0.957602977752686,cat,cat,90,0947_ps_s02_90_cat_10_n02125311_36138.png
subject-02,1,948,0.835536956787109,bear,elephant,150,0948_ps_s02_150_elephant_10_n02504458_6499.png
subject-02,1,949,1.03098487854004,bird,bird,30,0949_ps_s02_30_bird_10_n01817953_11996.png
subject-02,1,950,1.19299006462097,knife,truck,90,0950_ps_s02_90_truck_10_n03796401_7104.png
subject-02,1,951,0.844580888748169,boat,bear,150,0951_ps_s02_150_bear_10_n02134418_10318.png
subject-02,1,952,1.01509714126587,bear,bear,90,0952_ps_s02_90_bear_10_n02134418_836.png
subject-02,1,953,1.33639097213745,knife,knife,120,0953_ps_s02_120_knife_10_n03041632_13612.png
subject-02,1,954,1.02616906166077,cat,airplane,150,0954_ps_s02_150_airplane_10_n02690373_19353.png
subject-02,1,955,1.00195789337158,truck,truck,60,0955_ps_s02_60_truck_10_n03417042_13289.png
subject-02,1,956,1.20956802368164,chair,clock,30,0956_ps_s02_30_clock_10_n04548280_1109.png
subject-02,1,957,1.12942886352539,elephant,oven,90,0957_ps_s02_90_oven_10_n04111531_30110.png
subject-02,1,958,0.939417123794556,oven,oven,0,0958_ps_s02_0_oven_10_n04111531_6428.png
subject-02,1,959,0.773169994354248,clock,clock,30,0959_ps_s02_30_clock_10_n02708093_1125.png
subject-02,1,960,NaN,na,knife,120,0960_ps_s02_120_knife_10_n03041632_102828.png
subject-02,1,961,1.22390484809875,chair,knife,30,0961_ps_s02_30_knife_10_n03041632_25603.png
subject-02,1,962,1.16584897041321,bird,cat,90,0962_ps_s02_90_cat_10_n02123045_8722.png
subject-02,1,963,1.13943195343018,knife,knife,0,0963_ps_s02_0_knife_10_n03041632_33424.png
subject-02,1,964,0.80122184753418,bird,bird,60,0964_ps_s02_60_bird_10_n01560419_6863.png
subject-02,1,965,0.623160839080811,oven,oven,90,0965_ps_s02_90_oven_10_n04111531_4944.png
subject-02,1,966,0.958853006362915,boat,boat,60,0966_ps_s02_60_boat_10_n02951358_13017.png
subject-02,1,967,1.07066106796265,bear,airplane,180,0967_ps_s02_180_airplane_10_n02690373_7536.png
subject-02,1,968,0.794615983963013,keyboard,keyboard,0,0968_ps_s02_0_keyboard_10_n04505470_4974.png
subject-02,1,969,1.32844090461731,bottle,bottle,60,0969_ps_s02_60_bottle_10_n02823428_889.png
subject-02,1,970,0.740131139755249,chair,chair,60,0970_ps_s02_60_chair_10_n04099969_16382.png
subject-02,1,971,0.958024978637695,dog,cat,120,0971_ps_s02_120_cat_10_n02123597_5217.png
subject-02,1,972,0.655700922012329,airplane,airplane,120,0972_ps_s02_120_airplane_10_n02690373_18383.png
subject-02,1,973,0.723605155944824,bottle,bottle,0,0973_ps_s02_0_bottle_10_n04560804_2165.png
subject-02,1,974,1.02747392654419,car,car,60,0974_ps_s02_60_car_10_n03100240_13602.png
subject-02,1,975,0.959635019302368,bear,clock,150,0975_ps_s02_150_clock_10_n04548280_8314.png
subject-02,1,976,0.959012985229492,bicycle,bicycle,60,0976_ps_s02_60_bicycle_10_n03792782_1477.png
subject-02,1,977,0.726943969726562,boat,boat,90,0977_ps_s02_90_boat_10_n03344393_3072.png
subject-02,1,978,1.09667491912842,bird,bear,90,0978_ps_s02_90_bear_10_n02133161_160.png
subject-02,1,979,0.730499029159546,boat,boat,30,0979_ps_s02_30_boat_10_n03662601_4881.png
subject-02,1,980,1.0702600479126,knife,knife,60,0980_ps_s02_60_knife_10_n03041632_105081.png
subject-02,1,981,0.876373052597046,elephant,elephant,30,0981_ps_s02_30_elephant_10_n02504458_6602.png
subject-02,1,982,0.679866075515747,cat,boat,150,0982_ps_s02_150_boat_10_n04273569_1576.png
subject-02,1,983,1.03782916069031,car,car,90,0983_ps_s02_90_car_10_n03100240_6010.png
subject-02,1,984,1.16557693481445,bottle,knife,60,0984_ps_s02_60_knife_10_n03041632_36806.png
subject-02,1,985,0.819395065307617,bottle,bottle,90,0985_ps_s02_90_bottle_10_n03983396_3185.png
subject-02,1,986,1.31524515151978,oven,bottle,0,0986_ps_s02_0_bottle_10_n03983396_15006.png
subject-02,1,987,1.03505492210388,dog,dog,0,0987_ps_s02_0_dog_10_n02097047_705.png
subject-02,1,988,1.27488708496094,bottle,bear,120,0988_ps_s02_120_bear_10_n02134084_825.png
subject-02,1,989,1.15656995773315,boat,keyboard,150,0989_ps_s02_150_keyboard_10_n04505470_2709.png
subject-02,1,990,1.37243294715881,airplane,boat,120,0990_ps_s02_120_boat_10_n03662601_7271.png
subject-02,1,991,1.02235293388367,bottle,cat,180,0991_ps_s02_180_cat_10_n02123045_5422.png
subject-02,1,992,0.906082153320312,car,airplane,120,0992_ps_s02_120_airplane_10_n02690373_2648.png
subject-02,1,993,0.813838958740234,knife,knife,0,0993_ps_s02_0_knife_10_n03041632_9157.png
subject-02,1,994,0.917766809463501,boat,boat,120,0994_ps_s02_120_boat_10_n03344393_11315.png
subject-02,1,995,0.693580865859985,car,car,90,0995_ps_s02_90_car_10_n03100240_24001.png
subject-02,1,996,0.899226903915405,bear,cat,150,0996_ps_s02_150_cat_10_n02123597_3280.png
subject-02,1,997,0.999111890792847,dog,dog,30,0997_ps_s02_30_dog_10_n02108915_1165.png
subject-02,1,998,0.754969120025635,bird,bird,150,0998_ps_s02_150_bird_10_n01855032_1306.png
subject-02,1,999,0.718719005584717,clock,clock,90,0999_ps_s02_90_clock_10_n04548280_6743.png
subject-02,1,1000,1.09244298934937,cat,dog,180,1000_ps_s02_180_dog_10_n02099601_6318.png
subject-02,1,1001,1.43423199653625,dog,bear,30,1001_ps_s02_30_bear_10_n02132136_9367.png
subject-02,1,1002,1.02074790000916,keyboard,keyboard,180,1002_ps_s02_180_keyboard_10_n03085013_15576.png
subject-02,1,1003,0.995995998382568,airplane,elephant,180,1003_ps_s02_180_elephant_10_n02504458_4572.png
subject-02,1,1004,1.04360604286194,car,boat,150,1004_ps_s02_150_boat_10_n02951358_30995.png
subject-02,1,1005,0.82752799987793,airplane,airplane,90,1005_ps_s02_90_airplane_10_n02690373_3065.png
subject-02,1,1006,0.861362934112549,chair,chair,30,1006_ps_s02_30_chair_10_n03376595_15124.png
subject-02,1,1007,0.687287092208862,boat,bottle,150,1007_ps_s02_150_bottle_10_n04557648_8320.png
subject-02,1,1008,0.889350891113281,cat,oven,150,1008_ps_s02_150_oven_10_n04111531_4900.png
subject-02,1,1009,1.22295188903809,airplane,car,150,1009_ps_s02_150_car_10_n04285008_12696.png
subject-02,1,1010,0.898566007614136,car,car,120,1010_ps_s02_120_car_10_n02814533_19373.png
subject-02,1,1011,0.918287992477417,bear,bird,60,1011_ps_s02_60_bird_10_n02037110_4572.png
subject-02,1,1012,0.706377029418945,cat,cat,90,1012_ps_s02_90_cat_10_n02123045_12691.png
subject-02,1,1013,1.15004801750183,elephant,elephant,120,1013_ps_s02_120_elephant_10_n02504458_3511.png
subject-02,1,1014,1.22625684738159,car,chair,150,1014_ps_s02_150_chair_10_n02791124_7987.png
subject-02,1,1015,0.973779916763306,bear,truck,150,1015_ps_s02_150_truck_10_n03417042_10476.png
subject-02,1,1016,0.775543928146362,chair,chair,30,1016_ps_s02_30_chair_10_n04429376_21089.png
subject-02,1,1017,1.11720490455627,bear,bear,30,1017_ps_s02_30_bear_10_n02132136_21267.png
subject-02,1,1018,0.959113121032715,bottle,chair,60,1018_ps_s02_60_chair_10_n02791124_5898.png
subject-02,1,1019,1.13696789741516,bicycle,clock,90,1019_ps_s02_90_clock_10_n04548280_548.png
subject-02,1,1020,0.938814163208008,cat,boat,150,1020_ps_s02_150_boat_10_n04273569_62.png
subject-02,1,1021,0.640558004379272,chair,chair,90,1021_ps_s02_90_chair_10_n03376595_4155.png
subject-02,1,1022,0.734506130218506,bicycle,knife,60,1022_ps_s02_60_knife_10_n03041632_15299.png
subject-02,1,1023,1.39032483100891,chair,elephant,60,1023_ps_s02_60_elephant_10_n02504458_2103.png
subject-02,1,1024,1.07423901557922,knife,knife,0,1024_ps_s02_0_knife_10_n03041632_29961.png
subject-02,1,1025,0.711633205413818,boat,boat,30,1025_ps_s02_30_boat_10_n04273569_16064.png
subject-02,1,1026,0.989495038986206,bicycle,bicycle,120,1026_ps_s02_120_bicycle_10_n02835271_4138.png
subject-02,1,1027,0.931627035140991,knife,knife,90,1027_ps_s02_90_knife_10_n03041632_21472.png
subject-02,1,1028,1.22735500335693,bird,dog,150,1028_ps_s02_150_dog_10_n02109525_40708.png
subject-02,1,1029,1.40494203567505,knife,car,180,1029_ps_s02_180_car_10_n02814533_40459.png
subject-02,1,1030,1.04283308982849,truck,truck,30,1030_ps_s02_30_truck_10_n04467665_48875.png
subject-02,1,1031,0.754889965057373,bottle,bottle,30,1031_ps_s02_30_bottle_10_n03983396_4564.png
subject-02,1,1032,0.988659858703613,car,car,90,1032_ps_s02_90_car_10_n02814533_8499.png
subject-02,1,1033,0.73633599281311,boat,boat,30,1033_ps_s02_30_boat_10_n02951358_10151.png
subject-02,1,1034,1.016193151474,airplane,boat,150,1034_ps_s02_150_boat_10_n02951358_16728.png
subject-02,1,1035,1.50008010864258,oven,elephant,180,1035_ps_s02_180_elephant_10_n02504013_6984.png
subject-02,1,1036,0.879637956619263,bird,dog,150,1036_ps_s02_150_dog_10_n02089973_2756.png
subject-02,1,1037,1.17962408065796,bottle,oven,120,1037_ps_s02_120_oven_10_n04111531_2385.png
subject-02,1,1038,1.05931401252747,bottle,bottle,30,1038_ps_s02_30_bottle_10_n04557648_900.png
subject-02,1,1039,0.917246103286743,boat,boat,180,1039_ps_s02_180_boat_10_n03344393_2969.png
subject-02,1,1040,0.907019138336182,truck,truck,120,1040_ps_s02_120_truck_10_n04467665_51397.png
subject-02,1,1041,1.39464211463928,bicycle,bottle,120,1041_ps_s02_120_bottle_10_n03937543_5343.png
subject-02,1,1042,1.06436896324158,oven,cat,120,1042_ps_s02_120_cat_10_n02123159_1108.png
subject-02,1,1043,0.886120080947876,bicycle,bicycle,120,1043_ps_s02_120_bicycle_10_n02835271_13644.png
subject-02,1,1044,0.679995059967041,clock,clock,0,1044_ps_s02_0_clock_10_n04548280_2170.png
subject-02,1,1045,1.06218194961548,truck,oven,60,1045_ps_s02_60_oven_10_n04111531_9939.png
subject-02,1,1046,1.23989510536194,elephant,knife,60,1046_ps_s02_60_knife_10_n03041632_8321.png
subject-02,1,1047,0.823536157608032,clock,clock,30,1047_ps_s02_30_clock_10_n03196217_4537.png
subject-02,1,1048,0.913372039794922,bicycle,bicycle,30,1048_ps_s02_30_bicycle_10_n02835271_9860.png
subject-02,1,1049,0.949090003967285,boat,truck,150,1049_ps_s02_150_truck_10_n04467665_68754.png
subject-02,1,1050,0.922810077667236,car,oven,120,1050_ps_s02_120_oven_10_n04111531_5888.png
subject-02,1,1051,1.03907608985901,bear,bear,0,1051_ps_s02_0_bear_10_n02132136_3109.png
subject-02,1,1052,1.16481709480286,bicycle,clock,150,1052_ps_s02_150_clock_10_n04548280_21545.png
subject-02,1,1053,1.17853403091431,cat,car,150,1053_ps_s02_150_car_10_n02814533_39485.png
subject-02,1,1054,1.17825412750244,truck,truck,0,1054_ps_s02_0_truck_10_n03796401_4017.png
subject-02,1,1055,0.920125961303711,chair,chair,0,1055_ps_s02_0_chair_10_n04099969_1028.png
subject-02,1,1056,1.33186602592468,dog,cat,90,1056_ps_s02_90_cat_10_n02123597_13823.png
subject-02,1,1057,1.44360995292664,car,bottle,120,1057_ps_s02_120_bottle_10_n03983396_3294.png
subject-02,1,1058,0.757755041122437,truck,truck,30,1058_ps_s02_30_truck_10_n03417042_10401.png
subject-02,1,1059,0.779366016387939,keyboard,keyboard,90,1059_ps_s02_90_keyboard_10_n03085013_5726.png
subject-02,1,1060,1.07119393348694,bird,bird,0,1060_ps_s02_0_bird_10_n02011460_5925.png
subject-02,1,1061,0.928907871246338,bird,elephant,30,1061_ps_s02_30_elephant_10_n02504458_6336.png
subject-02,1,1062,1.02863097190857,keyboard,knife,150,1062_ps_s02_150_knife_10_n03041632_4808.png
subject-02,1,1063,1.10636186599731,truck,truck,0,1063_ps_s02_0_truck_10_n03417042_3482.png
subject-02,1,1064,1.15826106071472,bear,bear,150,1064_ps_s02_150_bear_10_n02134418_1642.png
subject-02,1,1065,0.620216131210327,bottle,bottle,120,1065_ps_s02_120_bottle_10_n04591713_2345.png
subject-02,1,1066,1.18826103210449,car,oven,180,1066_ps_s02_180_oven_10_n04111531_6695.png
subject-02,1,1067,1.14764499664307,bicycle,bird,150,1067_ps_s02_150_bird_10_n01833805_30804.png
subject-02,1,1068,1.50002813339233,bicycle,bicycle,90,1068_ps_s02_90_bicycle_10_n03792782_5494.png
subject-02,1,1069,0.777514934539795,bottle,bottle,90,1069_ps_s02_90_bottle_10_n03983396_12757.png
subject-02,1,1070,0.979032039642334,boat,car,180,1070_ps_s02_180_car_10_n02814533_39517.png
