subj,Session,trial,rt,object_response,category,condition,imagename
subject-03,1,1,1.02795696258545,boat,bottle,60,0001_ps_s03_60_bottle_10_n02823428_889.png
subject-03,1,2,0.91179895401001,airplane,airplane,90,0002_ps_s03_90_airplane_10_n02690373_1696.png
subject-03,1,3,0.539807081222534,knife,knife,30,0003_ps_s03_30_knife_10_n03041632_20770.png
subject-03,1,4,0.937772989273071,bottle,truck,150,0004_ps_s03_150_truck_10_n03417042_1279.png
subject-03,1,5,0.601234912872314,bicycle,bicycle,30,0005_ps_s03_30_bicycle_10_n03792782_8374.png
subject-03,1,6,0.961323976516724,elephant,elephant,30,0006_ps_s03_30_elephant_10_n02504458_7033.png
subject-03,1,7,0.928899765014648,boat,car,180,0007_ps_s03_180_car_10_n04285008_11770.png
subject-03,1,8,0.857043981552124,bottle,bottle,30,0008_ps_s03_30_bottle_10_n04591713_5558.png
subject-03,1,9,0.71644401550293,boat,airplane,150,0009_ps_s03_150_airplane_10_n02690373_9432.png
subject-03,1,10,0.708317995071411,airplane,airplane,60,0010_ps_s03_60_airplane_10_n02690373_10399.png
subject-03,1,11,0.704149007797241,clock,bear,120,0011_ps_s03_120_bear_10_n02132136_3616.png
subject-03,1,12,0.930129051208496,knife,knife,0,0012_ps_s03_0_knife_10_n03041632_62810.png
subject-03,1,13,0.789925098419189,boat,bird,180,0013_ps_s03_180_bird_10_n01534433_10801.png
subject-03,1,14,0.875602006912231,keyboard,keyboard,0,0014_ps_s03_0_keyboard_10_n04505470_9514.png
subject-03,1,15,0.805247068405151,boat,bottle,60,0015_ps_s03_60_bottle_10_n03983396_2205.png
subject-03,1,16,0.687397956848145,bird,bird,90,0016_ps_s03_90_bird_10_n01530575_35115.png
subject-03,1,17,0.668954849243164,cat,cat,90,0017_ps_s03_90_cat_10_n02123394_702.png
subject-03,1,18,0.766785144805908,clock,dog,150,0018_ps_s03_150_dog_10_n02109525_40708.png
subject-03,1,19,0.626622915267944,bear,bear,0,0019_ps_s03_0_bear_10_n02134418_2324.png
subject-03,1,20,0.664427042007446,cat,cat,0,0020_ps_s03_0_cat_10_n02123394_6517.png
subject-03,1,21,0.914345979690552,car,car,0,0021_ps_s03_0_car_10_n04285008_1867.png
subject-03,1,22,0.870031833648682,cat,knife,30,0022_ps_s03_30_knife_10_n03041632_3063.png
subject-03,1,23,1.29394793510437,boat,keyboard,150,0023_ps_s03_150_keyboard_10_n04505470_1076.png
subject-03,1,24,0.97188401222229,oven,oven,150,0024_ps_s03_150_oven_10_n04111531_15296.png
subject-03,1,25,1.04346299171448,elephant,knife,90,0025_ps_s03_90_knife_10_n03041632_25498.png
subject-03,1,26,0.701529979705811,truck,truck,60,0026_ps_s03_60_truck_10_n03417042_18374.png
subject-03,1,27,1.16704797744751,bird,boat,150,0027_ps_s03_150_boat_10_n04273569_62.png
subject-03,1,28,0.948935985565186,bear,bear,180,0028_ps_s03_180_bear_10_n02132136_20883.png
subject-03,1,29,0.798708915710449,car,car,60,0029_ps_s03_60_car_10_n02814533_38071.png
subject-03,1,30,0.876748085021973,knife,cat,180,0030_ps_s03_180_cat_10_n02123597_3944.png
subject-03,1,31,0.976285219192505,knife,knife,60,0031_ps_s03_60_knife_10_n03041632_4714.png
subject-03,1,32,0.898185014724731,clock,car,150,0032_ps_s03_150_car_10_n02814533_85659.png
subject-03,1,33,0.632050037384033,boat,clock,180,0033_ps_s03_180_clock_10_n03196217_4492.png
subject-03,1,34,0.639739036560059,boat,elephant,180,0034_ps_s03_180_elephant_10_n02504013_698.png
subject-03,1,35,0.771675825119019,elephant,elephant,90,0035_ps_s03_90_elephant_10_n02504013_3081.png
subject-03,1,36,0.621587991714478,bird,bird,90,0036_ps_s03_90_bird_10_n01601694_2723.png
subject-03,1,37,0.74352502822876,bear,bear,150,0037_ps_s03_150_bear_10_n02133161_2340.png
subject-03,1,38,0.883117914199829,bicycle,keyboard,150,0038_ps_s03_150_keyboard_10_n03085013_15162.png
subject-03,1,39,0.654864072799683,airplane,airplane,90,0039_ps_s03_90_airplane_10_n02690373_19118.png
subject-03,1,40,0.802574872970581,boat,boat,90,0040_ps_s03_90_boat_10_n03344393_3072.png
subject-03,1,41,0.924504995346069,airplane,truck,60,0041_ps_s03_60_truck_10_n04467665_67115.png
subject-03,1,42,1.03223991394043,bear,dog,150,0042_ps_s03_150_dog_10_n02089973_2756.png
subject-03,1,43,0.738069772720337,elephant,elephant,90,0043_ps_s03_90_elephant_10_n02504458_3153.png
subject-03,1,44,1.03589916229248,knife,bottle,120,0044_ps_s03_120_bottle_10_n04557648_1136.png
subject-03,1,45,0.799916982650757,keyboard,keyboard,30,0045_ps_s03_30_keyboard_10_n04505470_6963.png
subject-03,1,46,0.655588150024414,truck,truck,90,0046_ps_s03_90_truck_10_n03417042_5228.png
subject-03,1,47,0.545460939407349,clock,clock,60,0047_ps_s03_60_clock_10_n04548280_5734.png
subject-03,1,48,0.78703784942627,car,truck,120,0048_ps_s03_120_truck_10_n03796401_28190.png
subject-03,1,49,0.842911958694458,bicycle,bicycle,60,0049_ps_s03_60_bicycle_10_n02835271_4730.png
subject-03,1,50,1.23869204521179,bear,bear,60,0050_ps_s03_60_bear_10_n02134084_21921.png
subject-03,1,51,0.742652893066406,car,dog,180,0051_ps_s03_180_dog_10_n02105162_9615.png
subject-03,1,52,0.764412879943848,clock,chair,120,0052_ps_s03_120_chair_10_n02791124_4319.png
subject-03,1,53,0.652318954467773,boat,oven,120,0053_ps_s03_120_oven_10_n04111531_2922.png
subject-03,1,54,0.651999950408936,cat,cat,0,0054_ps_s03_0_cat_10_n02123045_10887.png
subject-03,1,55,0.636057138442993,airplane,airplane,60,0055_ps_s03_60_airplane_10_n02690373_243.png
subject-03,1,56,0.910104990005493,bird,dog,150,0056_ps_s03_150_dog_10_n02110806_2269.png
subject-03,1,57,0.673888921737671,bicycle,bicycle,60,0057_ps_s03_60_bicycle_10_n03792782_1477.png
subject-03,1,58,1.16133499145508,airplane,car,180,0058_ps_s03_180_car_10_n03100240_4619.png
subject-03,1,59,0.687126874923706,airplane,elephant,180,0059_ps_s03_180_elephant_10_n02504013_5021.png
subject-03,1,60,0.907013893127441,clock,chair,120,0060_ps_s03_120_chair_10_n04429376_16869.png
subject-03,1,61,0.976883172988892,knife,bottle,0,0061_ps_s03_0_bottle_10_n03937543_3079.png
subject-03,1,62,1.01073598861694,cat,elephant,180,0062_ps_s03_180_elephant_10_n02504013_3029.png
subject-03,1,63,0.788789033889771,airplane,truck,120,0063_ps_s03_120_truck_10_n04467665_51397.png
subject-03,1,64,0.752145051956177,bicycle,knife,120,0064_ps_s03_120_knife_10_n03041632_36280.png
subject-03,1,65,0.572016000747681,clock,clock,90,0065_ps_s03_90_clock_10_n04548280_6022.png
subject-03,1,66,0.875952005386353,bicycle,bicycle,120,0066_ps_s03_120_bicycle_10_n02835271_19213.png
subject-03,1,67,0.937669992446899,bird,bird,60,0067_ps_s03_60_bird_10_n01560419_6863.png
subject-03,1,68,0.823467016220093,bird,bird,0,0068_ps_s03_0_bird_10_n01817953_2257.png
subject-03,1,69,0.745253086090088,bicycle,bird,90,0069_ps_s03_90_bird_10_n01582220_261.png
subject-03,1,70,0.877120018005371,clock,oven,0,0070_ps_s03_0_oven_10_n04111531_22886.png
subject-03,1,71,0.924815893173218,bicycle,bicycle,0,0071_ps_s03_0_bicycle_10_n02835271_4963.png
subject-03,1,72,0.806611776351929,dog,dog,60,0072_ps_s03_60_dog_10_n02090721_1105.png
subject-03,1,73,0.750670909881592,truck,truck,30,0073_ps_s03_30_truck_10_n04467665_6523.png
subject-03,1,74,1.14062905311584,car,car,120,0074_ps_s03_120_car_10_n04285008_13247.png
subject-03,1,75,0.692528009414673,cat,cat,90,0075_ps_s03_90_cat_10_n02123597_13823.png
subject-03,1,76,0.595971822738647,keyboard,keyboard,0,0076_ps_s03_0_keyboard_10_n04505470_1342.png
subject-03,1,77,0.622269868850708,car,car,120,0077_ps_s03_120_car_10_n04285008_3884.png
subject-03,1,78,0.767457962036133,elephant,elephant,60,0078_ps_s03_60_elephant_10_n02504458_6715.png
subject-03,1,79,0.707731008529663,bear,bird,150,0079_ps_s03_150_bird_10_n01833805_30804.png
subject-03,1,80,0.559151172637939,cat,cat,30,0080_ps_s03_30_cat_10_n02123045_11826.png
subject-03,1,81,0.88870096206665,airplane,airplane,90,0081_ps_s03_90_airplane_10_n02690373_1854.png
subject-03,1,82,0.814389944076538,truck,truck,90,0082_ps_s03_90_truck_10_n03796401_6772.png
subject-03,1,83,0.616265058517456,boat,bear,150,0083_ps_s03_150_bear_10_n02134084_3860.png
subject-03,1,84,0.710241079330444,bird,bird,0,0084_ps_s03_0_bird_10_n02011460_5925.png
subject-03,1,85,0.815810203552246,bicycle,bicycle,90,0085_ps_s03_90_bicycle_10_n02835271_22739.png
subject-03,1,86,0.821799993515015,airplane,boat,120,0086_ps_s03_120_boat_10_n03662601_7885.png
subject-03,1,87,0.92209005355835,cat,cat,90,0087_ps_s03_90_cat_10_n02123045_12691.png
subject-03,1,88,0.857363939285278,bottle,knife,60,0088_ps_s03_60_knife_10_n03041632_105581.png
subject-03,1,89,0.849536895751953,knife,car,120,0089_ps_s03_120_car_10_n03100240_14794.png
subject-03,1,90,0.628738880157471,truck,truck,60,0090_ps_s03_60_truck_10_n03796401_8037.png
subject-03,1,91,0.754711151123047,knife,knife,90,0091_ps_s03_90_knife_10_n03041632_24100.png
subject-03,1,92,0.612522840499878,boat,boat,60,0092_ps_s03_60_boat_10_n03344393_3499.png
subject-03,1,93,0.680482864379883,clock,clock,180,0093_ps_s03_180_clock_10_n02708093_960.png
subject-03,1,94,1.17817711830139,bear,boat,0,0094_ps_s03_0_boat_10_n02951358_12713.png
subject-03,1,95,0.965921878814697,clock,chair,60,0095_ps_s03_60_chair_10_n04429376_6141.png
subject-03,1,96,0.750214099884033,dog,dog,30,0096_ps_s03_30_dog_10_n02110958_1335.png
subject-03,1,97,1.39957499504089,truck,truck,90,0097_ps_s03_90_truck_10_n03417042_12711.png
subject-03,1,98,0.773399114608765,elephant,elephant,30,0098_ps_s03_30_elephant_10_n02504458_8644.png
subject-03,1,99,1.05328702926636,cat,elephant,120,0099_ps_s03_120_elephant_10_n02504013_1784.png
subject-03,1,100,0.66100811958313,clock,bird,120,0100_ps_s03_120_bird_10_n02009229_5172.png
subject-03,1,101,1.34080791473389,bear,clock,180,0101_ps_s03_180_clock_10_n02708093_1352.png
subject-03,1,102,0.874842882156372,cat,dog,180,0102_ps_s03_180_dog_10_n02108000_5623.png
subject-03,1,103,0.550506114959717,boat,chair,150,0103_ps_s03_150_chair_10_n04429376_6242.png
subject-03,1,104,0.784378051757812,bear,bear,60,0104_ps_s03_60_bear_10_n02134084_9253.png
subject-03,1,105,0.538234949111938,boat,elephant,180,0105_ps_s03_180_elephant_10_n02504458_4207.png
subject-03,1,106,1.11595797538757,truck,car,90,0106_ps_s03_90_car_10_n04285008_17056.png
subject-03,1,107,0.635994911193848,boat,boat,60,0107_ps_s03_60_boat_10_n04612504_14699.png
subject-03,1,108,0.72967004776001,car,keyboard,150,0108_ps_s03_150_keyboard_10_n03085013_4999.png
subject-03,1,109,0.815478086471558,keyboard,keyboard,0,0109_ps_s03_0_keyboard_10_n03085013_2166.png
subject-03,1,110,0.595286130905151,boat,boat,90,0110_ps_s03_90_boat_10_n04273569_7733.png
subject-03,1,111,0.9291090965271,cat,dog,120,0111_ps_s03_120_dog_10_n02100583_13688.png
subject-03,1,112,0.732649803161621,cat,dog,0,0112_ps_s03_0_dog_10_n02097047_705.png
subject-03,1,113,0.880681991577148,knife,knife,0,0113_ps_s03_0_knife_10_n03041632_22051.png
subject-03,1,114,0.738384008407593,bear,bottle,150,0114_ps_s03_150_bottle_10_n03937543_964.png
subject-03,1,115,0.824268102645874,bottle,bottle,60,0115_ps_s03_60_bottle_10_n04579145_4385.png
subject-03,1,116,0.658054828643799,boat,cat,120,0116_ps_s03_120_cat_10_n02123159_1108.png
subject-03,1,117,0.720178842544556,bicycle,bear,150,0117_ps_s03_150_bear_10_n02134084_17572.png
subject-03,1,118,1.07170009613037,car,car,90,0118_ps_s03_90_car_10_n02814533_52627.png
subject-03,1,119,0.951822996139526,bear,truck,150,0119_ps_s03_150_truck_10_n03417042_6250.png
subject-03,1,120,0.939450979232788,bicycle,bicycle,0,0120_ps_s03_0_bicycle_10_n03792782_23912.png
subject-03,1,121,0.835327863693237,clock,dog,180,0121_ps_s03_180_dog_10_n02099601_6318.png
subject-03,1,122,0.924787044525146,airplane,cat,150,0122_ps_s03_150_cat_10_n02125311_5570.png
subject-03,1,123,0.884646892547607,airplane,airplane,90,0123_ps_s03_90_airplane_10_n02690373_21731.png
subject-03,1,124,0.66476583480835,boat,boat,120,0124_ps_s03_120_boat_10_n04612504_2024.png
subject-03,1,125,0.834262847900391,bicycle,elephant,180,0125_ps_s03_180_elephant_10_n02504013_17589.png
subject-03,1,126,0.810659170150757,truck,airplane,150,0126_ps_s03_150_airplane_10_n02690373_16250.png
subject-03,1,127,0.730080127716064,airplane,airplane,60,0127_ps_s03_60_airplane_10_n02690373_1706.png
subject-03,1,128,0.696324110031128,chair,chair,30,0128_ps_s03_30_chair_10_n04429376_21089.png
subject-03,1,129,0.507446050643921,boat,boat,60,0129_ps_s03_60_boat_10_n04273569_4978.png
subject-03,1,130,1.09736013412476,car,truck,120,0130_ps_s03_120_truck_10_n03796401_2007.png
subject-03,1,131,0.609210014343262,boat,truck,150,0131_ps_s03_150_truck_10_n04467665_48953.png
subject-03,1,132,0.614976167678833,truck,boat,150,0132_ps_s03_150_boat_10_n02951358_30995.png
subject-03,1,133,0.906996011734009,bicycle,elephant,150,0133_ps_s03_150_elephant_10_n02504013_6776.png
subject-03,1,134,0.700501918792725,elephant,elephant,120,0134_ps_s03_120_elephant_10_n02504013_2340.png
subject-03,1,135,1.12851595878601,car,chair,90,0135_ps_s03_90_chair_10_n02791124_1941.png
subject-03,1,136,0.580421924591064,cat,cat,60,0136_ps_s03_60_cat_10_n02123045_7483.png
subject-03,1,137,0.958089828491211,bear,bottle,120,0137_ps_s03_120_bottle_10_n03983396_8143.png
subject-03,1,138,0.746088981628418,boat,boat,0,0138_ps_s03_0_boat_10_n03662601_23248.png
subject-03,1,139,0.952019929885864,bicycle,bicycle,30,0139_ps_s03_30_bicycle_10_n02835271_2505.png
subject-03,1,140,0.957544088363647,airplane,keyboard,180,0140_ps_s03_180_keyboard_10_n03085013_23014.png
subject-03,1,141,1.12531590461731,bird,bird,0,0141_ps_s03_0_bird_10_n02027492_15639.png
subject-03,1,142,0.567091941833496,clock,clock,0,0142_ps_s03_0_clock_10_n02708093_340.png
subject-03,1,143,1.09913492202759,bird,clock,30,0143_ps_s03_30_clock_10_n03196217_6348.png
subject-03,1,144,0.674916982650757,boat,car,150,0144_ps_s03_150_car_10_n04285008_12696.png
subject-03,1,145,0.978721141815186,car,car,0,0145_ps_s03_0_car_10_n02814533_95144.png
subject-03,1,146,1.02226614952087,knife,knife,90,0146_ps_s03_90_knife_10_n03041632_12242.png
subject-03,1,147,0.802233934402466,boat,boat,0,0147_ps_s03_0_boat_10_n02951358_15218.png
subject-03,1,148,1.06798481941223,truck,truck,30,0148_ps_s03_30_truck_10_n04467665_20622.png
subject-03,1,149,0.712073087692261,bottle,bottle,0,0149_ps_s03_0_bottle_10_n03937543_4850.png
subject-03,1,150,0.749779939651489,knife,knife,30,0150_ps_s03_30_knife_10_n03041632_3717.png
subject-03,1,151,0.5816969871521,boat,knife,150,0151_ps_s03_150_knife_10_n03041632_14132.png
subject-03,1,152,0.70133900642395,bottle,bottle,90,0152_ps_s03_90_bottle_10_n02823428_4386.png
subject-03,1,153,0.577542781829834,cat,cat,60,0153_ps_s03_60_cat_10_n02123045_568.png
subject-03,1,154,0.688911914825439,boat,boat,60,0154_ps_s03_60_boat_10_n02951358_1911.png
subject-03,1,155,0.88057017326355,car,car,30,0155_ps_s03_30_car_10_n03100240_12777.png
subject-03,1,156,0.98275899887085,airplane,airplane,0,0156_ps_s03_0_airplane_10_n02690373_1952.png
subject-03,1,157,0.840413808822632,airplane,airplane,30,0157_ps_s03_30_airplane_10_n02690373_3639.png
subject-03,1,158,0.67206597328186,boat,truck,180,0158_ps_s03_180_truck_10_n04467665_670.png
subject-03,1,159,0.997977018356323,clock,car,150,0159_ps_s03_150_car_10_n04285008_13076.png
subject-03,1,160,0.661776065826416,car,car,60,0160_ps_s03_60_car_10_n03100240_17349.png
subject-03,1,161,0.783493041992188,oven,oven,0,0161_ps_s03_0_oven_10_n04111531_2342.png
subject-03,1,162,0.721204042434692,oven,oven,60,0162_ps_s03_60_oven_10_n04111531_21980.png
subject-03,1,163,0.732071161270142,truck,truck,30,0163_ps_s03_30_truck_10_n03417042_10401.png
subject-03,1,164,0.859203100204468,bicycle,bicycle,120,0164_ps_s03_120_bicycle_10_n03792782_11272.png
subject-03,1,165,0.650737047195435,chair,chair,60,0165_ps_s03_60_chair_10_n04429376_10449.png
subject-03,1,166,0.58244800567627,cat,chair,150,0166_ps_s03_150_chair_10_n04099969_3768.png
subject-03,1,167,0.546220064163208,truck,truck,30,0167_ps_s03_30_truck_10_n04467665_23914.png
subject-03,1,168,0.508028984069824,boat,airplane,180,0168_ps_s03_180_airplane_10_n02690373_9959.png
subject-03,1,169,0.755845069885254,bicycle,keyboard,180,0169_ps_s03_180_keyboard_10_n04505470_5062.png
subject-03,1,170,0.781682014465332,airplane,knife,150,0170_ps_s03_150_knife_10_n03041632_19614.png
subject-03,1,171,0.915343999862671,clock,truck,90,0171_ps_s03_90_truck_10_n03796401_7104.png
subject-03,1,172,0.695436954498291,airplane,airplane,90,0172_ps_s03_90_airplane_10_n02690373_19133.png
subject-03,1,173,0.725197076797485,chair,chair,30,0173_ps_s03_30_chair_10_n03376595_10332.png
subject-03,1,174,0.590970039367676,cat,cat,0,0174_ps_s03_0_cat_10_n02123045_12297.png
subject-03,1,175,0.762883901596069,boat,chair,30,0175_ps_s03_30_chair_10_n04099969_8401.png
subject-03,1,176,0.816693782806396,bicycle,boat,150,0176_ps_s03_150_boat_10_n04273569_1576.png
subject-03,1,177,0.642365217208862,bicycle,boat,60,0177_ps_s03_60_boat_10_n02951358_13017.png
subject-03,1,178,0.696435928344727,keyboard,keyboard,60,0178_ps_s03_60_keyboard_10_n03085013_17795.png
subject-03,1,179,0.89207911491394,boat,car,180,0179_ps_s03_180_car_10_n03100240_18276.png
subject-03,1,180,0.769727230072021,keyboard,keyboard,0,0180_ps_s03_0_keyboard_10_n04505470_1117.png
subject-03,1,181,0.69179105758667,clock,cat,150,0181_ps_s03_150_cat_10_n02123597_3280.png
subject-03,1,182,0.941514015197754,bear,bottle,150,0182_ps_s03_150_bottle_10_n02823428_3711.png
subject-03,1,183,0.805294036865234,keyboard,keyboard,90,0183_ps_s03_90_keyboard_10_n04505470_986.png
subject-03,1,184,0.725187063217163,clock,clock,0,0184_ps_s03_0_clock_10_n04548280_4426.png
subject-03,1,185,0.639214038848877,clock,clock,120,0185_ps_s03_120_clock_10_n02708093_4061.png
subject-03,1,186,0.636669158935547,bear,dog,60,0186_ps_s03_60_dog_10_n02104365_1262.png
subject-03,1,187,0.692384958267212,boat,keyboard,120,0187_ps_s03_120_keyboard_10_n03085013_7752.png
subject-03,1,188,0.770256996154785,car,cat,150,0188_ps_s03_150_cat_10_n02123394_270.png
subject-03,1,189,1.02855706214905,airplane,airplane,60,0189_ps_s03_60_airplane_10_n02690373_4728.png
subject-03,1,190,0.70213794708252,boat,boat,150,0190_ps_s03_150_boat_10_n02951358_16728.png
subject-03,1,191,0.685857057571411,elephant,elephant,0,0191_ps_s03_0_elephant_10_n02504013_3087.png
subject-03,1,192,0.751688003540039,bicycle,chair,60,0192_ps_s03_60_chair_10_n02791124_5898.png
subject-03,1,193,0.575314044952393,car,car,60,0193_ps_s03_60_car_10_n04285008_6410.png
subject-03,1,194,0.591515064239502,boat,car,180,0194_ps_s03_180_car_10_n04285008_15213.png
subject-03,1,195,0.737003087997437,keyboard,keyboard,0,0195_ps_s03_0_keyboard_10_n03085013_2189.png
subject-03,1,196,0.648952007293701,clock,clock,30,0196_ps_s03_30_clock_10_n03196217_4537.png
subject-03,1,197,0.764724969863892,boat,airplane,180,0197_ps_s03_180_airplane_10_n02690373_8382.png
subject-03,1,198,0.6943199634552,bear,clock,180,0198_ps_s03_180_clock_10_n02708093_2482.png
subject-03,1,199,0.978102922439575,bicycle,bottle,150,0199_ps_s03_150_bottle_10_n04557648_8320.png
subject-03,1,200,1.01810908317566,oven,clock,150,0200_ps_s03_150_clock_10_n04548280_8314.png
subject-03,1,201,0.621818065643311,boat,bicycle,180,0201_ps_s03_180_bicycle_10_n02835271_7350.png
subject-03,1,202,0.761751890182495,keyboard,keyboard,60,0202_ps_s03_60_keyboard_10_n03085013_21490.png
subject-03,1,203,0.777791976928711,bear,bear,90,0203_ps_s03_90_bear_10_n02133161_4043.png
subject-03,1,204,1.13547110557556,bottle,boat,30,0204_ps_s03_30_boat_10_n03344393_8374.png
subject-03,1,205,0.759242057800293,cat,bird,150,0205_ps_s03_150_bird_10_n02007558_7783.png
subject-03,1,206,0.664865016937256,boat,boat,30,0206_ps_s03_30_boat_10_n03344393_5296.png
subject-03,1,207,0.866855144500732,dog,dog,0,0207_ps_s03_0_dog_10_n02106662_15515.png
subject-03,1,208,1.03869700431824,dog,dog,30,0208_ps_s03_30_dog_10_n02108915_1165.png
subject-03,1,209,1.00465703010559,car,dog,60,0209_ps_s03_60_dog_10_n02097658_759.png
subject-03,1,210,0.93864893913269,knife,knife,90,0210_ps_s03_90_knife_10_n03041632_52371.png
subject-03,1,211,1.13203310966492,bear,bear,30,0211_ps_s03_30_bear_10_n02133161_959.png
subject-03,1,212,0.643874168395996,boat,keyboard,180,0212_ps_s03_180_keyboard_10_n03085013_23254.png
subject-03,1,213,1.20557308197021,cat,dog,60,0213_ps_s03_60_dog_10_n02086240_7247.png
subject-03,1,214,0.915733814239502,dog,dog,60,0214_ps_s03_60_dog_10_n02099429_3814.png
subject-03,1,215,0.651441097259521,bicycle,bicycle,0,0215_ps_s03_0_bicycle_10_n02835271_7794.png
subject-03,1,216,0.577256917953491,bicycle,bicycle,90,0216_ps_s03_90_bicycle_10_n03792782_55532.png
subject-03,1,217,0.507004976272583,cat,cat,30,0217_ps_s03_30_cat_10_n02124075_11776.png
subject-03,1,218,0.732808828353882,bottle,bottle,30,0218_ps_s03_30_bottle_10_n03983396_11519.png
subject-03,1,219,0.656425952911377,boat,boat,0,0219_ps_s03_0_boat_10_n03662601_37095.png
subject-03,1,220,0.848315000534058,truck,truck,90,0220_ps_s03_90_truck_10_n03417042_3238.png
subject-03,1,221,0.816053152084351,knife,knife,60,0221_ps_s03_60_knife_10_n03041632_24060.png
subject-03,1,222,0.594025850296021,airplane,airplane,0,0222_ps_s03_0_airplane_10_n02690373_1325.png
subject-03,1,223,1.39984488487244,airplane,keyboard,180,0223_ps_s03_180_keyboard_10_n03085013_25675.png
subject-03,1,224,0.521624088287354,boat,truck,180,0224_ps_s03_180_truck_10_n04467665_23173.png
subject-03,1,225,0.895397186279297,dog,bicycle,90,0225_ps_s03_90_bicycle_10_n03792782_12561.png
subject-03,1,226,0.727085113525391,cat,knife,180,0226_ps_s03_180_knife_10_n03041632_2973.png
subject-03,1,227,0.981121778488159,bear,bear,150,0227_ps_s03_150_bear_10_n02134418_1642.png
subject-03,1,228,1.05128717422485,bicycle,elephant,90,0228_ps_s03_90_elephant_10_n02504013_8856.png
subject-03,1,229,0.618636131286621,bird,cat,150,0229_ps_s03_150_cat_10_n02125311_11409.png
subject-03,1,230,0.800888776779175,car,oven,150,0230_ps_s03_150_oven_10_n04111531_5643.png
subject-03,1,231,0.862208127975464,bird,bird,30,0231_ps_s03_30_bird_10_n02056570_4808.png
subject-03,1,232,0.890294075012207,boat,dog,150,0232_ps_s03_150_dog_10_n02110063_5687.png
subject-03,1,233,0.788129091262817,airplane,airplane,30,0233_ps_s03_30_airplane_10_n02690373_11799.png
subject-03,1,234,1.37372303009033,car,car,0,0234_ps_s03_0_car_10_n03100240_2108.png
subject-03,1,235,1.1116418838501,airplane,airplane,120,0235_ps_s03_120_airplane_10_n02690373_13610.png
subject-03,1,236,0.797269821166992,car,car,30,0236_ps_s03_30_car_10_n02814533_40344.png
subject-03,1,237,0.723044157028198,car,car,0,0237_ps_s03_0_car_10_n03100240_4343.png
subject-03,1,238,0.777024030685425,boat,bottle,150,0238_ps_s03_150_bottle_10_n03937543_793.png
subject-03,1,239,0.785155057907104,chair,oven,150,0239_ps_s03_150_oven_10_n04111531_4900.png
subject-03,1,240,0.648710012435913,bottle,boat,180,0240_ps_s03_180_boat_10_n03662601_15915.png
subject-03,1,241,0.754083871841431,truck,elephant,150,0241_ps_s03_150_elephant_10_n02504013_7305.png
subject-03,1,242,0.812373876571655,elephant,elephant,60,0242_ps_s03_60_elephant_10_n02504458_3614.png
subject-03,1,243,0.831680059432983,cat,cat,0,0243_ps_s03_0_cat_10_n02123159_6206.png
subject-03,1,244,0.821706056594849,car,oven,180,0244_ps_s03_180_oven_10_n04111531_8330.png
subject-03,1,245,1.12952518463135,bottle,oven,0,0245_ps_s03_0_oven_10_n04111531_6428.png
subject-03,1,246,1.06340289115906,bicycle,bird,180,0246_ps_s03_180_bird_10_n02028035_14461.png
subject-03,1,247,0.835134983062744,boat,cat,180,0247_ps_s03_180_cat_10_n02123394_6362.png
subject-03,1,248,0.840945959091187,bear,knife,180,0248_ps_s03_180_knife_10_n03041632_24277.png
subject-03,1,249,0.886773109436035,car,airplane,180,0249_ps_s03_180_airplane_10_n02690373_1592.png
subject-03,1,250,0.636615037918091,clock,bear,120,0250_ps_s03_120_bear_10_n02134084_825.png
subject-03,1,251,0.870207071304321,elephant,elephant,30,0251_ps_s03_30_elephant_10_n02504458_4696.png
subject-03,1,252,0.686052083969116,bear,oven,180,0252_ps_s03_180_oven_10_n04111531_6695.png
subject-03,1,253,0.563816070556641,clock,clock,90,0253_ps_s03_90_clock_10_n02708093_204.png
subject-03,1,254,1.02424311637878,clock,chair,90,0254_ps_s03_90_chair_10_n04099969_36004.png
subject-03,1,255,1.01938199996948,cat,oven,30,0255_ps_s03_30_oven_10_n04111531_6903.png
subject-03,1,256,1.1052520275116,bird,bear,60,0256_ps_s03_60_bear_10_n02134418_5807.png
subject-03,1,257,0.779065847396851,truck,truck,0,0257_ps_s03_0_truck_10_n03796401_4017.png
subject-03,1,258,0.707195043563843,bottle,bottle,0,0258_ps_s03_0_bottle_10_n04560804_2165.png
subject-03,1,259,0.902743101119995,car,oven,150,0259_ps_s03_150_oven_10_n04111531_7965.png
subject-03,1,260,1.30856513977051,boat,boat,30,0260_ps_s03_30_boat_10_n04273569_15583.png
subject-03,1,261,0.692466974258423,bicycle,bicycle,150,0261_ps_s03_150_bicycle_10_n02835271_3529.png
subject-03,1,262,0.668391942977905,bear,truck,180,0262_ps_s03_180_truck_10_n03417042_6780.png
subject-03,1,263,1.29402303695679,cat,cat,30,0263_ps_s03_30_cat_10_n02123597_4442.png
subject-03,1,264,1.0076789855957,knife,knife,30,0264_ps_s03_30_knife_10_n03041632_15444.png
subject-03,1,265,0.675734043121338,clock,knife,180,0265_ps_s03_180_knife_10_n03041632_44230.png
subject-03,1,266,0.557583808898926,cat,clock,180,0266_ps_s03_180_clock_10_n02708093_2721.png
subject-03,1,267,0.703752040863037,bicycle,bicycle,30,0267_ps_s03_30_bicycle_10_n03792782_4277.png
subject-03,1,268,0.545026779174805,bear,bicycle,180,0268_ps_s03_180_bicycle_10_n03792782_34197.png
subject-03,1,269,0.818964004516602,cat,elephant,90,0269_ps_s03_90_elephant_10_n02504013_3567.png
subject-03,1,270,0.914618968963623,boat,boat,180,0270_ps_s03_180_boat_10_n03344393_2969.png
subject-03,1,271,0.796437978744507,bear,bear,60,0271_ps_s03_60_bear_10_n02132136_686.png
subject-03,1,272,0.636380910873413,car,elephant,150,0272_ps_s03_150_elephant_10_n02504013_6659.png
subject-03,1,273,0.87447190284729,truck,truck,90,0273_ps_s03_90_truck_10_n03796401_27268.png
subject-03,1,274,0.896000146865845,elephant,elephant,30,0274_ps_s03_30_elephant_10_n02504458_9835.png
subject-03,1,275,0.500190019607544,clock,clock,60,0275_ps_s03_60_clock_10_n04548280_4709.png
subject-03,1,276,0.635879993438721,cat,cat,60,0276_ps_s03_60_cat_10_n02123597_14647.png
subject-03,1,277,0.791521072387695,chair,chair,30,0277_ps_s03_30_chair_10_n02791124_1292.png
subject-03,1,278,0.717222929000854,keyboard,keyboard,30,0278_ps_s03_30_keyboard_10_n03085013_19471.png
subject-03,1,279,0.799037933349609,bicycle,knife,120,0279_ps_s03_120_knife_10_n03041632_102828.png
subject-03,1,280,1.06313991546631,bear,bird,120,0280_ps_s03_120_bird_10_n01798484_2289.png
subject-03,1,281,1.50015807151794,bird,car,180,0281_ps_s03_180_car_10_n02814533_8490.png
subject-03,1,282,1.05648183822632,truck,car,60,0282_ps_s03_60_car_10_n03100240_7753.png
subject-03,1,283,0.578088998794556,clock,chair,150,0283_ps_s03_150_chair_10_n03376595_10700.png
subject-03,1,284,0.686434030532837,boat,bird,180,0284_ps_s03_180_bird_10_n01796340_5016.png
subject-03,1,285,0.775909900665283,bear,elephant,30,0285_ps_s03_30_elephant_10_n02504013_4386.png
subject-03,1,286,1.00165700912476,chair,chair,90,0286_ps_s03_90_chair_10_n02791124_15407.png
subject-03,1,287,1.1257529258728,knife,knife,60,0287_ps_s03_60_knife_10_n03041632_15299.png
subject-03,1,288,0.873295068740845,clock,cat,180,0288_ps_s03_180_cat_10_n02125311_11440.png
subject-03,1,289,0.933072090148926,keyboard,keyboard,30,0289_ps_s03_30_keyboard_10_n04505470_494.png
subject-03,1,290,0.876883983612061,clock,truck,120,0290_ps_s03_120_truck_10_n03796401_8254.png
subject-03,1,291,0.777006149291992,bottle,bottle,90,0291_ps_s03_90_bottle_10_n03983396_12757.png
subject-03,1,292,0.936944961547852,car,car,60,0292_ps_s03_60_car_10_n03100240_8107.png
subject-03,1,293,0.520550012588501,boat,bear,150,0293_ps_s03_150_bear_10_n02133161_4820.png
subject-03,1,294,0.730520009994507,keyboard,keyboard,120,0294_ps_s03_120_keyboard_10_n04505470_2909.png
subject-03,1,295,0.804164171218872,knife,knife,0,0295_ps_s03_0_knife_10_n03041632_42526.png
subject-03,1,296,0.881828784942627,bear,bear,60,0296_ps_s03_60_bear_10_n02134418_2185.png
subject-03,1,297,0.770004987716675,clock,clock,30,0297_ps_s03_30_clock_10_n03196217_2536.png
subject-03,1,298,0.917324066162109,bicycle,bicycle,0,0298_ps_s03_0_bicycle_10_n03792782_11824.png
subject-03,1,299,0.673233985900879,bear,chair,180,0299_ps_s03_180_chair_10_n04099969_19484.png
subject-03,1,300,1.05310297012329,boat,dog,180,0300_ps_s03_180_dog_10_n02091032_6523.png
subject-03,1,301,0.941255807876587,car,bicycle,120,0301_ps_s03_120_bicycle_10_n02835271_9669.png
subject-03,1,302,0.870735883712769,knife,knife,60,0302_ps_s03_60_knife_10_n03041632_1671.png
subject-03,1,303,0.896420001983643,bottle,bottle,0,0303_ps_s03_0_bottle_10_n04579145_5621.png
subject-03,1,304,0.934379816055298,knife,knife,0,0304_ps_s03_0_knife_10_n03041632_33424.png
subject-03,1,305,1.3744421005249,elephant,elephant,60,0305_ps_s03_60_elephant_10_n02504458_2103.png
subject-03,1,306,0.874083995819092,bicycle,bicycle,90,0306_ps_s03_90_bicycle_10_n03792782_17503.png
subject-03,1,307,0.731642007827759,bear,clock,120,0307_ps_s03_120_clock_10_n02708093_1539.png
subject-03,1,308,0.985733985900879,dog,dog,0,0308_ps_s03_0_dog_10_n02101388_1383.png
subject-03,1,309,0.857777118682861,boat,keyboard,150,0309_ps_s03_150_keyboard_10_n03085013_3148.png
subject-03,1,310,0.933222770690918,bottle,bottle,90,0310_ps_s03_90_bottle_10_n04579145_4594.png
subject-03,1,311,0.914911031723022,knife,elephant,180,0311_ps_s03_180_elephant_10_n02504458_4395.png
subject-03,1,312,0.95878791809082,boat,airplane,0,0312_ps_s03_0_airplane_10_n02690373_4119.png
subject-03,1,313,0.760463953018188,airplane,airplane,120,0313_ps_s03_120_airplane_10_n02690373_10395.png
subject-03,1,314,0.694529056549072,airplane,airplane,120,0314_ps_s03_120_airplane_10_n02690373_8446.png
subject-03,1,315,0.918583154678345,bear,dog,120,0315_ps_s03_120_dog_10_n02092002_9876.png
subject-03,1,316,0.902243137359619,boat,elephant,180,0316_ps_s03_180_elephant_10_n02504458_1929.png
subject-03,1,317,NaN,na,airplane,180,0317_ps_s03_180_airplane_10_n02690373_6144.png
subject-03,1,318,0.945773839950562,airplane,airplane,150,0318_ps_s03_150_airplane_10_n02690373_8252.png
subject-03,1,319,0.747564077377319,car,car,120,0319_ps_s03_120_car_10_n04285008_3268.png
subject-03,1,320,0.957350015640259,airplane,bear,180,0320_ps_s03_180_bear_10_n02132136_110.png
subject-03,1,321,0.672854900360107,bear,elephant,120,0321_ps_s03_120_elephant_10_n02504013_25336.png
subject-03,1,322,0.872335910797119,bicycle,cat,120,0322_ps_s03_120_cat_10_n02123597_5217.png
subject-03,1,323,0.742236137390137,bird,bird,30,0323_ps_s03_30_bird_10_n01796340_2973.png
subject-03,1,324,0.686317920684814,oven,oven,0,0324_ps_s03_0_oven_10_n04111531_3202.png
subject-03,1,325,0.688052892684937,boat,bird,150,0325_ps_s03_150_bird_10_n01582220_1150.png
subject-03,1,326,0.91581916809082,cat,chair,180,0326_ps_s03_180_chair_10_n03376595_208.png
subject-03,1,327,0.7655189037323,clock,truck,150,0327_ps_s03_150_truck_10_n03796401_7261.png
subject-03,1,328,0.965496063232422,clock,clock,60,0328_ps_s03_60_clock_10_n04548280_1304.png
subject-03,1,329,0.915542840957642,bear,car,150,0329_ps_s03_150_car_10_n02814533_39485.png
subject-03,1,330,0.881049871444702,bird,keyboard,120,0330_ps_s03_120_keyboard_10_n04505470_4724.png
subject-03,1,331,0.798898935317993,cat,chair,180,0331_ps_s03_180_chair_10_n04099969_9960.png
subject-03,1,332,0.844696998596191,bottle,bottle,30,0332_ps_s03_30_bottle_10_n04579145_3769.png
subject-03,1,333,0.614421129226685,oven,oven,120,0333_ps_s03_120_oven_10_n04111531_5888.png
subject-03,1,334,0.508210897445679,clock,knife,180,0334_ps_s03_180_knife_10_n03041632_20697.png
subject-03,1,335,0.772066831588745,cat,cat,60,0335_ps_s03_60_cat_10_n02125311_17002.png
subject-03,1,336,0.748265027999878,clock,chair,150,0336_ps_s03_150_chair_10_n02791124_7987.png
subject-03,1,337,0.851659059524536,clock,clock,120,0337_ps_s03_120_clock_10_n02708093_118.png
subject-03,1,338,0.783861875534058,cat,knife,90,0338_ps_s03_90_knife_10_n03041632_32896.png
subject-03,1,339,0.701401948928833,chair,chair,0,0339_ps_s03_0_chair_10_n02791124_1693.png
subject-03,1,340,1.2392840385437,airplane,bottle,180,0340_ps_s03_180_bottle_10_n03983396_5532.png
subject-03,1,341,0.823069095611572,elephant,elephant,0,0341_ps_s03_0_elephant_10_n02504458_4316.png
subject-03,1,342,0.91867995262146,boat,bear,90,0342_ps_s03_90_bear_10_n02133161_8856.png
subject-03,1,343,0.760684967041016,cat,cat,90,0343_ps_s03_90_cat_10_n02124075_81.png
subject-03,1,344,0.668500185012817,oven,oven,180,0344_ps_s03_180_oven_10_n04111531_10336.png
subject-03,1,345,0.73829197883606,clock,knife,150,0345_ps_s03_150_knife_10_n03041632_27879.png
subject-03,1,346,0.632348775863647,cat,dog,120,0346_ps_s03_120_dog_10_n02111500_3041.png
subject-03,1,347,1.06776213645935,elephant,elephant,60,0347_ps_s03_60_elephant_10_n02504013_4229.png
subject-03,1,348,1.08963990211487,bird,bird,30,0348_ps_s03_30_bird_10_n01843383_13894.png
subject-03,1,349,NaN,na,clock,150,0349_ps_s03_150_clock_10_n04548280_3299.png
subject-03,1,350,1.04329395294189,clock,clock,0,0350_ps_s03_0_clock_10_n03196217_5493.png
subject-03,1,351,0.687199115753174,chair,chair,60,0351_ps_s03_60_chair_10_n04099969_246.png
subject-03,1,352,0.932762145996094,knife,knife,60,0352_ps_s03_60_knife_10_n03041632_8321.png
subject-03,1,353,0.946686983108521,dog,dog,90,0353_ps_s03_90_dog_10_n02101388_11601.png
subject-03,1,354,0.914574146270752,bottle,keyboard,60,0354_ps_s03_60_keyboard_10_n03085013_30073.png
subject-03,1,355,0.778478145599365,elephant,elephant,120,0355_ps_s03_120_elephant_10_n02504013_1908.png
subject-03,1,356,0.626286029815674,cat,cat,30,0356_ps_s03_30_cat_10_n02123045_13172.png
subject-03,1,357,0.968057870864868,knife,knife,60,0357_ps_s03_60_knife_10_n03041632_87380.png
subject-03,1,358,0.723835945129395,dog,dog,30,0358_ps_s03_30_dog_10_n02109525_72594.png
subject-03,1,359,0.639600038528442,clock,clock,90,0359_ps_s03_90_clock_10_n03196217_5827.png
subject-03,1,360,0.767306804656982,boat,keyboard,180,0360_ps_s03_180_keyboard_10_n04505470_4579.png
subject-03,1,361,0.73526406288147,truck,truck,60,0361_ps_s03_60_truck_10_n03417042_13055.png
subject-03,1,362,0.731328010559082,bicycle,bicycle,120,0362_ps_s03_120_bicycle_10_n02835271_4138.png
subject-03,1,363,0.866737842559814,airplane,airplane,30,0363_ps_s03_30_airplane_10_n02690373_190.png
subject-03,1,364,0.738718032836914,oven,oven,30,0364_ps_s03_30_oven_10_n04111531_21855.png
subject-03,1,365,0.546364784240723,clock,boat,150,0365_ps_s03_150_boat_10_n03344393_5265.png
subject-03,1,366,0.67623496055603,airplane,chair,150,0366_ps_s03_150_chair_10_n04099969_16178.png
subject-03,1,367,0.98009991645813,dog,bear,90,0367_ps_s03_90_bear_10_n02132136_8358.png
subject-03,1,368,0.613908052444458,cat,cat,60,0368_ps_s03_60_cat_10_n02124075_13587.png
subject-03,1,369,0.716121912002563,chair,chair,30,0369_ps_s03_30_chair_10_n04099969_15882.png
subject-03,1,370,0.771568059921265,keyboard,keyboard,60,0370_ps_s03_60_keyboard_10_n04505470_4479.png
subject-03,1,371,0.689481973648071,keyboard,keyboard,120,0371_ps_s03_120_keyboard_10_n04505470_1157.png
subject-03,1,372,0.989104986190796,knife,oven,120,0372_ps_s03_120_oven_10_n04111531_924.png
subject-03,1,373,0.862825870513916,bear,bear,30,0373_ps_s03_30_bear_10_n02133161_7032.png
subject-03,1,374,0.91482400894165,boat,chair,150,0374_ps_s03_150_chair_10_n04429376_20628.png
subject-03,1,375,1.14651203155518,cat,cat,0,0375_ps_s03_0_cat_10_n02123597_13755.png
subject-03,1,376,0.620508193969727,bicycle,bicycle,0,0376_ps_s03_0_bicycle_10_n02835271_22549.png
subject-03,1,377,1.11859202384949,elephant,bear,180,0377_ps_s03_180_bear_10_n02134084_1503.png
subject-03,1,378,0.911990165710449,boat,bear,120,0378_ps_s03_120_bear_10_n02133161_2270.png
subject-03,1,379,0.856218099594116,truck,truck,30,0379_ps_s03_30_truck_10_n03796401_22643.png
subject-03,1,380,0.887953996658325,truck,truck,0,0380_ps_s03_0_truck_10_n03796401_24543.png
subject-03,1,381,0.721498966217041,bicycle,truck,180,0381_ps_s03_180_truck_10_n03417042_1149.png
subject-03,1,382,0.907446146011353,boat,dog,120,0382_ps_s03_120_dog_10_n02086646_8144.png
subject-03,1,383,0.757200002670288,bottle,bottle,0,0383_ps_s03_0_bottle_10_n02823428_685.png
subject-03,1,384,0.83312201499939,car,chair,180,0384_ps_s03_180_chair_10_n03376595_2809.png
subject-03,1,385,0.713051795959473,car,car,90,0385_ps_s03_90_car_10_n03100240_6010.png
subject-03,1,386,0.676483869552612,bear,bear,0,0386_ps_s03_0_bear_10_n02134084_42197.png
subject-03,1,387,0.844415187835693,boat,bicycle,150,0387_ps_s03_150_bicycle_10_n03792782_5133.png
subject-03,1,388,0.882189035415649,knife,knife,30,0388_ps_s03_30_knife_10_n03041632_11327.png
subject-03,1,389,0.793889999389648,car,airplane,180,0389_ps_s03_180_airplane_10_n02690373_4691.png
subject-03,1,390,0.957601070404053,cat,elephant,30,0390_ps_s03_30_elephant_10_n02504458_6336.png
subject-03,1,391,0.631764888763428,bicycle,bicycle,30,0391_ps_s03_30_bicycle_10_n02835271_22143.png
subject-03,1,392,0.73135781288147,elephant,elephant,30,0392_ps_s03_30_elephant_10_n02504013_8308.png
subject-03,1,393,0.949137210845947,bicycle,car,180,0393_ps_s03_180_car_10_n02814533_40459.png
subject-03,1,394,0.924908876419067,bird,bird,120,0394_ps_s03_120_bird_10_n02018207_6296.png
subject-03,1,395,0.579153060913086,bear,bear,60,0395_ps_s03_60_bear_10_n02134084_15118.png
subject-03,1,396,0.624560117721558,boat,truck,150,0396_ps_s03_150_truck_10_n03417042_10476.png
subject-03,1,397,0.846447944641113,bicycle,bicycle,60,0397_ps_s03_60_bicycle_10_n02835271_21185.png
subject-03,1,398,0.592316150665283,clock,clock,30,0398_ps_s03_30_clock_10_n02708093_51.png
subject-03,1,399,0.743864059448242,chair,chair,30,0399_ps_s03_30_chair_10_n02791124_4192.png
subject-03,1,400,0.773844003677368,bear,car,180,0400_ps_s03_180_car_10_n02814533_66666.png
subject-03,1,401,0.591466903686523,boat,car,180,0401_ps_s03_180_car_10_n02814533_39517.png
subject-03,1,402,0.471340894699097,clock,bottle,180,0402_ps_s03_180_bottle_10_n03937543_4259.png
subject-03,1,403,0.719098091125488,bird,bird,60,0403_ps_s03_60_bird_10_n01843383_10059.png
subject-03,1,404,0.658993005752563,boat,dog,150,0404_ps_s03_150_dog_10_n02097209_821.png
subject-03,1,405,0.538762807846069,oven,keyboard,120,0405_ps_s03_120_keyboard_10_n04505470_4535.png
subject-03,1,406,0.604732990264893,bicycle,chair,120,0406_ps_s03_120_chair_10_n02791124_5823.png
subject-03,1,407,0.768531084060669,bottle,boat,30,0407_ps_s03_30_boat_10_n02951358_12664.png
subject-03,1,408,0.850330829620361,clock,truck,150,0408_ps_s03_150_truck_10_n03417042_18705.png
subject-03,1,409,0.801979780197144,airplane,clock,150,0409_ps_s03_150_clock_10_n03196217_1153.png
subject-03,1,410,0.907845020294189,bicycle,elephant,150,0410_ps_s03_150_elephant_10_n02504458_6499.png
subject-03,1,411,0.763579130172729,bear,bicycle,150,0411_ps_s03_150_bicycle_10_n03792782_4544.png
subject-03,1,412,0.793445110321045,cat,cat,120,0412_ps_s03_120_cat_10_n02123045_8336.png
subject-03,1,413,0.783231019973755,airplane,airplane,90,0413_ps_s03_90_airplane_10_n02690373_5422.png
subject-03,1,414,0.746981859207153,bicycle,car,150,0414_ps_s03_150_car_10_n03100240_16145.png
subject-03,1,415,0.823315858840942,bicycle,bicycle,60,0415_ps_s03_60_bicycle_10_n02835271_25519.png
subject-03,1,416,0.932764053344727,knife,bottle,0,0416_ps_s03_0_bottle_10_n03983396_23471.png
subject-03,1,417,0.686395883560181,bicycle,clock,180,0417_ps_s03_180_clock_10_n04548280_9217.png
subject-03,1,418,0.534337997436523,bear,car,180,0418_ps_s03_180_car_10_n03100240_6750.png
subject-03,1,419,0.7100989818573,car,elephant,180,0419_ps_s03_180_elephant_10_n02504458_4564.png
subject-03,1,420,1.02200412750244,knife,oven,0,0420_ps_s03_0_oven_10_n04111531_1488.png
subject-03,1,421,0.715631008148193,bear,bear,30,0421_ps_s03_30_bear_10_n02134084_13394.png
subject-03,1,422,0.665555953979492,keyboard,keyboard,30,0422_ps_s03_30_keyboard_10_n03085013_2842.png
subject-03,1,423,0.813292026519775,bicycle,bicycle,180,0423_ps_s03_180_bicycle_10_n02835271_4789.png
subject-03,1,424,0.871331214904785,car,car,150,0424_ps_s03_150_car_10_n04285008_8813.png
subject-03,1,425,0.931272029876709,chair,truck,0,0425_ps_s03_0_truck_10_n03417042_3389.png
subject-03,1,426,0.779109954833984,keyboard,keyboard,0,0426_ps_s03_0_keyboard_10_n03085013_21967.png
subject-03,1,427,0.882729053497314,keyboard,elephant,180,0427_ps_s03_180_elephant_10_n02504458_4572.png
subject-03,1,428,0.786672115325928,car,car,60,0428_ps_s03_60_car_10_n02814533_46401.png
subject-03,1,429,0.814424991607666,elephant,elephant,90,0429_ps_s03_90_elephant_10_n02504458_3629.png
subject-03,1,430,0.75829005241394,boat,boat,90,0430_ps_s03_90_boat_10_n04273569_27343.png
subject-03,1,431,0.724390029907227,bird,oven,180,0431_ps_s03_180_oven_10_n04111531_6958.png
subject-03,1,432,0.871641874313354,airplane,airplane,120,0432_ps_s03_120_airplane_10_n02690373_3709.png
subject-03,1,433,0.895672082901001,oven,chair,90,0433_ps_s03_90_chair_10_n04099969_18380.png
subject-03,1,434,0.733228206634521,bear,bear,0,0434_ps_s03_0_bear_10_n02133161_1032.png
subject-03,1,435,1.18335795402527,airplane,airplane,90,0435_ps_s03_90_airplane_10_n02690373_3147.png
subject-03,1,436,1.37708711624146,bird,bird,0,0436_ps_s03_0_bird_10_n01616318_1831.png
subject-03,1,437,0.702798843383789,car,car,30,0437_ps_s03_30_car_10_n04285008_14128.png
subject-03,1,438,1.07462310791016,clock,clock,60,0438_ps_s03_60_clock_10_n03196217_599.png
subject-03,1,439,0.822488784790039,airplane,airplane,60,0439_ps_s03_60_airplane_10_n02690373_10232.png
subject-03,1,440,0.804245948791504,boat,dog,120,0440_ps_s03_120_dog_10_n02105855_17066.png
subject-03,1,441,0.870036840438843,chair,chair,30,0441_ps_s03_30_chair_10_n04099969_52474.png
subject-03,1,442,0.8818359375,keyboard,keyboard,90,0442_ps_s03_90_keyboard_10_n03085013_24192.png
subject-03,1,443,0.887617111206055,truck,truck,90,0443_ps_s03_90_truck_10_n03417042_1978.png
subject-03,1,444,0.973449945449829,bicycle,bicycle,0,0444_ps_s03_0_bicycle_10_n02835271_8417.png
subject-03,1,445,0.647726058959961,boat,boat,30,0445_ps_s03_30_boat_10_n04612504_8407.png
subject-03,1,446,0.923352003097534,keyboard,oven,30,0446_ps_s03_30_oven_10_n04111531_3902.png
subject-03,1,447,0.812791109085083,keyboard,keyboard,60,0447_ps_s03_60_keyboard_10_n03085013_6424.png
subject-03,1,448,1.38306593894958,elephant,elephant,120,0448_ps_s03_120_elephant_10_n02504458_3511.png
subject-03,1,449,0.816582918167114,cat,cat,0,0449_ps_s03_0_cat_10_n02123597_2232.png
subject-03,1,450,0.792258024215698,elephant,elephant,0,0450_ps_s03_0_elephant_10_n02504013_1953.png
subject-03,1,451,0.731996059417725,clock,clock,90,0451_ps_s03_90_clock_10_n02708093_181.png
subject-03,1,452,0.662003993988037,car,car,90,0452_ps_s03_90_car_10_n04285008_203.png
subject-03,1,453,0.70574688911438,boat,keyboard,180,0453_ps_s03_180_keyboard_10_n03085013_15576.png
subject-03,1,454,1.08379888534546,car,car,120,0454_ps_s03_120_car_10_n02814533_60400.png
subject-03,1,455,1.00939989089966,boat,boat,120,0455_ps_s03_120_boat_10_n04273569_10840.png
subject-03,1,456,0.589382886886597,clock,chair,180,0456_ps_s03_180_chair_10_n02791124_2611.png
subject-03,1,457,1.06938695907593,oven,oven,30,0457_ps_s03_30_oven_10_n04111531_11225.png
subject-03,1,458,0.763078927993774,bicycle,truck,180,0458_ps_s03_180_truck_10_n04467665_35490.png
subject-03,1,459,1.36257791519165,chair,chair,60,0459_ps_s03_60_chair_10_n02791124_6237.png
subject-03,1,460,0.816503047943115,dog,dog,90,0460_ps_s03_90_dog_10_n02091244_2626.png
subject-03,1,461,0.954411029815674,dog,dog,60,0461_ps_s03_60_dog_10_n02088094_1145.png
subject-03,1,462,0.914364099502563,knife,oven,90,0462_ps_s03_90_oven_10_n04111531_4879.png
subject-03,1,463,0.617794990539551,boat,elephant,150,0463_ps_s03_150_elephant_10_n02504458_7827.png
subject-03,1,464,0.867696046829224,bear,clock,180,0464_ps_s03_180_clock_10_n04548280_5527.png
subject-03,1,465,0.569464921951294,bicycle,bicycle,0,0465_ps_s03_0_bicycle_10_n02835271_7256.png
subject-03,1,466,0.927362203598022,bicycle,knife,150,0466_ps_s03_150_knife_10_n03041632_19275.png
subject-03,1,467,0.915168046951294,bird,bird,30,0467_ps_s03_30_bird_10_n01798484_5355.png
subject-03,1,468,0.518873929977417,boat,boat,0,0468_ps_s03_0_boat_10_n03344393_3032.png
subject-03,1,469,0.79280686378479,keyboard,keyboard,30,0469_ps_s03_30_keyboard_10_n04505470_5171.png
subject-03,1,470,0.716661930084229,truck,chair,180,0470_ps_s03_180_chair_10_n04099969_6691.png
subject-03,1,471,0.778524875640869,boat,boat,30,0471_ps_s03_30_boat_10_n03662601_4881.png
subject-03,1,472,0.89849591255188,car,car,120,0472_ps_s03_120_car_10_n02814533_19373.png
subject-03,1,473,0.950141906738281,cat,bird,120,0473_ps_s03_120_bird_10_n02007558_7614.png
subject-03,1,474,0.834004878997803,clock,oven,120,0474_ps_s03_120_oven_10_n04111531_986.png
subject-03,1,475,0.669768810272217,boat,boat,120,0475_ps_s03_120_boat_10_n03662601_4541.png
subject-03,1,476,0.675555229187012,keyboard,keyboard,120,0476_ps_s03_120_keyboard_10_n03085013_18763.png
subject-03,1,477,0.897290945053101,boat,boat,60,0477_ps_s03_60_boat_10_n02951358_12080.png
subject-03,1,478,1.12909293174744,bird,bird,60,0478_ps_s03_60_bird_10_n02011460_3509.png
subject-03,1,479,0.782870054244995,boat,knife,120,0479_ps_s03_120_knife_10_n03041632_48151.png
subject-03,1,480,1.05867099761963,bird,bear,30,0480_ps_s03_30_bear_10_n02133161_545.png
subject-03,1,481,0.692337989807129,dog,dog,30,0481_ps_s03_30_dog_10_n02101388_5116.png
subject-03,1,482,0.568260908126831,clock,clock,60,0482_ps_s03_60_clock_10_n04548280_4178.png
subject-03,1,483,0.63795804977417,bicycle,bicycle,0,0483_ps_s03_0_bicycle_10_n02835271_9866.png
subject-03,1,484,0.58187198638916,boat,car,150,0484_ps_s03_150_car_10_n03100240_4594.png
subject-03,1,485,0.791614055633545,keyboard,chair,90,0485_ps_s03_90_chair_10_n03376595_8490.png
subject-03,1,486,0.55941104888916,clock,clock,0,0486_ps_s03_0_clock_10_n02708093_1513.png
subject-03,1,487,0.667188882827759,truck,oven,150,0487_ps_s03_150_oven_10_n04111531_458.png
subject-03,1,488,1.46908712387085,bear,bear,60,0488_ps_s03_60_bear_10_n02134418_5971.png
subject-03,1,489,0.778988122940063,boat,oven,90,0489_ps_s03_90_oven_10_n04111531_274.png
subject-03,1,490,1.29281997680664,boat,truck,120,0490_ps_s03_120_truck_10_n03796401_25021.png
subject-03,1,491,0.766409158706665,bicycle,chair,60,0491_ps_s03_60_chair_10_n04099969_16266.png
subject-03,1,492,0.514553070068359,boat,boat,180,0492_ps_s03_180_boat_10_n04273569_12888.png
subject-03,1,493,1.24045991897583,oven,knife,120,0493_ps_s03_120_knife_10_n03041632_14546.png
subject-03,1,494,0.814129114151001,bear,cat,150,0494_ps_s03_150_cat_10_n02123159_799.png
subject-03,1,495,0.79584002494812,airplane,airplane,120,0495_ps_s03_120_airplane_10_n02690373_10309.png
subject-03,1,496,1.20167803764343,elephant,bird,150,0496_ps_s03_150_bird_10_n02018207_69.png
subject-03,1,497,0.769302129745483,bird,bird,90,0497_ps_s03_90_bird_10_n02006656_7456.png
subject-03,1,498,0.759208917617798,bear,bear,60,0498_ps_s03_60_bear_10_n02134418_5537.png
subject-03,1,499,0.882898092269897,boat,boat,60,0499_ps_s03_60_boat_10_n04273569_15906.png
subject-03,1,500,0.916841983795166,clock,clock,0,0500_ps_s03_0_clock_10_n03196217_8020.png
subject-03,1,501,0.896758794784546,car,car,60,0501_ps_s03_60_car_10_n04285008_11990.png
subject-03,1,502,0.636799812316895,boat,bottle,180,0502_ps_s03_180_bottle_10_n04579145_6049.png
subject-03,1,503,0.982171058654785,bicycle,bottle,30,0503_ps_s03_30_bottle_10_n03983396_4564.png
subject-03,1,504,0.930209159851074,truck,oven,90,0504_ps_s03_90_oven_10_n04111531_9304.png
subject-03,1,505,0.733950138092041,bear,cat,180,0505_ps_s03_180_cat_10_n02123045_5422.png
subject-03,1,506,0.973574876785278,keyboard,keyboard,30,0506_ps_s03_30_keyboard_10_n04505470_5111.png
subject-03,1,507,0.663511991500854,clock,truck,60,0507_ps_s03_60_truck_10_n03417042_173.png
subject-03,1,508,0.987406015396118,boat,car,30,0508_ps_s03_30_car_10_n04285008_13.png
subject-03,1,509,0.765160083770752,cat,cat,60,0509_ps_s03_60_cat_10_n02125311_54015.png
subject-03,1,510,0.676964998245239,cat,cat,30,0510_ps_s03_30_cat_10_n02125311_46527.png
subject-03,1,511,0.774777889251709,car,car,30,0511_ps_s03_30_car_10_n04285008_5959.png
subject-03,1,512,0.944593906402588,airplane,elephant,150,0512_ps_s03_150_elephant_10_n02504013_10920.png
subject-03,1,513,0.724309921264648,boat,oven,180,0513_ps_s03_180_oven_10_n04111531_6474.png
subject-03,1,514,0.796343088150024,bottle,bottle,60,0514_ps_s03_60_bottle_10_n04560804_13420.png
subject-03,1,515,0.928117036819458,bottle,bottle,120,0515_ps_s03_120_bottle_10_n04591713_2345.png
subject-03,1,516,0.751795053482056,clock,clock,60,0516_ps_s03_60_clock_10_n03196217_7414.png
subject-03,1,517,0.59968900680542,knife,knife,0,0517_ps_s03_0_knife_10_n03041632_24561.png
subject-03,1,518,0.559306859970093,bear,bottle,120,0518_ps_s03_120_bottle_10_n03937543_5343.png
subject-03,1,519,0.641372919082642,clock,clock,120,0519_ps_s03_120_clock_10_n04548280_3968.png
subject-03,1,520,0.765365839004517,cat,cat,60,0520_ps_s03_60_cat_10_n02123159_6873.png
subject-03,1,521,0.635047912597656,boat,boat,150,0521_ps_s03_150_boat_10_n03344393_4944.png
subject-03,1,522,0.912759065628052,oven,truck,60,0522_ps_s03_60_truck_10_n04467665_50648.png
subject-03,1,523,1.26849508285522,knife,knife,30,0523_ps_s03_30_knife_10_n03041632_25603.png
subject-03,1,524,1.05623888969421,bottle,chair,90,0524_ps_s03_90_chair_10_n02791124_6550.png
subject-03,1,525,0.890169858932495,boat,bird,150,0525_ps_s03_150_bird_10_n01828970_22.png
subject-03,1,526,0.879920959472656,bottle,bottle,60,0526_ps_s03_60_bottle_10_n02823428_4108.png
subject-03,1,527,0.897759199142456,oven,keyboard,180,0527_ps_s03_180_keyboard_10_n03085013_24392.png
subject-03,1,528,0.817525863647461,cat,cat,0,0528_ps_s03_0_cat_10_n02123045_13354.png
subject-03,1,529,0.675513029098511,bicycle,bicycle,180,0529_ps_s03_180_bicycle_10_n02835271_7296.png
subject-03,1,530,1.12707209587097,bird,oven,90,0530_ps_s03_90_oven_10_n04111531_8852.png
subject-03,1,531,0.825011968612671,clock,clock,30,0531_ps_s03_30_clock_10_n02708093_1125.png
subject-03,1,532,0.814713001251221,dog,dog,0,0532_ps_s03_0_dog_10_n02095314_261.png
subject-03,1,533,1.08671379089355,airplane,airplane,60,0533_ps_s03_60_airplane_10_n02690373_6314.png
subject-03,1,534,0.764538049697876,knife,knife,0,0534_ps_s03_0_knife_10_n03041632_927.png
subject-03,1,535,0.878278970718384,bear,dog,180,0535_ps_s03_180_dog_10_n02093991_2725.png
subject-03,1,536,0.764297962188721,bicycle,truck,180,0536_ps_s03_180_truck_10_n04467665_25129.png
subject-03,1,537,1.00396490097046,truck,bear,120,0537_ps_s03_120_bear_10_n02133161_2304.png
subject-03,1,538,0.571886777877808,cat,cat,0,0538_ps_s03_0_cat_10_n02125311_19769.png
subject-03,1,539,1.04763197898865,boat,chair,90,0539_ps_s03_90_chair_10_n03376595_14563.png
subject-03,1,540,0.929668188095093,dog,dog,0,0540_ps_s03_0_dog_10_n02105641_6503.png
subject-03,1,541,0.847156047821045,cat,oven,0,0541_ps_s03_0_oven_10_n04111531_13797.png
subject-03,1,542,1.03294205665588,car,car,90,0542_ps_s03_90_car_10_n02814533_8499.png
subject-03,1,543,0.910686016082764,boat,oven,60,0543_ps_s03_60_oven_10_n04111531_13542.png
subject-03,1,544,0.486526012420654,clock,clock,0,0544_ps_s03_0_clock_10_n02708093_1360.png
subject-03,1,545,0.83040714263916,chair,chair,120,0545_ps_s03_120_chair_10_n04099969_13901.png
subject-03,1,546,0.820422887802124,truck,airplane,150,0546_ps_s03_150_airplane_10_n02690373_1751.png
subject-03,1,547,0.940297842025757,oven,oven,60,0547_ps_s03_60_oven_10_n04111531_9939.png
subject-03,1,548,0.647912979125977,bear,bear,90,0548_ps_s03_90_bear_10_n02134418_270.png
subject-03,1,549,0.725734233856201,bicycle,bicycle,30,0549_ps_s03_30_bicycle_10_n02835271_9860.png
subject-03,1,550,0.695420026779175,boat,bottle,180,0550_ps_s03_180_bottle_10_n04579145_3302.png
subject-03,1,551,0.763151168823242,cat,cat,90,0551_ps_s03_90_cat_10_n02125311_36138.png
subject-03,1,552,1.36491894721985,cat,bear,90,0552_ps_s03_90_bear_10_n02134084_4442.png
subject-03,1,553,0.749372959136963,bear,bottle,150,0553_ps_s03_150_bottle_10_n04560804_26326.png
subject-03,1,554,0.946899175643921,truck,truck,30,0554_ps_s03_30_truck_10_n03417042_14861.png
subject-03,1,555,0.568521976470947,boat,boat,90,0555_ps_s03_90_boat_10_n04273569_4772.png
subject-03,1,556,0.79275107383728,boat,boat,30,0556_ps_s03_30_boat_10_n03662601_26273.png
subject-03,1,557,0.710140943527222,chair,chair,30,0557_ps_s03_30_chair_10_n03376595_12364.png
subject-03,1,558,0.834069967269897,bear,cat,180,0558_ps_s03_180_cat_10_n02123045_8690.png
subject-03,1,559,0.595903873443604,bicycle,bicycle,60,0559_ps_s03_60_bicycle_10_n03792782_24591.png
subject-03,1,560,0.655869007110596,clock,bottle,90,0560_ps_s03_90_bottle_10_n03983396_3185.png
subject-03,1,561,0.563220024108887,cat,cat,90,0561_ps_s03_90_cat_10_n02123045_8722.png
subject-03,1,562,0.965494871139526,car,car,0,0562_ps_s03_0_car_10_n02814533_76388.png
subject-03,1,563,1.02273607254028,oven,oven,30,0563_ps_s03_30_oven_10_n04111531_16198.png
subject-03,1,564,0.88473105430603,car,car,30,0564_ps_s03_30_car_10_n03100240_1294.png
subject-03,1,565,0.58241081237793,clock,chair,180,0565_ps_s03_180_chair_10_n02791124_3994.png
subject-03,1,566,0.964473962783813,knife,cat,120,0566_ps_s03_120_cat_10_n02124075_2402.png
subject-03,1,567,0.458423852920532,boat,cat,150,0567_ps_s03_150_cat_10_n02124075_2080.png
subject-03,1,568,0.400071144104004,clock,clock,150,0568_ps_s03_150_clock_10_n03196217_4019.png
subject-03,1,569,0.789635896682739,dog,dog,30,0569_ps_s03_30_dog_10_n02097047_4189.png
subject-03,1,570,1.00542092323303,bird,bird,120,0570_ps_s03_120_bird_10_n01614925_17980.png
subject-03,1,571,0.533278942108154,cat,cat,0,0571_ps_s03_0_cat_10_n02124075_14800.png
subject-03,1,572,0.711125135421753,keyboard,keyboard,60,0572_ps_s03_60_keyboard_10_n04505470_2597.png
subject-03,1,573,0.703068017959595,clock,chair,60,0573_ps_s03_60_chair_10_n02791124_13057.png
subject-03,1,574,0.586826086044312,airplane,airplane,0,0574_ps_s03_0_airplane_10_n02690373_7355.png
subject-03,1,575,0.64477276802063,clock,clock,30,0575_ps_s03_30_clock_10_n04548280_1109.png
subject-03,1,576,0.900384902954102,cat,bear,30,0576_ps_s03_30_bear_10_n02134418_5664.png
subject-03,1,577,0.626408100128174,truck,chair,150,0577_ps_s03_150_chair_10_n02791124_5685.png
subject-03,1,578,0.864262104034424,oven,oven,30,0578_ps_s03_30_oven_10_n04111531_21733.png
subject-03,1,579,0.87786602973938,bear,bear,0,0579_ps_s03_0_bear_10_n02132136_6967.png
subject-03,1,580,0.759568929672241,airplane,car,120,0580_ps_s03_120_car_10_n03100240_17523.png
subject-03,1,581,0.809354066848755,knife,knife,30,0581_ps_s03_30_knife_10_n03041632_10140.png
subject-03,1,582,1.12727904319763,bicycle,car,180,0582_ps_s03_180_car_10_n04285008_9080.png
subject-03,1,583,0.685171842575073,bear,bear,90,0583_ps_s03_90_bear_10_n02132136_9055.png
subject-03,1,584,0.793253898620605,bicycle,knife,150,0584_ps_s03_150_knife_10_n03041632_5427.png
subject-03,1,585,0.622629880905151,truck,truck,0,0585_ps_s03_0_truck_10_n03417042_19650.png
subject-03,1,586,0.760518074035645,bear,bear,180,0586_ps_s03_180_bear_10_n02134084_10289.png
subject-03,1,587,0.808580160140991,boat,boat,0,0587_ps_s03_0_boat_10_n04612504_18442.png
subject-03,1,588,0.860342979431152,elephant,bird,180,0588_ps_s03_180_bird_10_n02013706_3032.png
subject-03,1,589,0.87434196472168,cat,cat,30,0589_ps_s03_30_cat_10_n02125311_15293.png
subject-03,1,590,1.50004720687866,bottle,oven,60,0590_ps_s03_60_oven_10_n04111531_15912.png
subject-03,1,591,1.24783301353455,bicycle,bird,90,0591_ps_s03_90_bird_10_n01819313_2770.png
subject-03,1,592,0.975772142410278,chair,chair,0,0592_ps_s03_0_chair_10_n02791124_16127.png
subject-03,1,593,1.26311898231506,cat,clock,150,0593_ps_s03_150_clock_10_n04548280_8398.png
subject-03,1,594,0.561375856399536,dog,dog,30,0594_ps_s03_30_dog_10_n02093647_1022.png
subject-03,1,595,0.778763055801392,bear,keyboard,120,0595_ps_s03_120_keyboard_10_n04505470_8386.png
subject-03,1,596,0.782673835754395,keyboard,keyboard,30,0596_ps_s03_30_keyboard_10_n03085013_25066.png
subject-03,1,597,1.13276410102844,boat,truck,60,0597_ps_s03_60_truck_10_n04467665_30461.png
subject-03,1,598,0.670192003250122,airplane,airplane,30,0598_ps_s03_30_airplane_10_n02690373_1950.png
subject-03,1,599,0.804107904434204,keyboard,keyboard,90,0599_ps_s03_90_keyboard_10_n04505470_5063.png
subject-03,1,600,0.591830015182495,clock,clock,60,0600_ps_s03_60_clock_10_n04548280_11597.png
subject-03,1,601,1.11786103248596,boat,dog,120,0601_ps_s03_120_dog_10_n02104029_7335.png
subject-03,1,602,1.39366412162781,car,boat,60,0602_ps_s03_60_boat_10_n03344393_1944.png
subject-03,1,603,1.04728102684021,bottle,oven,180,0603_ps_s03_180_oven_10_n04111531_6756.png
subject-03,1,604,1.0353639125824,cat,keyboard,150,0604_ps_s03_150_keyboard_10_n03085013_20570.png
subject-03,1,605,0.836971044540405,keyboard,bottle,180,0605_ps_s03_180_bottle_10_n04591713_644.png
subject-03,1,606,0.982681035995483,truck,truck,90,0606_ps_s03_90_truck_10_n03417042_10243.png
subject-03,1,607,1.00447297096252,cat,bear,0,0607_ps_s03_0_bear_10_n02133161_355.png
subject-03,1,608,0.908274173736572,clock,knife,0,0608_ps_s03_0_knife_10_n03041632_9635.png
subject-03,1,609,0.912475109100342,bicycle,oven,120,0609_ps_s03_120_oven_10_n04111531_2385.png
subject-03,1,610,0.696084976196289,car,bicycle,150,0610_ps_s03_150_bicycle_10_n03792782_27445.png
subject-03,1,611,0.92823600769043,bird,bird,0,0611_ps_s03_0_bird_10_n02013706_3221.png
subject-03,1,612,0.619655847549438,cat,cat,90,0612_ps_s03_90_cat_10_n02123394_6311.png
subject-03,1,613,0.575590133666992,bottle,bottle,60,0613_ps_s03_60_bottle_10_n02823428_880.png
subject-03,1,614,0.905662775039673,bear,bear,90,0614_ps_s03_90_bear_10_n02132136_5778.png
subject-03,1,615,0.941168069839478,bottle,knife,90,0615_ps_s03_90_knife_10_n03041632_21859.png
subject-03,1,616,0.614924907684326,bear,bear,0,0616_ps_s03_0_bear_10_n02134084_16632.png
subject-03,1,617,0.820619106292725,truck,truck,120,0617_ps_s03_120_truck_10_n03417042_20962.png
subject-03,1,618,0.772441864013672,oven,oven,0,0618_ps_s03_0_oven_10_n04111531_21404.png
subject-03,1,619,0.988399028778076,airplane,bird,150,0619_ps_s03_150_bird_10_n02002724_5457.png
subject-03,1,620,0.680119037628174,bicycle,bottle,180,0620_ps_s03_180_bottle_10_n04557648_3637.png
subject-03,1,621,1.04409909248352,bottle,bottle,30,0621_ps_s03_30_bottle_10_n03937543_3133.png
subject-03,1,622,0.834021091461182,car,car,0,0622_ps_s03_0_car_10_n03100240_18069.png
subject-03,1,623,0.851485967636108,bear,cat,150,0623_ps_s03_150_cat_10_n02125311_20241.png
subject-03,1,624,1.16934108734131,bear,oven,150,0624_ps_s03_150_oven_10_n04111531_13486.png
subject-03,1,625,0.99341893196106,chair,boat,150,0625_ps_s03_150_boat_10_n03662601_18953.png
subject-03,1,626,0.91133713722229,oven,clock,180,0626_ps_s03_180_clock_10_n04548280_2334.png
subject-03,1,627,0.89122200012207,bottle,bottle,120,0627_ps_s03_120_bottle_10_n03937543_24.png
subject-03,1,628,0.952927112579346,airplane,knife,150,0628_ps_s03_150_knife_10_n03041632_37618.png
subject-03,1,629,0.78627610206604,bottle,bottle,0,0629_ps_s03_0_bottle_10_n04560804_26318.png
subject-03,1,630,0.736315011978149,boat,boat,90,0630_ps_s03_90_boat_10_n04273569_32786.png
subject-03,1,631,0.860198974609375,bear,knife,120,0631_ps_s03_120_knife_10_n03041632_24541.png
subject-03,1,632,0.96390700340271,car,truck,120,0632_ps_s03_120_truck_10_n03796401_9198.png
subject-03,1,633,1.02380084991455,truck,truck,90,0633_ps_s03_90_truck_10_n04467665_29260.png
subject-03,1,634,0.989460945129395,bird,bird,0,0634_ps_s03_0_bird_10_n01530575_5222.png
subject-03,1,635,1.04939794540405,airplane,airplane,60,0635_ps_s03_60_airplane_10_n02690373_10203.png
subject-03,1,636,0.669099092483521,car,car,90,0636_ps_s03_90_car_10_n04285008_3096.png
subject-03,1,637,0.683043956756592,clock,chair,60,0637_ps_s03_60_chair_10_n03376595_3910.png
subject-03,1,638,1.13472104072571,bear,chair,120,0638_ps_s03_120_chair_10_n04099969_9005.png
subject-03,1,639,0.842628955841064,airplane,bird,0,0639_ps_s03_0_bird_10_n02006656_7153.png
subject-03,1,640,0.862332820892334,car,car,30,0640_ps_s03_30_car_10_n03100240_6216.png
subject-03,1,641,0.863538980484009,bird,dog,120,0641_ps_s03_120_dog_10_n02111277_21922.png
subject-03,1,642,0.509531021118164,boat,airplane,180,0642_ps_s03_180_airplane_10_n02690373_2874.png
subject-03,1,643,0.565180063247681,bicycle,bicycle,0,0643_ps_s03_0_bicycle_10_n02835271_759.png
subject-03,1,644,0.668787002563477,cat,bear,150,0644_ps_s03_150_bear_10_n02132136_10577.png
subject-03,1,645,0.619127035140991,clock,bear,180,0645_ps_s03_180_bear_10_n02132136_5146.png
subject-03,1,646,0.652918100357056,bicycle,bicycle,30,0646_ps_s03_30_bicycle_10_n02835271_807.png
subject-03,1,647,0.564514875411987,boat,bicycle,150,0647_ps_s03_150_bicycle_10_n03792782_378.png
subject-03,1,648,0.788465976715088,knife,knife,30,0648_ps_s03_30_knife_10_n03041632_36277.png
subject-03,1,649,0.736063003540039,keyboard,keyboard,30,0649_ps_s03_30_keyboard_10_n03085013_7520.png
subject-03,1,650,0.639653921127319,cat,bird,90,0650_ps_s03_90_bird_10_n02056570_10881.png
subject-03,1,651,0.865528106689453,car,airplane,150,0651_ps_s03_150_airplane_10_n02690373_4452.png
subject-03,1,652,0.883672952651978,bicycle,bicycle,120,0652_ps_s03_120_bicycle_10_n02835271_10822.png
subject-03,1,653,0.981105804443359,bicycle,knife,120,0653_ps_s03_120_knife_10_n03041632_28129.png
subject-03,1,654,0.727156162261963,keyboard,bottle,150,0654_ps_s03_150_bottle_10_n04591713_5851.png
subject-03,1,655,0.856719970703125,bicycle,elephant,150,0655_ps_s03_150_elephant_10_n02504458_5470.png
subject-03,1,656,1.09876489639282,bicycle,knife,120,0656_ps_s03_120_knife_10_n03041632_13612.png
subject-03,1,657,1.50007390975952,car,car,60,0657_ps_s03_60_car_10_n03100240_13602.png
subject-03,1,658,0.738246202468872,clock,bear,150,0658_ps_s03_150_bear_10_n02133161_14317.png
subject-03,1,659,0.714110136032104,cat,dog,180,0659_ps_s03_180_dog_10_n02106662_43958.png
subject-03,1,660,0.563923835754395,airplane,airplane,90,0660_ps_s03_90_airplane_10_n02690373_17937.png
subject-03,1,661,0.763959884643555,truck,truck,30,0661_ps_s03_30_truck_10_n03417042_6685.png
subject-03,1,662,0.611427068710327,clock,bird,180,0662_ps_s03_180_bird_10_n02011460_7629.png
subject-03,1,663,1.3853588104248,cat,bird,60,0663_ps_s03_60_bird_10_n01817953_6333.png
subject-03,1,664,0.543339014053345,cat,cat,30,0664_ps_s03_30_cat_10_n02123045_7255.png
subject-03,1,665,0.797080993652344,bird,oven,150,0665_ps_s03_150_oven_10_n04111531_5737.png
subject-03,1,666,0.778898954391479,oven,oven,0,0666_ps_s03_0_oven_10_n04111531_15267.png
subject-03,1,667,0.574519157409668,boat,cat,180,0667_ps_s03_180_cat_10_n02124075_8470.png
subject-03,1,668,0.830651044845581,bear,knife,150,0668_ps_s03_150_knife_10_n03041632_4808.png
subject-03,1,669,1.09811687469482,bird,bird,30,0669_ps_s03_30_bird_10_n01860187_5008.png
subject-03,1,670,0.892134189605713,knife,knife,120,0670_ps_s03_120_knife_10_n03041632_51581.png
subject-03,1,671,1.06202101707458,elephant,elephant,60,0671_ps_s03_60_elephant_10_n02504458_8141.png
subject-03,1,672,0.833534955978394,bicycle,knife,150,0672_ps_s03_150_knife_10_n03041632_7064.png
subject-03,1,673,0.939502000808716,knife,knife,0,0673_ps_s03_0_knife_10_n03041632_29961.png
subject-03,1,674,1.24520301818848,boat,boat,120,0674_ps_s03_120_boat_10_n04612504_15256.png
subject-03,1,675,1.08511781692505,bicycle,car,120,0675_ps_s03_120_car_10_n02814533_2923.png
subject-03,1,676,0.817219972610474,car,car,90,0676_ps_s03_90_car_10_n03100240_4674.png
subject-03,1,677,0.696858167648315,bear,bicycle,150,0677_ps_s03_150_bicycle_10_n03792782_6731.png
subject-03,1,678,0.806537866592407,bird,bird,30,0678_ps_s03_30_bird_10_n01532829_2492.png
subject-03,1,679,0.778446912765503,car,car,30,0679_ps_s03_30_car_10_n02814533_40773.png
subject-03,1,680,0.620092868804932,bear,knife,180,0680_ps_s03_180_knife_10_n03041632_36814.png
subject-03,1,681,0.985869884490967,bottle,bottle,0,0681_ps_s03_0_bottle_10_n03983396_15006.png
subject-03,1,682,0.632158994674683,boat,boat,30,0682_ps_s03_30_boat_10_n02951358_10151.png
subject-03,1,683,0.711696863174438,bicycle,bicycle,30,0683_ps_s03_30_bicycle_10_n02835271_12188.png
subject-03,1,684,1.28574705123901,bear,bear,30,0684_ps_s03_30_bear_10_n02133161_6861.png
subject-03,1,685,0.69737982749939,airplane,airplane,30,0685_ps_s03_30_airplane_10_n02690373_19107.png
subject-03,1,686,1.06313705444336,keyboard,keyboard,0,0686_ps_s03_0_keyboard_10_n03085013_23192.png
subject-03,1,687,1.3212149143219,elephant,dog,120,0687_ps_s03_120_dog_10_n02086240_7359.png
subject-03,1,688,0.792622089385986,boat,keyboard,180,0688_ps_s03_180_keyboard_10_n03085013_4553.png
subject-03,1,689,1.23630809783936,bear,bear,120,0689_ps_s03_120_bear_10_n02134084_7441.png
subject-03,1,690,1.06217503547668,bird,bottle,90,0690_ps_s03_90_bottle_10_n02823428_14196.png
subject-03,1,691,0.686102151870728,car,car,120,0691_ps_s03_120_car_10_n03100240_23906.png
subject-03,1,692,1.1459219455719,bird,dog,90,0692_ps_s03_90_dog_10_n02107908_3447.png
subject-03,1,693,1.26581716537476,dog,dog,60,0693_ps_s03_60_dog_10_n02107683_2484.png
subject-03,1,694,0.825591802597046,elephant,elephant,0,0694_ps_s03_0_elephant_10_n02504458_62.png
subject-03,1,695,1.20563387870789,chair,chair,30,0695_ps_s03_30_chair_10_n04099969_26310.png
subject-03,1,696,0.683056831359863,bicycle,bottle,150,0696_ps_s03_150_bottle_10_n04560804_14605.png
subject-03,1,697,0.866922855377197,bicycle,bicycle,90,0697_ps_s03_90_bicycle_10_n02835271_19853.png
subject-03,1,698,0.637102842330933,bicycle,bicycle,90,0698_ps_s03_90_bicycle_10_n02835271_13180.png
subject-03,1,699,0.81453800201416,dog,dog,90,0699_ps_s03_90_dog_10_n02100583_24297.png
subject-03,1,700,0.778784990310669,boat,airplane,150,0700_ps_s03_150_airplane_10_n02690373_3407.png
subject-03,1,701,0.93427300453186,clock,oven,120,0701_ps_s03_120_oven_10_n04111531_1220.png
subject-03,1,702,0.618288040161133,clock,clock,60,0702_ps_s03_60_clock_10_n02708093_7973.png
subject-03,1,703,1.08584690093994,chair,chair,60,0703_ps_s03_60_chair_10_n02791124_13469.png
subject-03,1,704,0.949474811553955,knife,knife,0,0704_ps_s03_0_knife_10_n03041632_9157.png
subject-03,1,705,0.971560001373291,dog,dog,0,0705_ps_s03_0_dog_10_n02107908_1423.png
subject-03,1,706,0.691296100616455,boat,bicycle,120,0706_ps_s03_120_bicycle_10_n03792782_20475.png
subject-03,1,707,0.673054933547974,clock,clock,120,0707_ps_s03_120_clock_10_n04548280_13247.png
subject-03,1,708,1.02474904060364,cat,bear,60,0708_ps_s03_60_bear_10_n02133161_4294.png
subject-03,1,709,0.88077187538147,airplane,cat,120,0709_ps_s03_120_cat_10_n02123159_3289.png
subject-03,1,710,0.964507102966309,bird,bird,0,0710_ps_s03_0_bird_10_n02056570_9835.png
subject-03,1,711,0.662269830703735,boat,chair,180,0711_ps_s03_180_chair_10_n03376595_8377.png
subject-03,1,712,0.80420708656311,truck,truck,0,0712_ps_s03_0_truck_10_n03417042_16038.png
subject-03,1,713,0.653936147689819,truck,truck,0,0713_ps_s03_0_truck_10_n03417042_3482.png
subject-03,1,714,0.777858972549438,bicycle,chair,150,0714_ps_s03_150_chair_10_n04099969_26462.png
subject-03,1,715,0.591714143753052,boat,chair,120,0715_ps_s03_120_chair_10_n03376595_10569.png
subject-03,1,716,0.825747966766357,keyboard,keyboard,60,0716_ps_s03_60_keyboard_10_n04505470_46.png
subject-03,1,717,0.529092073440552,clock,clock,120,0717_ps_s03_120_clock_10_n04548280_5295.png
subject-03,1,718,0.541214942932129,cat,knife,120,0718_ps_s03_120_knife_10_n03041632_16826.png
subject-03,1,719,0.746783018112183,boat,oven,60,0719_ps_s03_60_oven_10_n04111531_22263.png
subject-03,1,720,0.636742115020752,oven,truck,150,0720_ps_s03_150_truck_10_n03417042_6480.png
subject-03,1,721,0.727874040603638,keyboard,keyboard,90,0721_ps_s03_90_keyboard_10_n03085013_20357.png
subject-03,1,722,0.463712930679321,boat,boat,60,0722_ps_s03_60_boat_10_n03662601_9590.png
subject-03,1,723,0.851826906204224,truck,truck,0,0723_ps_s03_0_truck_10_n03417042_28794.png
subject-03,1,724,0.561333894729614,boat,car,150,0724_ps_s03_150_car_10_n04285008_7511.png
subject-03,1,725,0.73539400100708,clock,chair,120,0725_ps_s03_120_chair_10_n03376595_8302.png
subject-03,1,726,0.694940090179443,bicycle,bicycle,60,0726_ps_s03_60_bicycle_10_n02835271_20714.png
subject-03,1,727,0.536790132522583,cat,cat,90,0727_ps_s03_90_cat_10_n02124075_15001.png
subject-03,1,728,0.822580099105835,chair,chair,0,0728_ps_s03_0_chair_10_n02791124_1049.png
subject-03,1,729,0.794454097747803,boat,boat,120,0729_ps_s03_120_boat_10_n03662601_7271.png
subject-03,1,730,0.504309892654419,clock,clock,30,0730_ps_s03_30_clock_10_n04548280_4390.png
subject-03,1,731,0.789941072463989,bear,cat,180,0731_ps_s03_180_cat_10_n02123394_7859.png
subject-03,1,732,0.46391487121582,boat,bicycle,180,0732_ps_s03_180_bicycle_10_n02835271_9314.png
subject-03,1,733,1.26765584945679,car,truck,120,0733_ps_s03_120_truck_10_n03796401_7518.png
subject-03,1,734,0.683836936950684,boat,keyboard,150,0734_ps_s03_150_keyboard_10_n03085013_22821.png
subject-03,1,735,0.885293960571289,bear,bear,120,0735_ps_s03_120_bear_10_n02134084_4028.png
subject-03,1,736,0.597231864929199,clock,dog,150,0736_ps_s03_150_dog_10_n02088094_13992.png
subject-03,1,737,0.769268989562988,truck,truck,60,0737_ps_s03_60_truck_10_n03796401_1681.png
subject-03,1,738,0.671123027801514,knife,knife,30,0738_ps_s03_30_knife_10_n03041632_32208.png
subject-03,1,739,0.878854990005493,dog,knife,120,0739_ps_s03_120_knife_10_n03041632_26340.png
subject-03,1,740,0.664363861083984,boat,boat,90,0740_ps_s03_90_boat_10_n04273569_13972.png
subject-03,1,741,0.854151010513306,dog,dog,90,0741_ps_s03_90_dog_10_n02108551_14704.png
subject-03,1,742,1.08001208305359,dog,bird,90,0742_ps_s03_90_bird_10_n01820546_7575.png
subject-03,1,743,0.591753005981445,bear,bear,150,0743_ps_s03_150_bear_10_n02134084_20261.png
subject-03,1,744,1.11363887786865,keyboard,keyboard,120,0744_ps_s03_120_keyboard_10_n03085013_23267.png
subject-03,1,745,0.717479944229126,boat,keyboard,150,0745_ps_s03_150_keyboard_10_n03085013_20730.png
subject-03,1,746,0.497199058532715,clock,clock,0,0746_ps_s03_0_clock_10_n04548280_5699.png
subject-03,1,747,0.633453130722046,bear,cat,150,0747_ps_s03_150_cat_10_n02123159_3524.png
subject-03,1,748,0.747030973434448,car,car,60,0748_ps_s03_60_car_10_n03100240_17421.png
subject-03,1,749,0.722871065139771,truck,boat,180,0749_ps_s03_180_boat_10_n03662601_8065.png
subject-03,1,750,0.790879011154175,bear,clock,150,0750_ps_s03_150_clock_10_n04548280_21545.png
subject-03,1,751,0.898502826690674,bear,knife,180,0751_ps_s03_180_knife_10_n03041632_18859.png
subject-03,1,752,0.774051904678345,bottle,bottle,30,0752_ps_s03_30_bottle_10_n04560804_5769.png
subject-03,1,753,0.599797964096069,bicycle,bicycle,90,0753_ps_s03_90_bicycle_10_n02835271_26731.png
subject-03,1,754,0.66166615486145,dog,dog,30,0754_ps_s03_30_dog_10_n02086646_7362.png
subject-03,1,755,0.599363088607788,boat,bird,180,0755_ps_s03_180_bird_10_n01824575_3556.png
subject-03,1,756,0.951433181762695,bottle,bottle,30,0756_ps_s03_30_bottle_10_n04557648_900.png
subject-03,1,757,0.581175088882446,clock,chair,0,0757_ps_s03_0_chair_10_n04429376_49351.png
subject-03,1,758,0.860911846160889,clock,clock,30,0758_ps_s03_30_clock_10_n02708093_899.png
subject-03,1,759,0.744792938232422,knife,knife,60,0759_ps_s03_60_knife_10_n03041632_36806.png
subject-03,1,760,0.900589942932129,keyboard,keyboard,60,0760_ps_s03_60_keyboard_10_n03085013_19565.png
subject-03,1,761,0.854640960693359,bird,bird,30,0761_ps_s03_30_bird_10_n01817953_11996.png
subject-03,1,762,0.778185844421387,bear,elephant,120,0762_ps_s03_120_elephant_10_n02504458_694.png
subject-03,1,763,0.760010957717896,bear,cat,150,0763_ps_s03_150_cat_10_n02123159_615.png
subject-03,1,764,0.771668910980225,keyboard,oven,150,0764_ps_s03_150_oven_10_n04111531_7923.png
subject-03,1,765,0.737703084945679,truck,truck,30,0765_ps_s03_30_truck_10_n04467665_48875.png
subject-03,1,766,0.805627107620239,oven,clock,90,0766_ps_s03_90_clock_10_n04548280_548.png
subject-03,1,767,1.12149810791016,chair,chair,0,0767_ps_s03_0_chair_10_n03376595_262.png
subject-03,1,768,0.617166996002197,oven,oven,0,0768_ps_s03_0_oven_10_n04111531_10077.png
subject-03,1,769,0.889088869094849,bottle,bottle,0,0769_ps_s03_0_bottle_10_n03937543_3253.png
subject-03,1,770,0.780652046203613,bear,bird,120,0770_ps_s03_120_bird_10_n01798484_12863.png
subject-03,1,771,0.692605018615723,keyboard,keyboard,30,0771_ps_s03_30_keyboard_10_n03085013_3632.png
subject-03,1,772,0.770230054855347,keyboard,keyboard,60,0772_ps_s03_60_keyboard_10_n03085013_15836.png
subject-03,1,773,0.688148021697998,truck,truck,0,0773_ps_s03_0_truck_10_n04467665_13231.png
subject-03,1,774,1.5001060962677,dog,bird,90,0774_ps_s03_90_bird_10_n02002724_12183.png
subject-03,1,775,1.33380103111267,cat,dog,120,0775_ps_s03_120_dog_10_n02099849_2217.png
subject-03,1,776,0.803834915161133,bear,dog,180,0776_ps_s03_180_dog_10_n02110063_869.png
subject-03,1,777,1.03339195251465,elephant,dog,90,0777_ps_s03_90_dog_10_n02100877_2341.png
subject-03,1,778,0.873242855072021,keyboard,keyboard,90,0778_ps_s03_90_keyboard_10_n03085013_1797.png
subject-03,1,779,0.68909215927124,bear,bicycle,90,0779_ps_s03_90_bicycle_10_n03792782_5494.png
subject-03,1,780,0.746931076049805,bear,cat,90,0780_ps_s03_90_cat_10_n02123597_3821.png
subject-03,1,781,0.746728897094727,bird,bird,60,0781_ps_s03_60_bird_10_n02002724_3345.png
subject-03,1,782,0.828610181808472,truck,oven,60,0782_ps_s03_60_oven_10_n04111531_3886.png
subject-03,1,783,0.942329883575439,elephant,elephant,0,0783_ps_s03_0_elephant_10_n02504013_5217.png
subject-03,1,784,1.0823929309845,keyboard,oven,120,0784_ps_s03_120_oven_10_n04111531_4322.png
subject-03,1,785,0.77982497215271,keyboard,keyboard,150,0785_ps_s03_150_keyboard_10_n04505470_2113.png
subject-03,1,786,0.75778603553772,truck,truck,0,0786_ps_s03_0_truck_10_n03796401_3411.png
subject-03,1,787,0.823471784591675,bottle,bottle,0,0787_ps_s03_0_bottle_10_n02823428_2481.png
subject-03,1,788,0.689284086227417,bear,clock,120,0788_ps_s03_120_clock_10_n02708093_480.png
subject-03,1,789,0.561109781265259,bear,bear,0,0789_ps_s03_0_bear_10_n02134084_5314.png
subject-03,1,790,0.630993843078613,bear,bear,0,0790_ps_s03_0_bear_10_n02132136_3109.png
subject-03,1,791,0.834825038909912,oven,oven,30,0791_ps_s03_30_oven_10_n04111531_22834.png
subject-03,1,792,0.688740968704224,bear,bottle,120,0792_ps_s03_120_bottle_10_n03983396_3294.png
subject-03,1,793,0.65251898765564,bicycle,bicycle,90,0793_ps_s03_90_bicycle_10_n02835271_5821.png
subject-03,1,794,0.774214029312134,bear,bear,90,0794_ps_s03_90_bear_10_n02134418_836.png
subject-03,1,795,0.584013938903809,bird,bird,60,0795_ps_s03_60_bird_10_n02056570_8536.png
subject-03,1,796,0.863763093948364,car,clock,180,0796_ps_s03_180_clock_10_n04548280_4560.png
subject-03,1,797,0.779556035995483,truck,bicycle,180,0797_ps_s03_180_bicycle_10_n02835271_5554.png
subject-03,1,798,0.815423965454102,bear,knife,180,0798_ps_s03_180_knife_10_n03041632_9406.png
subject-03,1,799,0.853553056716919,bear,dog,90,0799_ps_s03_90_dog_10_n02095314_5408.png
subject-03,1,800,0.706950187683105,bird,bird,90,0800_ps_s03_90_bird_10_n02027492_211.png
subject-03,1,801,0.597262144088745,oven,oven,0,0801_ps_s03_0_oven_10_n04111531_17576.png
subject-03,1,802,0.761116027832031,airplane,airplane,0,0802_ps_s03_0_airplane_10_n02690373_4110.png
subject-03,1,803,0.642998933792114,boat,boat,150,0803_ps_s03_150_boat_10_n02951358_11586.png
subject-03,1,804,1.15063095092773,boat,boat,0,0804_ps_s03_0_boat_10_n04273569_2449.png
subject-03,1,805,0.644813776016235,keyboard,keyboard,90,0805_ps_s03_90_keyboard_10_n03085013_5726.png
subject-03,1,806,0.784244060516357,bear,elephant,60,0806_ps_s03_60_elephant_10_n02504013_10389.png
subject-03,1,807,0.476130962371826,airplane,airplane,30,0807_ps_s03_30_airplane_10_n02690373_2882.png
subject-03,1,808,0.743958950042725,clock,keyboard,90,0808_ps_s03_90_keyboard_10_n03085013_25443.png
subject-03,1,809,0.523746013641357,boat,bicycle,180,0809_ps_s03_180_bicycle_10_n03792782_8080.png
subject-03,1,810,0.897653102874756,dog,dog,90,0810_ps_s03_90_dog_10_n02112018_10082.png
subject-03,1,811,0.78521203994751,boat,bird,150,0811_ps_s03_150_bird_10_n01798484_55.png
subject-03,1,812,0.991030216217041,cat,oven,90,0812_ps_s03_90_oven_10_n04111531_7430.png
subject-03,1,813,0.604925155639648,bear,oven,180,0813_ps_s03_180_oven_10_n04111531_15367.png
subject-03,1,814,0.732875108718872,bicycle,cat,180,0814_ps_s03_180_cat_10_n02123394_2350.png
subject-03,1,815,0.742516040802002,truck,truck,30,0815_ps_s03_30_truck_10_n03796401_11628.png
subject-03,1,816,0.772459983825684,cat,bicycle,180,0816_ps_s03_180_bicycle_10_n03792782_50673.png
subject-03,1,817,1.01212882995605,bottle,truck,150,0817_ps_s03_150_truck_10_n04467665_68754.png
subject-03,1,818,0.702107906341553,bear,elephant,180,0818_ps_s03_180_elephant_10_n02504013_6984.png
subject-03,1,819,0.70781397819519,dog,dog,30,0819_ps_s03_30_dog_10_n02090622_1485.png
subject-03,1,820,1.00764513015747,bicycle,bicycle,30,0820_ps_s03_30_bicycle_10_n02835271_5886.png
subject-03,1,821,1.05958700180054,dog,dog,60,0821_ps_s03_60_dog_10_n02111129_8015.png
subject-03,1,822,0.855244159698486,elephant,elephant,0,0822_ps_s03_0_elephant_10_n02504013_7035.png
subject-03,1,823,0.93096399307251,dog,bear,30,0823_ps_s03_30_bear_10_n02133161_1560.png
subject-03,1,824,1.05078601837158,boat,oven,120,0824_ps_s03_120_oven_10_n04111531_1004.png
subject-03,1,825,1.09513807296753,bear,knife,180,0825_ps_s03_180_knife_10_n03041632_5916.png
subject-03,1,826,0.57473087310791,bottle,bottle,30,0826_ps_s03_30_bottle_10_n03983396_3377.png
subject-03,1,827,1.08426690101624,bear,bear,0,0827_ps_s03_0_bear_10_n02134418_2254.png
subject-03,1,828,1.01223206520081,dog,dog,60,0828_ps_s03_60_dog_10_n02106550_6424.png
subject-03,1,829,0.870038986206055,bicycle,chair,120,0829_ps_s03_120_chair_10_n04099969_7545.png
subject-03,1,830,0.765799045562744,bottle,bottle,90,0830_ps_s03_90_bottle_10_n04557648_11847.png
subject-03,1,831,0.731623888015747,boat,oven,90,0831_ps_s03_90_oven_10_n04111531_4944.png
subject-03,1,832,0.659464120864868,airplane,airplane,30,0832_ps_s03_30_airplane_10_n02690373_9012.png
subject-03,1,833,0.829396963119507,bicycle,bicycle,30,0833_ps_s03_30_bicycle_10_n02835271_11842.png
subject-03,1,834,0.940950870513916,bird,bird,60,0834_ps_s03_60_bird_10_n01592084_5833.png
subject-03,1,835,0.874862909317017,boat,car,150,0835_ps_s03_150_car_10_n02814533_87140.png
subject-03,1,836,0.8925621509552,airplane,keyboard,180,0836_ps_s03_180_keyboard_10_n03085013_4298.png
subject-03,1,837,0.992296934127808,bicycle,chair,120,0837_ps_s03_120_chair_10_n03376595_4362.png
subject-03,1,838,0.904505014419556,bear,bird,60,0838_ps_s03_60_bird_10_n02018207_12233.png
subject-03,1,839,0.62800407409668,bicycle,bicycle,60,0839_ps_s03_60_bicycle_10_n02835271_24639.png
subject-03,1,840,0.756051063537598,keyboard,keyboard,90,0840_ps_s03_90_keyboard_10_n04505470_4454.png
subject-03,1,841,0.595561981201172,airplane,airplane,90,0841_ps_s03_90_airplane_10_n02690373_3065.png
subject-03,1,842,0.523820161819458,clock,clock,60,0842_ps_s03_60_clock_10_n04548280_7478.png
subject-03,1,843,0.531445026397705,clock,clock,0,0843_ps_s03_0_clock_10_n03196217_3605.png
subject-03,1,844,0.79495906829834,bicycle,oven,60,0844_ps_s03_60_oven_10_n04111531_6590.png
subject-03,1,845,0.932923078536987,dog,dog,0,0845_ps_s03_0_dog_10_n02090379_3514.png
subject-03,1,846,0.532747030258179,boat,boat,120,0846_ps_s03_120_boat_10_n03344393_8117.png
subject-03,1,847,1.28855800628662,dog,cat,0,0847_ps_s03_0_cat_10_n02123394_523.png
subject-03,1,848,0.770559072494507,keyboard,keyboard,60,0848_ps_s03_60_keyboard_10_n04505470_5880.png
subject-03,1,849,0.900063037872314,elephant,elephant,30,0849_ps_s03_30_elephant_10_n02504458_6602.png
subject-03,1,850,1.07598185539246,airplane,truck,60,0850_ps_s03_60_truck_10_n04467665_37833.png
subject-03,1,851,0.673766851425171,knife,knife,30,0851_ps_s03_30_knife_10_n03041632_56217.png
subject-03,1,852,0.823670148849487,keyboard,keyboard,120,0852_ps_s03_120_keyboard_10_n04505470_4385.png
subject-03,1,853,1.00557088851929,elephant,elephant,120,0853_ps_s03_120_elephant_10_n02504013_22557.png
subject-03,1,854,1.07718801498413,elephant,elephant,0,0854_ps_s03_0_elephant_10_n02504013_1698.png
subject-03,1,855,0.925345897674561,bear,boat,150,0855_ps_s03_150_boat_10_n04273569_1145.png
subject-03,1,856,0.860954999923706,bicycle,bicycle,60,0856_ps_s03_60_bicycle_10_n03792782_31010.png
subject-03,1,857,0.948544979095459,airplane,airplane,60,0857_ps_s03_60_airplane_10_n02690373_9376.png
subject-03,1,858,0.978438854217529,elephant,bear,90,0858_ps_s03_90_bear_10_n02134084_5733.png
subject-03,1,859,0.774165868759155,chair,chair,0,0859_ps_s03_0_chair_10_n02791124_2928.png
subject-03,1,860,0.714044094085693,bear,chair,180,0860_ps_s03_180_chair_10_n02791124_5109.png
subject-03,1,861,0.797845840454102,bear,cat,120,0861_ps_s03_120_cat_10_n02125311_9615.png
subject-03,1,862,1.44576692581177,chair,chair,90,0862_ps_s03_90_chair_10_n03376595_4155.png
subject-03,1,863,1.07338500022888,boat,bottle,180,0863_ps_s03_180_bottle_10_n04579145_1856.png
subject-03,1,864,1.20928382873535,bear,dog,30,0864_ps_s03_30_dog_10_n02109961_14202.png
subject-03,1,865,0.629221200942993,clock,clock,0,0865_ps_s03_0_clock_10_n04548280_487.png
subject-03,1,866,0.70122504234314,chair,chair,90,0866_ps_s03_90_chair_10_n04429376_41755.png
subject-03,1,867,0.856695175170898,cat,cat,120,0867_ps_s03_120_cat_10_n02123159_5706.png
subject-03,1,868,1.30062007904053,bird,bird,0,0868_ps_s03_0_bird_10_n01622779_6183.png
subject-03,1,869,0.708256959915161,car,car,0,0869_ps_s03_0_car_10_n03100240_9610.png
subject-03,1,870,0.722356081008911,airplane,airplane,30,0870_ps_s03_30_airplane_10_n02690373_13324.png
subject-03,1,871,0.593935012817383,car,car,0,0871_ps_s03_0_car_10_n03100240_22290.png
subject-03,1,872,0.855903148651123,car,car,30,0872_ps_s03_30_car_10_n03100240_16775.png
subject-03,1,873,0.765588045120239,bear,bird,180,0873_ps_s03_180_bird_10_n02018207_14738.png
subject-03,1,874,0.55952000617981,clock,clock,120,0874_ps_s03_120_clock_10_n04548280_354.png
subject-03,1,875,0.827536106109619,elephant,elephant,90,0875_ps_s03_90_elephant_10_n02504458_2662.png
subject-03,1,876,0.881041049957275,bicycle,bicycle,120,0876_ps_s03_120_bicycle_10_n03792782_4600.png
subject-03,1,877,0.838916063308716,clock,keyboard,90,0877_ps_s03_90_keyboard_10_n03085013_4914.png
subject-03,1,878,0.598839998245239,clock,clock,0,0878_ps_s03_0_clock_10_n04548280_2170.png
subject-03,1,879,0.902645111083984,knife,knife,90,0879_ps_s03_90_knife_10_n03041632_21472.png
subject-03,1,880,0.690398931503296,boat,boat,90,0880_ps_s03_90_boat_10_n02951358_14341.png
subject-03,1,881,1.14601993560791,cat,bottle,150,0881_ps_s03_150_bottle_10_n02823428_8543.png
subject-03,1,882,0.917546987533569,elephant,cat,60,0882_ps_s03_60_cat_10_n02123394_6487.png
subject-03,1,883,0.973852872848511,elephant,dog,60,0883_ps_s03_60_dog_10_n02113712_5829.png
subject-03,1,884,0.719204187393188,boat,elephant,150,0884_ps_s03_150_elephant_10_n02504458_4348.png
subject-03,1,885,0.717061996459961,bottle,bottle,90,0885_ps_s03_90_bottle_10_n02823428_1602.png
subject-03,1,886,0.420755863189697,clock,clock,60,0886_ps_s03_60_clock_10_n04548280_5866.png
subject-03,1,887,0.486701965332031,cat,cat,60,0887_ps_s03_60_cat_10_n02123159_3201.png
subject-03,1,888,0.840535879135132,bird,bird,30,0888_ps_s03_30_bird_10_n01824575_6272.png
subject-03,1,889,1.10870313644409,bicycle,cat,30,0889_ps_s03_30_cat_10_n02123045_9813.png
subject-03,1,890,0.828159093856812,clock,clock,90,0890_ps_s03_90_clock_10_n04548280_6743.png
subject-03,1,891,0.682016134262085,car,car,120,0891_ps_s03_120_car_10_n02814533_13533.png
subject-03,1,892,0.781765937805176,airplane,airplane,90,0892_ps_s03_90_airplane_10_n02690373_1436.png
subject-03,1,893,0.851408958435059,bear,knife,180,0893_ps_s03_180_knife_10_n03041632_5820.png
subject-03,1,894,0.771388053894043,bird,bird,120,0894_ps_s03_120_bird_10_n01855672_3952.png
subject-03,1,895,0.56127405166626,car,car,0,0895_ps_s03_0_car_10_n03100240_627.png
subject-03,1,896,0.966863870620728,bird,bear,90,0896_ps_s03_90_bear_10_n02133161_160.png
subject-03,1,897,1.07070899009705,boat,bird,150,0897_ps_s03_150_bird_10_n01855032_1306.png
subject-03,1,898,0.870526075363159,dog,dog,0,0898_ps_s03_0_dog_10_n02104365_1500.png
subject-03,1,899,0.822429895401001,bottle,bottle,30,0899_ps_s03_30_bottle_10_n04560804_8454.png
subject-03,1,900,1.19226217269897,bird,chair,180,0900_ps_s03_180_chair_10_n02791124_1258.png
subject-03,1,901,0.944143056869507,boat,bottle,120,0901_ps_s03_120_bottle_10_n04560804_15162.png
subject-03,1,902,1.27571105957031,truck,truck,30,0902_ps_s03_30_truck_10_n04467665_7329.png
subject-03,1,903,0.771672010421753,bear,knife,180,0903_ps_s03_180_knife_10_n03041632_44212.png
subject-03,1,904,0.603675127029419,boat,truck,180,0904_ps_s03_180_truck_10_n04467665_23758.png
subject-03,1,905,0.835346937179565,keyboard,keyboard,120,0905_ps_s03_120_keyboard_10_n04505470_1516.png
subject-03,1,906,0.935167074203491,knife,knife,60,0906_ps_s03_60_knife_10_n03041632_20662.png
subject-03,1,907,0.612696886062622,boat,boat,150,0907_ps_s03_150_boat_10_n03344393_6854.png
subject-03,1,908,0.908684968948364,car,airplane,120,0908_ps_s03_120_airplane_10_n02690373_2648.png
subject-03,1,909,0.93483304977417,chair,chair,90,0909_ps_s03_90_chair_10_n02791124_538.png
subject-03,1,910,0.900398015975952,bicycle,bear,180,0910_ps_s03_180_bear_10_n02133161_2316.png
subject-03,1,911,0.71028995513916,bear,bicycle,180,0911_ps_s03_180_bicycle_10_n03792782_3334.png
subject-03,1,912,0.98981785774231,dog,bottle,90,0912_ps_s03_90_bottle_10_n04591713_2014.png
subject-03,1,913,0.609802007675171,boat,boat,180,0913_ps_s03_180_boat_10_n03344393_7114.png
subject-03,1,914,1.39959001541138,elephant,bottle,180,0914_ps_s03_180_bottle_10_n03983396_4775.png
subject-03,1,915,0.971333980560303,bottle,bottle,60,0915_ps_s03_60_bottle_10_n04557648_4133.png
subject-03,1,916,1.26331806182861,knife,cat,120,0916_ps_s03_120_cat_10_n02123597_7297.png
subject-03,1,917,0.741113901138306,elephant,elephant,60,0917_ps_s03_60_elephant_10_n02504458_9516.png
subject-03,1,918,0.637217998504639,boat,bicycle,150,0918_ps_s03_150_bicycle_10_n02835271_4887.png
subject-03,1,919,0.800794124603271,dog,dog,30,0919_ps_s03_30_dog_10_n02093859_1001.png
subject-03,1,920,0.726449012756348,boat,car,150,0920_ps_s03_150_car_10_n04285008_810.png
subject-03,1,921,0.606339931488037,clock,oven,150,0921_ps_s03_150_oven_10_n04111531_22084.png
subject-03,1,922,0.934365034103394,airplane,airplane,30,0922_ps_s03_30_airplane_10_n02690373_10207.png
subject-03,1,923,0.993896007537842,bicycle,bicycle,0,0923_ps_s03_0_bicycle_10_n03792782_54196.png
subject-03,1,924,0.741546869277954,bear,oven,60,0924_ps_s03_60_oven_10_n04111531_1662.png
subject-03,1,925,0.849522113800049,bear,bear,0,0925_ps_s03_0_bear_10_n02133161_5292.png
subject-03,1,926,0.691356897354126,boat,oven,180,0926_ps_s03_180_oven_10_n04111531_23830.png
subject-03,1,927,0.967473983764648,bear,bear,30,0927_ps_s03_30_bear_10_n02134084_10766.png
subject-03,1,928,0.808942794799805,keyboard,keyboard,0,0928_ps_s03_0_keyboard_10_n04505470_3306.png
subject-03,1,929,0.750854015350342,elephant,elephant,0,0929_ps_s03_0_elephant_10_n02504458_7200.png
subject-03,1,930,0.632860898971558,oven,oven,60,0930_ps_s03_60_oven_10_n04111531_249.png
subject-03,1,931,0.676334142684937,bird,bird,30,0931_ps_s03_30_bird_10_n02007558_4009.png
subject-03,1,932,0.76823902130127,boat,boat,120,0932_ps_s03_120_boat_10_n04612504_15155.png
subject-03,1,933,0.806091070175171,airplane,airplane,120,0933_ps_s03_120_airplane_10_n02690373_13206.png
subject-03,1,934,0.755910873413086,bird,elephant,60,0934_ps_s03_60_elephant_10_n02504013_7314.png
subject-03,1,935,1.3398129940033,bicycle,boat,60,0935_ps_s03_60_boat_10_n04273569_1457.png
subject-03,1,936,0.859431982040405,knife,knife,90,0936_ps_s03_90_knife_10_n03041632_3171.png
subject-03,1,937,0.847584009170532,bird,oven,90,0937_ps_s03_90_oven_10_n04111531_30110.png
subject-03,1,938,0.593005180358887,boat,airplane,150,0938_ps_s03_150_airplane_10_n02690373_19353.png
subject-03,1,939,1.17079305648804,elephant,clock,150,0939_ps_s03_150_clock_10_n04548280_4524.png
subject-03,1,940,1.2686619758606,airplane,boat,120,0940_ps_s03_120_boat_10_n04273569_20587.png
subject-03,1,941,1.03252410888672,truck,truck,90,0941_ps_s03_90_truck_10_n04467665_22731.png
subject-03,1,942,0.624731779098511,boat,boat,90,0942_ps_s03_90_boat_10_n02951358_30773.png
subject-03,1,943,1.05049610137939,airplane,airplane,120,0943_ps_s03_120_airplane_10_n02690373_4495.png
subject-03,1,944,0.881921052932739,elephant,bird,120,0944_ps_s03_120_bird_10_n01796340_12914.png
subject-03,1,945,0.807727098464966,bird,bird,90,0945_ps_s03_90_bird_10_n01819313_5521.png
subject-03,1,946,0.473572015762329,boat,boat,180,0946_ps_s03_180_boat_10_n03662601_5223.png
subject-03,1,947,0.737867832183838,boat,elephant,150,0947_ps_s03_150_elephant_10_n02504458_952.png
subject-03,1,948,0.783093214035034,bear,bicycle,120,0948_ps_s03_120_bicycle_10_n02835271_12346.png
subject-03,1,949,0.800837993621826,car,truck,150,0949_ps_s03_150_truck_10_n03417042_5503.png
subject-03,1,950,1.17481589317322,bear,bicycle,180,0950_ps_s03_180_bicycle_10_n02835271_1653.png
subject-03,1,951,0.578717947006226,bear,bear,120,0951_ps_s03_120_bear_10_n02133161_361.png
subject-03,1,952,0.846692085266113,keyboard,keyboard,90,0952_ps_s03_90_keyboard_10_n03085013_20247.png
subject-03,1,953,0.930328845977783,car,knife,150,0953_ps_s03_150_knife_10_n03041632_2319.png
subject-03,1,954,0.936163902282715,airplane,oven,180,0954_ps_s03_180_oven_10_n04111531_14611.png
subject-03,1,955,0.69187593460083,keyboard,bottle,150,0955_ps_s03_150_bottle_10_n03937543_4783.png
subject-03,1,956,0.555614948272705,boat,boat,180,0956_ps_s03_180_boat_10_n04612504_4302.png
subject-03,1,957,1.08741903305054,bicycle,knife,90,0957_ps_s03_90_knife_10_n03041632_89391.png
subject-03,1,958,0.525413990020752,clock,clock,30,0958_ps_s03_30_clock_10_n03196217_5267.png
subject-03,1,959,0.907316923141479,bird,oven,180,0959_ps_s03_180_oven_10_n04111531_9026.png
subject-03,1,960,1.41508007049561,car,knife,150,0960_ps_s03_150_knife_10_n03041632_16606.png
subject-03,1,961,0.845864057540894,elephant,elephant,0,0961_ps_s03_0_elephant_10_n02504013_20805.png
subject-03,1,962,0.66570782661438,bear,bear,180,0962_ps_s03_180_bear_10_n02133161_897.png
subject-03,1,963,0.535453081130981,boat,boat,180,0963_ps_s03_180_boat_10_n03344393_5566.png
subject-03,1,964,0.619238138198853,clock,clock,90,0964_ps_s03_90_clock_10_n02708093_6850.png
subject-03,1,965,0.71916389465332,truck,truck,0,0965_ps_s03_0_truck_10_n04467665_18234.png
subject-03,1,966,0.630801916122437,bottle,bottle,60,0966_ps_s03_60_bottle_10_n04557648_10582.png
subject-03,1,967,0.68100905418396,bear,bird,60,0967_ps_s03_60_bird_10_n02037110_4572.png
subject-03,1,968,0.788550138473511,bottle,bottle,60,0968_ps_s03_60_bottle_10_n03983396_24525.png
subject-03,1,969,0.60820198059082,boat,boat,90,0969_ps_s03_90_boat_10_n04273569_18037.png
subject-03,1,970,0.950226068496704,bottle,oven,30,0970_ps_s03_30_oven_10_n04111531_2770.png
subject-03,1,971,0.649909973144531,boat,dog,150,0971_ps_s03_150_dog_10_n02108915_7875.png
subject-03,1,972,0.637857913970947,bottle,bottle,120,0972_ps_s03_120_bottle_10_n02823428_3111.png
subject-03,1,973,0.627553939819336,airplane,airplane,0,0973_ps_s03_0_airplane_10_n02690373_4294.png
subject-03,1,974,0.939491033554077,bicycle,chair,150,0974_ps_s03_150_chair_10_n03376595_1302.png
subject-03,1,975,0.635077953338623,boat,boat,120,0975_ps_s03_120_boat_10_n03344393_11315.png
subject-03,1,976,0.437472105026245,clock,clock,90,0976_ps_s03_90_clock_10_n02708093_6696.png
subject-03,1,977,0.948803901672363,car,car,30,0977_ps_s03_30_car_10_n04285008_3688.png
subject-03,1,978,0.640959024429321,boat,bicycle,150,0978_ps_s03_150_bicycle_10_n02835271_783.png
subject-03,1,979,0.742457151412964,bird,clock,180,0979_ps_s03_180_clock_10_n03196217_6257.png
subject-03,1,980,0.658368110656738,bottle,bottle,30,0980_ps_s03_30_bottle_10_n04557648_7693.png
subject-03,1,981,0.788039922714233,chair,chair,0,0981_ps_s03_0_chair_10_n04099969_1028.png
subject-03,1,982,0.691870927810669,bird,bird,30,0982_ps_s03_30_bird_10_n01843065_2664.png
subject-03,1,983,0.599692106246948,bottle,bottle,60,0983_ps_s03_60_bottle_10_n03983396_10027.png
subject-03,1,984,0.759400129318237,boat,boat,90,0984_ps_s03_90_boat_10_n03662601_9069.png
subject-03,1,985,0.679184198379517,bicycle,bear,120,0985_ps_s03_120_bear_10_n02134418_14451.png
subject-03,1,986,1.17140102386475,boat,keyboard,150,0986_ps_s03_150_keyboard_10_n03085013_17884.png
subject-03,1,987,0.933266878128052,airplane,oven,150,0987_ps_s03_150_oven_10_n04111531_15735.png
subject-03,1,988,0.688599824905396,bicycle,dog,150,0988_ps_s03_150_dog_10_n02110063_3399.png
subject-03,1,989,1.06663107872009,truck,bottle,150,0989_ps_s03_150_bottle_10_n03937543_71.png
subject-03,1,990,0.99435019493103,bottle,elephant,60,0990_ps_s03_60_elephant_10_n02504013_8905.png
subject-03,1,991,0.712396144866943,bicycle,bicycle,60,0991_ps_s03_60_bicycle_10_n03792782_17673.png
subject-03,1,992,0.987916946411133,bear,dog,120,0992_ps_s03_120_dog_10_n02099849_4250.png
subject-03,1,993,0.665963172912598,knife,oven,120,0993_ps_s03_120_oven_10_n04111531_9344.png
subject-03,1,994,1.14564990997314,cat,cat,90,0994_ps_s03_90_cat_10_n02125311_36331.png
subject-03,1,995,1.00174784660339,knife,elephant,30,0995_ps_s03_30_elephant_10_n02504013_7010.png
subject-03,1,996,0.863286972045898,airplane,airplane,0,0996_ps_s03_0_airplane_10_n02690373_20011.png
subject-03,1,997,0.882974863052368,elephant,dog,90,0997_ps_s03_90_dog_10_n02085782_4522.png
subject-03,1,998,1.15706992149353,cat,knife,0,0998_ps_s03_0_knife_10_n03041632_13225.png
subject-03,1,999,0.810700178146362,bottle,bottle,90,0999_ps_s03_90_bottle_10_n04579145_3149.png
subject-03,1,1000,0.902482032775879,knife,knife,60,1000_ps_s03_60_knife_10_n03041632_105081.png
subject-03,1,1001,0.748332023620605,bear,bottle,120,1001_ps_s03_120_bottle_10_n02823428_14453.png
subject-03,1,1002,0.581974983215332,oven,oven,90,1002_ps_s03_90_oven_10_n04111531_2803.png
subject-03,1,1003,0.548300981521606,boat,dog,180,1003_ps_s03_180_dog_10_n02091244_11713.png
subject-03,1,1004,0.527667999267578,clock,clock,90,1004_ps_s03_90_clock_10_n03196217_127.png
subject-03,1,1005,1.03591895103455,bear,bicycle,120,1005_ps_s03_120_bicycle_10_n02835271_9237.png
subject-03,1,1006,0.823318958282471,truck,dog,180,1006_ps_s03_180_dog_10_n02106166_134.png
subject-03,1,1007,0.655269861221313,boat,boat,0,1007_ps_s03_0_boat_10_n04273569_15322.png
subject-03,1,1008,1.13888311386108,bear,bird,120,1008_ps_s03_120_bird_10_n01616318_4652.png
subject-03,1,1009,1.07888102531433,chair,chair,0,1009_ps_s03_0_chair_10_n02791124_16885.png
subject-03,1,1010,0.932778835296631,boat,airplane,180,1010_ps_s03_180_airplane_10_n02690373_4375.png
subject-03,1,1011,0.804409027099609,bear,dog,150,1011_ps_s03_150_dog_10_n02108000_6454.png
subject-03,1,1012,0.722562789916992,cat,cat,120,1012_ps_s03_120_cat_10_n02123045_567.png
subject-03,1,1013,0.884515047073364,clock,bicycle,120,1013_ps_s03_120_bicycle_10_n02835271_13644.png
subject-03,1,1014,0.717897891998291,boat,elephant,150,1014_ps_s03_150_elephant_10_n02504458_1600.png
subject-03,1,1015,0.567870140075684,bicycle,bird,180,1015_ps_s03_180_bird_10_n01818515_11687.png
subject-03,1,1016,0.885700225830078,bird,bird,0,1016_ps_s03_0_bird_10_n01537544_1943.png
subject-03,1,1017,0.757363080978394,truck,bicycle,150,1017_ps_s03_150_bicycle_10_n02835271_4396.png
subject-03,1,1018,1.08306407928467,elephant,elephant,120,1018_ps_s03_120_elephant_10_n02504458_1698.png
subject-03,1,1019,0.78889799118042,knife,truck,180,1019_ps_s03_180_truck_10_n04467665_39477.png
subject-03,1,1020,0.958832979202271,airplane,airplane,60,1020_ps_s03_60_airplane_10_n02690373_7748.png
subject-03,1,1021,0.616500854492188,oven,oven,30,1021_ps_s03_30_oven_10_n04111531_21822.png
subject-03,1,1022,0.866390943527222,dog,dog,90,1022_ps_s03_90_dog_10_n02110063_16680.png
subject-03,1,1023,0.656157970428467,bear,chair,120,1023_ps_s03_120_chair_10_n02791124_2773.png
subject-03,1,1024,0.685909032821655,elephant,elephant,30,1024_ps_s03_30_elephant_10_n02504458_10332.png
subject-03,1,1025,0.887993097305298,airplane,airplane,120,1025_ps_s03_120_airplane_10_n02690373_2092.png
subject-03,1,1026,0.879638910293579,bicycle,truck,120,1026_ps_s03_120_truck_10_n03796401_4370.png
subject-03,1,1027,0.469824075698853,boat,bottle,180,1027_ps_s03_180_bottle_10_n03983396_3408.png
subject-03,1,1028,0.635540008544922,boat,boat,30,1028_ps_s03_30_boat_10_n02951358_16837.png
subject-03,1,1029,0.757544994354248,knife,bottle,120,1029_ps_s03_120_bottle_10_n03937543_10666.png
subject-03,1,1030,0.849228143692017,elephant,bird,180,1030_ps_s03_180_bird_10_n01833805_8179.png
subject-03,1,1031,0.784692049026489,clock,knife,90,1031_ps_s03_90_knife_10_n03041632_84086.png
subject-03,1,1032,0.814722061157227,car,car,0,1032_ps_s03_0_car_10_n03100240_9982.png
subject-03,1,1033,0.804430961608887,elephant,elephant,120,1033_ps_s03_120_elephant_10_n02504458_9213.png
subject-03,1,1034,0.690546035766602,cat,clock,120,1034_ps_s03_120_clock_10_n02708093_111.png
subject-03,1,1035,0.852024078369141,boat,dog,180,1035_ps_s03_180_dog_10_n02099429_4843.png
subject-03,1,1036,1.11395001411438,elephant,elephant,90,1036_ps_s03_90_elephant_10_n02504013_2233.png
subject-03,1,1037,0.757531881332397,bear,bear,180,1037_ps_s03_180_bear_10_n02133161_832.png
subject-03,1,1038,0.575384855270386,airplane,airplane,0,1038_ps_s03_0_airplane_10_n02690373_4144.png
subject-03,1,1039,0.899231195449829,bicycle,bicycle,90,1039_ps_s03_90_bicycle_10_n02835271_2581.png
subject-03,1,1040,1.08904504776001,boat,keyboard,180,1040_ps_s03_180_keyboard_10_n03085013_1808.png
subject-03,1,1041,0.875026941299438,boat,airplane,150,1041_ps_s03_150_airplane_10_n02690373_4070.png
subject-03,1,1042,0.537010908126831,airplane,airplane,0,1042_ps_s03_0_airplane_10_n02690373_3899.png
subject-03,1,1043,0.735127925872803,bicycle,elephant,90,1043_ps_s03_90_elephant_10_n02504458_7857.png
subject-03,1,1044,0.600489139556885,bear,bear,30,1044_ps_s03_30_bear_10_n02132136_21267.png
subject-03,1,1045,0.762372016906738,boat,boat,180,1045_ps_s03_180_boat_10_n04273569_568.png
subject-03,1,1046,0.768193006515503,bird,bird,60,1046_ps_s03_60_bird_10_n01622779_13896.png
subject-03,1,1047,0.696079015731812,chair,chair,30,1047_ps_s03_30_chair_10_n03376595_15124.png
subject-03,1,1048,0.645984172821045,boat,cat,150,1048_ps_s03_150_cat_10_n02124075_14020.png
subject-03,1,1049,0.697470188140869,bottle,clock,120,1049_ps_s03_120_clock_10_n03196217_5745.png
subject-03,1,1050,0.929317951202393,elephant,elephant,90,1050_ps_s03_90_elephant_10_n02504013_3640.png
subject-03,1,1051,0.61524510383606,boat,airplane,180,1051_ps_s03_180_airplane_10_n02690373_1316.png
subject-03,1,1052,0.517092943191528,clock,clock,90,1052_ps_s03_90_clock_10_n04548280_764.png
subject-03,1,1053,0.617206811904907,airplane,airplane,30,1053_ps_s03_30_airplane_10_n02690373_1928.png
subject-03,1,1054,0.770703077316284,bicycle,oven,30,1054_ps_s03_30_oven_10_n04111531_2831.png
subject-03,1,1055,0.800590038299561,bottle,bottle,90,1055_ps_s03_90_bottle_10_n03937543_4512.png
subject-03,1,1056,0.868396043777466,dog,dog,0,1056_ps_s03_0_dog_10_n02107574_1277.png
subject-03,1,1057,0.850214004516602,car,cat,180,1057_ps_s03_180_cat_10_n02123045_13220.png
subject-03,1,1058,0.54987096786499,bear,clock,150,1058_ps_s03_150_clock_10_n04548280_23221.png
subject-03,1,1059,0.977748155593872,chair,chair,60,1059_ps_s03_60_chair_10_n04099969_16382.png
subject-03,1,1060,0.803561925888062,truck,keyboard,150,1060_ps_s03_150_keyboard_10_n04505470_2709.png
subject-03,1,1061,0.861268997192383,airplane,airplane,60,1061_ps_s03_60_airplane_10_n02690373_13078.png
subject-03,1,1062,0.921036958694458,dog,cat,30,1062_ps_s03_30_cat_10_n02123394_4633.png
subject-03,1,1063,0.989171981811523,bicycle,bicycle,30,1063_ps_s03_30_bicycle_10_n03792782_42927.png
subject-03,1,1064,0.708939075469971,bear,elephant,120,1064_ps_s03_120_elephant_10_n02504013_5945.png
subject-03,1,1065,0.722586870193481,boat,truck,150,1065_ps_s03_150_truck_10_n03417042_17911.png
