subj,Session,trial,rt,object_response,category,condition,imagename
subject-03,1,1,1.12425494194031,dog,knife,16-3-10,0001_eid_s03_16-3-10_knife_10_n03041632_32004.png
subject-03,1,2,1.05423808097839,dog,dog,32-3-10,0002_eid_s03_32-3-10_dog_10_n02093754_4949.png
subject-03,1,3,0.806335926055908,cat,dog,8-3-10,0003_eid_s03_8-3-10_dog_10_n02107574_2354.png
subject-03,1,4,1.27607107162476,oven,oven,4-3-10,0004_eid_s03_4-3-10_oven_10_n04111531_11655.png
subject-03,1,5,1.4073851108551,oven,oven,4-3-10,0005_eid_s03_4-3-10_oven_10_n04111531_6445.png
subject-03,1,6,0.687587976455688,boat,boat,4-3-10,0006_eid_s03_4-3-10_boat_10_n03344393_7614.png
subject-03,1,7,0.805250883102417,bear,chair,32-3-10,0007_eid_s03_32-3-10_chair_10_n02791124_9216.png
subject-03,1,8,1.24695301055908,elephant,boat,64-3-10,0008_eid_s03_64-3-10_boat_10_n04612504_5489.png
subject-03,1,9,1.3548891544342,airplane,bicycle,16-3-10,0009_eid_s03_16-3-10_bicycle_10_n02835271_1974.png
subject-03,1,10,0.906760931015015,bicycle,bicycle,4-3-10,0010_eid_s03_4-3-10_bicycle_10_n02835271_8180.png
subject-03,1,11,0.868474006652832,elephant,elephant,2-3-10,0011_eid_s03_2-3-10_elephant_10_n02504013_2549.png
subject-03,1,12,1.09836292266846,airplane,clock,32-3-10,0012_eid_s03_32-3-10_clock_10_n03196217_6357.png
subject-03,1,13,0.764062166213989,clock,clock,2-3-10,0013_eid_s03_2-3-10_clock_10_n03196217_1754.png
subject-03,1,14,1.03795289993286,truck,truck,2-3-10,0014_eid_s03_2-3-10_truck_10_n04467665_68785.png
subject-03,1,15,1.02625584602356,bear,keyboard,64-3-10,0015_eid_s03_64-3-10_keyboard_10_n03085013_6313.png
subject-03,1,16,0.899718046188354,bear,bear,2-3-10,0016_eid_s03_2-3-10_bear_10_n02133161_10314.png
subject-03,1,17,1.11752605438232,dog,truck,32-3-10,0017_eid_s03_32-3-10_truck_10_n04467665_37953.png
subject-03,1,18,0.655208826065063,airplane,airplane,2-3-10,0018_eid_s03_2-3-10_airplane_10_n02690373_19345.png
subject-03,1,19,0.891064882278442,cat,dog,8-3-10,0019_eid_s03_8-3-10_dog_10_n02087394_239.png
subject-03,1,20,0.864892959594727,bottle,chair,8-3-10,0020_eid_s03_8-3-10_chair_10_n04099969_20421.png
subject-03,1,21,0.952596187591553,boat,boat,1-3-10,0021_eid_s03_1-3-10_boat_10_n04273569_12318.png
subject-03,1,22,1.02235984802246,truck,truck,8-3-10,0022_eid_s03_8-3-10_truck_10_n03417042_29849.png
subject-03,1,23,1.32436299324036,dog,cat,32-3-10,0023_eid_s03_32-3-10_cat_10_n02123597_8698.png
subject-03,1,24,1.50003099441528,boat,airplane,32-3-10,0024_eid_s03_32-3-10_airplane_10_n02690373_8815.png
subject-03,1,25,1.39173412322998,bear,airplane,32-3-10,0025_eid_s03_32-3-10_airplane_10_n02690373_349.png
subject-03,1,26,0.969985008239746,knife,knife,4-3-10,0026_eid_s03_4-3-10_knife_10_n03041632_30196.png
subject-03,1,27,1.09533309936523,airplane,truck,16-3-10,0027_eid_s03_16-3-10_truck_10_n03796401_2751.png
subject-03,1,28,0.893224954605103,dog,dog,4-3-10,0028_eid_s03_4-3-10_dog_10_n02086240_1183.png
subject-03,1,29,0.829010009765625,bear,bottle,64-3-10,0029_eid_s03_64-3-10_bottle_10_n03937543_49.png
subject-03,1,30,0.96078085899353,cat,bottle,128-3-10,0030_eid_s03_128-3-10_bottle_10_n04560804_5540.png
subject-03,1,31,0.797076940536499,chair,chair,1-3-10,0031_eid_s03_1-3-10_chair_10_n04099969_9425.png
subject-03,1,32,1.19244909286499,dog,chair,32-3-10,0032_eid_s03_32-3-10_chair_10_n02791124_2212.png
subject-03,1,33,0.934347867965698,cat,boat,128-3-10,0033_eid_s03_128-3-10_boat_10_n03662601_9628.png
subject-03,1,34,0.690292835235596,oven,chair,128-3-10,0034_eid_s03_128-3-10_chair_10_n02791124_622.png
subject-03,1,35,1.34018301963806,dog,elephant,32-3-10,0035_eid_s03_32-3-10_elephant_10_n02504458_6398.png
subject-03,1,36,1.50000190734863,dog,bottle,16-3-10,0036_eid_s03_16-3-10_bottle_10_n04560804_4145.png
subject-03,1,37,1.37797522544861,dog,bicycle,16-3-10,0037_eid_s03_16-3-10_bicycle_10_n03792782_1682.png
subject-03,1,38,0.921556949615479,boat,boat,8-3-10,0038_eid_s03_8-3-10_boat_10_n02951358_4650.png
subject-03,1,39,0.95941686630249,cat,dog,16-3-10,0039_eid_s03_16-3-10_dog_10_n02089867_6106.png
subject-03,1,40,1.50014591217041,dog,elephant,8-3-10,0040_eid_s03_8-3-10_elephant_10_n02504013_6303.png
subject-03,1,41,0.834933042526245,cat,airplane,64-3-10,0041_eid_s03_64-3-10_airplane_10_n02690373_2078.png
subject-03,1,42,1.02268409729004,bear,dog,32-3-10,0042_eid_s03_32-3-10_dog_10_n02087394_7569.png
subject-03,1,43,0.700506925582886,clock,clock,4-3-10,0043_eid_s03_4-3-10_clock_10_n04548280_4249.png
subject-03,1,44,0.668390989303589,boat,boat,2-3-10,0044_eid_s03_2-3-10_boat_10_n03344393_4221.png
subject-03,1,45,0.808261871337891,bottle,bottle,8-3-10,0045_eid_s03_8-3-10_bottle_10_n03983396_8552.png
subject-03,1,46,1.12787199020386,dog,elephant,16-3-10,0046_eid_s03_16-3-10_elephant_10_n02504013_2431.png
subject-03,1,47,0.695703983306885,knife,knife,4-3-10,0047_eid_s03_4-3-10_knife_10_n03041632_15431.png
subject-03,1,48,0.983695030212402,bear,bear,64-3-10,0048_eid_s03_64-3-10_bear_10_n02133161_6946.png
subject-03,1,49,1.32744979858398,knife,clock,4-3-10,0049_eid_s03_4-3-10_clock_10_n03196217_10384.png
subject-03,1,50,1.0134060382843,car,clock,64-3-10,0050_eid_s03_64-3-10_clock_10_n03196217_1000.png
subject-03,1,51,0.824990034103394,bottle,bottle,4-3-10,0051_eid_s03_4-3-10_bottle_10_n04579145_6678.png
subject-03,1,52,0.987162113189697,bird,airplane,64-3-10,0052_eid_s03_64-3-10_airplane_10_n02690373_7107.png
subject-03,1,53,1.03507804870605,oven,oven,1-3-10,0053_eid_s03_1-3-10_oven_10_n04111531_18916.png
subject-03,1,54,0.792598009109497,keyboard,bottle,128-3-10,0054_eid_s03_128-3-10_bottle_10_n04560804_2521.png
subject-03,1,55,1.14819192886353,dog,dog,16-3-10,0055_eid_s03_16-3-10_dog_10_n02101388_2177.png
subject-03,1,56,0.872214078903198,bear,bear,8-3-10,0056_eid_s03_8-3-10_bear_10_n02133161_15481.png
subject-03,1,57,1.05200600624084,cat,keyboard,64-3-10,0057_eid_s03_64-3-10_keyboard_10_n03085013_20849.png
subject-03,1,58,1.22372007369995,knife,chair,8-3-10,0058_eid_s03_8-3-10_chair_10_n04099969_72.png
subject-03,1,59,NaN,na,cat,8-3-10,0059_eid_s03_8-3-10_cat_10_n02123597_9901.png
subject-03,1,60,0.989751100540161,cat,knife,128-3-10,0060_eid_s03_128-3-10_knife_10_n03041632_18468.png
subject-03,1,61,1.1732931137085,clock,clock,2-3-10,0061_eid_s03_2-3-10_clock_10_n03196217_7759.png
subject-03,1,62,0.963006019592285,cat,boat,64-3-10,0062_eid_s03_64-3-10_boat_10_n04612504_3379.png
subject-03,1,63,0.734811067581177,bottle,bottle,8-3-10,0063_eid_s03_8-3-10_bottle_10_n04557648_4974.png
subject-03,1,64,0.812705993652344,bear,bear,4-3-10,0064_eid_s03_4-3-10_bear_10_n02133161_5325.png
subject-03,1,65,0.984308958053589,dog,chair,32-3-10,0065_eid_s03_32-3-10_chair_10_n04429376_29223.png
subject-03,1,66,1.28825283050537,bear,bear,16-3-10,0066_eid_s03_16-3-10_bear_10_n02133161_2400.png
subject-03,1,67,1.23194098472595,car,dog,64-3-10,0067_eid_s03_64-3-10_dog_10_n02110806_24067.png
subject-03,1,68,1.01177501678467,cat,dog,64-3-10,0068_eid_s03_64-3-10_dog_10_n02100877_8862.png
subject-03,1,69,1.28585410118103,bird,cat,128-3-10,0069_eid_s03_128-3-10_cat_10_n02123045_8784.png
subject-03,1,70,1.47343516349792,bottle,oven,16-3-10,0070_eid_s03_16-3-10_oven_10_n04111531_10064.png
subject-03,1,71,1.09331011772156,bear,bicycle,32-3-10,0071_eid_s03_32-3-10_bicycle_10_n02835271_12025.png
subject-03,1,72,0.959146022796631,bicycle,bottle,64-3-10,0072_eid_s03_64-3-10_bottle_10_n04557648_3598.png
subject-03,1,73,1.13696908950806,cat,clock,16-3-10,0073_eid_s03_16-3-10_clock_10_n04548280_2283.png
subject-03,1,74,0.901098966598511,bottle,bottle,2-3-10,0074_eid_s03_2-3-10_bottle_10_n04591713_2485.png
subject-03,1,75,1.17500281333923,elephant,elephant,2-3-10,0075_eid_s03_2-3-10_elephant_10_n02504458_4849.png
subject-03,1,76,0.814369916915894,bear,bicycle,64-3-10,0076_eid_s03_64-3-10_bicycle_10_n02835271_1721.png
subject-03,1,77,1.34432101249695,keyboard,keyboard,2-3-10,0077_eid_s03_2-3-10_keyboard_10_n03085013_24192.png
subject-03,1,78,1.01212692260742,cat,cat,16-3-10,0078_eid_s03_16-3-10_cat_10_n02123045_9465.png
subject-03,1,79,1.34163999557495,dog,dog,8-3-10,0079_eid_s03_8-3-10_dog_10_n02098286_2242.png
subject-03,1,80,1.28567814826965,dog,cat,64-3-10,0080_eid_s03_64-3-10_cat_10_n02123159_7386.png
subject-03,1,81,0.694624900817871,airplane,airplane,2-3-10,0081_eid_s03_2-3-10_airplane_10_n02690373_9762.png
subject-03,1,82,NaN,na,truck,32-3-10,0082_eid_s03_32-3-10_truck_10_n04467665_67927.png
subject-03,1,83,1.07253408432007,bear,car,32-3-10,0083_eid_s03_32-3-10_car_10_n04285008_15570.png
subject-03,1,84,0.79816198348999,cat,cat,4-3-10,0084_eid_s03_4-3-10_cat_10_n02123394_4228.png
subject-03,1,85,0.884098052978516,airplane,airplane,16-3-10,0085_eid_s03_16-3-10_airplane_10_n02690373_848.png
subject-03,1,86,1.19378089904785,keyboard,keyboard,128-3-10,0086_eid_s03_128-3-10_keyboard_10_n03085013_7879.png
subject-03,1,87,0.809401035308838,keyboard,keyboard,128-3-10,0087_eid_s03_128-3-10_keyboard_10_n03085013_34973.png
subject-03,1,88,0.715451002120972,cat,cat,2-3-10,0088_eid_s03_2-3-10_cat_10_n02123159_5749.png
subject-03,1,89,1.05727100372314,dog,chair,32-3-10,0089_eid_s03_32-3-10_chair_10_n03376595_14138.png
subject-03,1,90,0.960976123809814,dog,cat,8-3-10,0090_eid_s03_8-3-10_cat_10_n02124075_5828.png
subject-03,1,91,1.10881400108337,keyboard,clock,4-3-10,0091_eid_s03_4-3-10_clock_10_n03196217_1376.png
subject-03,1,92,1.16269302368164,keyboard,chair,128-3-10,0092_eid_s03_128-3-10_chair_10_n04429376_9165.png
subject-03,1,93,0.902626037597656,bear,bicycle,64-3-10,0093_eid_s03_64-3-10_bicycle_10_n02835271_22448.png
subject-03,1,94,0.896201848983765,dog,dog,1-3-10,0094_eid_s03_1-3-10_dog_10_n02091134_5848.png
subject-03,1,95,1.0060122013092,dog,oven,128-3-10,0095_eid_s03_128-3-10_oven_10_n04111531_14848.png
subject-03,1,96,0.880160093307495,cat,airplane,32-3-10,0096_eid_s03_32-3-10_airplane_10_n02690373_629.png
subject-03,1,97,0.613754987716675,boat,cat,64-3-10,0097_eid_s03_64-3-10_cat_10_n02123394_2153.png
subject-03,1,98,0.937577962875366,dog,clock,64-3-10,0098_eid_s03_64-3-10_clock_10_n03196217_1187.png
subject-03,1,99,0.983381986618042,airplane,airplane,8-3-10,0099_eid_s03_8-3-10_airplane_10_n02690373_5221.png
subject-03,1,100,1.1710741519928,bird,bird,16-3-10,0100_eid_s03_16-3-10_bird_10_n01843383_3274.png
subject-03,1,101,0.818975925445557,dog,bicycle,4-3-10,0101_eid_s03_4-3-10_bicycle_10_n02835271_5413.png
subject-03,1,102,1.03680896759033,dog,chair,16-3-10,0102_eid_s03_16-3-10_chair_10_n03376595_6986.png
subject-03,1,103,0.884476900100708,bear,bear,2-3-10,0103_eid_s03_2-3-10_bear_10_n02133161_2456.png
subject-03,1,104,0.906399965286255,keyboard,knife,128-3-10,0104_eid_s03_128-3-10_knife_10_n03041632_4879.png
subject-03,1,105,1.07855892181396,bear,bottle,32-3-10,0105_eid_s03_32-3-10_bottle_10_n04560804_16815.png
subject-03,1,106,0.936225175857544,dog,dog,16-3-10,0106_eid_s03_16-3-10_dog_10_n02111129_1065.png
subject-03,1,107,1.12978792190552,bird,knife,8-3-10,0107_eid_s03_8-3-10_knife_10_n03041632_24114.png
subject-03,1,108,0.729590892791748,bear,bear,4-3-10,0108_eid_s03_4-3-10_bear_10_n02134418_5271.png
subject-03,1,109,0.977489948272705,dog,dog,8-3-10,0109_eid_s03_8-3-10_dog_10_n02096294_5781.png
subject-03,1,110,0.821364879608154,keyboard,truck,128-3-10,0110_eid_s03_128-3-10_truck_10_n03417042_18603.png
subject-03,1,111,0.679020881652832,car,car,4-3-10,0111_eid_s03_4-3-10_car_10_n02814533_55326.png
subject-03,1,112,1.15679883956909,bear,cat,32-3-10,0112_eid_s03_32-3-10_cat_10_n02123045_4089.png
subject-03,1,113,1.38262104988098,bird,car,16-3-10,0113_eid_s03_16-3-10_car_10_n02814533_8025.png
subject-03,1,114,0.716599941253662,chair,chair,1-3-10,0114_eid_s03_1-3-10_chair_10_n04429376_2915.png
subject-03,1,115,1.10618901252747,cat,oven,8-3-10,0115_eid_s03_8-3-10_oven_10_n04111531_1002.png
subject-03,1,116,0.770215034484863,knife,knife,1-3-10,0116_eid_s03_1-3-10_knife_10_n03041632_94202.png
subject-03,1,117,1.45797300338745,truck,truck,8-3-10,0117_eid_s03_8-3-10_truck_10_n04467665_28301.png
subject-03,1,118,0.813676118850708,keyboard,keyboard,2-3-10,0118_eid_s03_2-3-10_keyboard_10_n03085013_19416.png
subject-03,1,119,0.853590965270996,chair,chair,2-3-10,0119_eid_s03_2-3-10_chair_10_n03376595_6518.png
subject-03,1,120,1.18735909461975,bear,airplane,128-3-10,0120_eid_s03_128-3-10_airplane_10_n02690373_8740.png
subject-03,1,121,1.26941990852356,bear,keyboard,32-3-10,0121_eid_s03_32-3-10_keyboard_10_n03085013_24626.png
subject-03,1,122,0.931174993515015,car,car,2-3-10,0122_eid_s03_2-3-10_car_10_n03100240_6836.png
subject-03,1,123,0.862869024276733,elephant,elephant,4-3-10,0123_eid_s03_4-3-10_elephant_10_n02504458_847.png
subject-03,1,124,1.09854078292847,truck,oven,8-3-10,0124_eid_s03_8-3-10_oven_10_n04111531_11848.png
subject-03,1,125,1.15286993980408,dog,elephant,32-3-10,0125_eid_s03_32-3-10_elephant_10_n02504458_7818.png
subject-03,1,126,1.29816508293152,oven,knife,32-3-10,0126_eid_s03_32-3-10_knife_10_n03041632_8618.png
subject-03,1,127,NaN,na,knife,1-3-10,0127_eid_s03_1-3-10_knife_10_n03041632_9635.png
subject-03,1,128,1.0618679523468,airplane,dog,2-3-10,0128_eid_s03_2-3-10_dog_10_n02092339_3615.png
subject-03,1,129,0.887694120407104,bottle,bottle,4-3-10,0129_eid_s03_4-3-10_bottle_10_n03983396_4300.png
subject-03,1,130,0.925568103790283,dog,dog,64-3-10,0130_eid_s03_64-3-10_dog_10_n02090379_605.png
subject-03,1,131,0.753320932388306,cat,cat,2-3-10,0131_eid_s03_2-3-10_cat_10_n02123045_2721.png
subject-03,1,132,0.766999006271362,truck,truck,4-3-10,0132_eid_s03_4-3-10_truck_10_n03417042_21758.png
subject-03,1,133,1.03678703308105,cat,bird,32-3-10,0133_eid_s03_32-3-10_bird_10_n02028035_6827.png
subject-03,1,134,0.802706956863403,cat,car,32-3-10,0134_eid_s03_32-3-10_car_10_n02814533_70922.png
subject-03,1,135,0.840889930725098,bottle,truck,2-3-10,0135_eid_s03_2-3-10_truck_10_n03796401_6472.png
subject-03,1,136,0.730565071105957,airplane,airplane,1-3-10,0136_eid_s03_1-3-10_airplane_10_n02690373_12436.png
subject-03,1,137,1.02216410636902,keyboard,keyboard,8-3-10,0137_eid_s03_8-3-10_keyboard_10_n03085013_19512.png
subject-03,1,138,0.77994704246521,airplane,airplane,1-3-10,0138_eid_s03_1-3-10_airplane_10_n02690373_6314.png
subject-03,1,139,1.12990188598633,dog,keyboard,64-3-10,0139_eid_s03_64-3-10_keyboard_10_n03085013_23828.png
subject-03,1,140,1.15152502059937,dog,bird,64-3-10,0140_eid_s03_64-3-10_bird_10_n01843383_4667.png
subject-03,1,141,0.855494976043701,bicycle,bicycle,4-3-10,0141_eid_s03_4-3-10_bicycle_10_n02835271_8618.png
subject-03,1,142,0.70740008354187,car,car,8-3-10,0142_eid_s03_8-3-10_car_10_n02814533_31384.png
subject-03,1,143,0.7850661277771,cat,clock,32-3-10,0143_eid_s03_32-3-10_clock_10_n03196217_2805.png
subject-03,1,144,1.05928802490234,cat,cat,1-3-10,0144_eid_s03_1-3-10_cat_10_n02125311_13348.png
subject-03,1,145,0.642854928970337,boat,boat,1-3-10,0145_eid_s03_1-3-10_boat_10_n04612504_11387.png
subject-03,1,146,0.986483097076416,dog,chair,64-3-10,0146_eid_s03_64-3-10_chair_10_n02791124_2057.png
subject-03,1,147,0.720211982727051,airplane,airplane,8-3-10,0147_eid_s03_8-3-10_airplane_10_n02690373_2313.png
subject-03,1,148,0.750101089477539,bicycle,bicycle,1-3-10,0148_eid_s03_1-3-10_bicycle_10_n02835271_4409.png
subject-03,1,149,0.875833988189697,bicycle,bird,2-3-10,0149_eid_s03_2-3-10_bird_10_n01843383_277.png
subject-03,1,150,1.23390102386475,bird,knife,8-3-10,0150_eid_s03_8-3-10_knife_10_n03041632_30958.png
subject-03,1,151,0.855772972106934,bird,bird,1-3-10,0151_eid_s03_1-3-10_bird_10_n01824575_6186.png
subject-03,1,152,0.895345211029053,truck,truck,4-3-10,0152_eid_s03_4-3-10_truck_10_n04467665_1840.png
subject-03,1,153,0.791072130203247,bird,bird,4-3-10,0153_eid_s03_4-3-10_bird_10_n02056570_8865.png
subject-03,1,154,1.1150848865509,keyboard,keyboard,2-3-10,0154_eid_s03_2-3-10_keyboard_10_n03085013_29042.png
subject-03,1,155,1.05277395248413,dog,car,32-3-10,0155_eid_s03_32-3-10_car_10_n04285008_8363.png
subject-03,1,156,0.908551931381226,bear,clock,32-3-10,0156_eid_s03_32-3-10_clock_10_n02708093_3625.png
subject-03,1,157,1.06240391731262,bicycle,bicycle,2-3-10,0157_eid_s03_2-3-10_bicycle_10_n02835271_8060.png
subject-03,1,158,0.930694103240967,bicycle,bicycle,2-3-10,0158_eid_s03_2-3-10_bicycle_10_n02835271_3956.png
subject-03,1,159,1.23810696601868,bird,bicycle,32-3-10,0159_eid_s03_32-3-10_bicycle_10_n03792782_11804.png
subject-03,1,160,0.83386492729187,cat,cat,2-3-10,0160_eid_s03_2-3-10_cat_10_n02124075_9706.png
subject-03,1,161,1.10096311569214,dog,bird,16-3-10,0161_eid_s03_16-3-10_bird_10_n01582220_32464.png
subject-03,1,162,1.02675700187683,dog,chair,16-3-10,0162_eid_s03_16-3-10_chair_10_n04099969_28601.png
subject-03,1,163,0.886646032333374,bear,knife,64-3-10,0163_eid_s03_64-3-10_knife_10_n03041632_13194.png
subject-03,1,164,0.886518001556396,dog,boat,128-3-10,0164_eid_s03_128-3-10_boat_10_n02951358_4810.png
subject-03,1,165,0.774282932281494,keyboard,clock,128-3-10,0165_eid_s03_128-3-10_clock_10_n04548280_1535.png
subject-03,1,166,1.09397792816162,bear,bicycle,64-3-10,0166_eid_s03_64-3-10_bicycle_10_n02835271_1344.png
subject-03,1,167,1.1239230632782,car,truck,32-3-10,0167_eid_s03_32-3-10_truck_10_n03417042_6467.png
subject-03,1,168,0.709605932235718,elephant,elephant,4-3-10,0168_eid_s03_4-3-10_elephant_10_n02504013_8270.png
subject-03,1,169,0.723598957061768,elephant,elephant,8-3-10,0169_eid_s03_8-3-10_elephant_10_n02504013_848.png
subject-03,1,170,0.785723924636841,keyboard,bottle,1-3-10,0170_eid_s03_1-3-10_bottle_10_n02823428_11018.png
subject-03,1,171,1.0810649394989,dog,chair,64-3-10,0171_eid_s03_64-3-10_chair_10_n04099969_48169.png
subject-03,1,172,0.866968870162964,cat,bicycle,8-3-10,0172_eid_s03_8-3-10_bicycle_10_n02835271_3466.png
subject-03,1,173,0.982601881027222,keyboard,car,16-3-10,0173_eid_s03_16-3-10_car_10_n03100240_14045.png
subject-03,1,174,1.00662708282471,airplane,airplane,4-3-10,0174_eid_s03_4-3-10_airplane_10_n02690373_744.png
subject-03,1,175,0.96036696434021,bottle,bottle,1-3-10,0175_eid_s03_1-3-10_bottle_10_n04560804_32760.png
subject-03,1,176,0.742104053497314,boat,boat,2-3-10,0176_eid_s03_2-3-10_boat_10_n02951358_3556.png
subject-03,1,177,1.11800408363342,bear,cat,32-3-10,0177_eid_s03_32-3-10_cat_10_n02123045_7240.png
subject-03,1,178,1.14013600349426,bird,bicycle,16-3-10,0178_eid_s03_16-3-10_bicycle_10_n02835271_1199.png
subject-03,1,179,NaN,na,knife,16-3-10,0179_eid_s03_16-3-10_knife_10_n03041632_52371.png
subject-03,1,180,0.859600067138672,elephant,elephant,8-3-10,0180_eid_s03_8-3-10_elephant_10_n02504013_718.png
subject-03,1,181,0.907407999038696,cat,bear,64-3-10,0181_eid_s03_64-3-10_bear_10_n02133161_5267.png
subject-03,1,182,0.757037878036499,car,car,2-3-10,0182_eid_s03_2-3-10_car_10_n04285008_8255.png
subject-03,1,183,1.03679609298706,dog,bottle,64-3-10,0183_eid_s03_64-3-10_bottle_10_n02823428_12997.png
subject-03,1,184,0.754857063293457,airplane,airplane,8-3-10,0184_eid_s03_8-3-10_airplane_10_n02690373_5010.png
subject-03,1,185,0.700608968734741,bird,bird,1-3-10,0185_eid_s03_1-3-10_bird_10_n01817953_8025.png
subject-03,1,186,1.02833700180054,dog,elephant,32-3-10,0186_eid_s03_32-3-10_elephant_10_n02504013_1512.png
subject-03,1,187,0.924129009246826,cat,cat,8-3-10,0187_eid_s03_8-3-10_cat_10_n02123045_12657.png
subject-03,1,188,0.95586085319519,bicycle,dog,1-3-10,0188_eid_s03_1-3-10_dog_10_n02093647_5955.png
subject-03,1,189,1.1016960144043,bear,keyboard,16-3-10,0189_eid_s03_16-3-10_keyboard_10_n03085013_6834.png
subject-03,1,190,0.865470170974731,bear,bicycle,32-3-10,0190_eid_s03_32-3-10_bicycle_10_n02835271_12288.png
subject-03,1,191,0.951256990432739,boat,boat,8-3-10,0191_eid_s03_8-3-10_boat_10_n03662601_2131.png
subject-03,1,192,1.13509893417358,oven,elephant,64-3-10,0192_eid_s03_64-3-10_elephant_10_n02504013_7746.png
subject-03,1,193,1.12704205513,dog,car,32-3-10,0193_eid_s03_32-3-10_car_10_n03100240_5946.png
subject-03,1,194,1.19674396514893,bottle,truck,2-3-10,0194_eid_s03_2-3-10_truck_10_n03417042_94.png
subject-03,1,195,1.20464110374451,cat,cat,16-3-10,0195_eid_s03_16-3-10_cat_10_n02123045_5932.png
subject-03,1,196,1.36854314804077,dog,bicycle,64-3-10,0196_eid_s03_64-3-10_bicycle_10_n03792782_16443.png
subject-03,1,197,0.906189918518066,knife,bottle,2-3-10,0197_eid_s03_2-3-10_bottle_10_n03983396_754.png
subject-03,1,198,1.25588703155518,keyboard,elephant,128-3-10,0198_eid_s03_128-3-10_elephant_10_n02504458_5844.png
subject-03,1,199,1.1779100894928,dog,cat,16-3-10,0199_eid_s03_16-3-10_cat_10_n02123159_798.png
subject-03,1,200,1.12162184715271,clock,chair,4-3-10,0200_eid_s03_4-3-10_chair_10_n04429376_11383.png
subject-03,1,201,0.825432062149048,boat,boat,4-3-10,0201_eid_s03_4-3-10_boat_10_n03344393_4289.png
subject-03,1,202,1.05119800567627,car,bird,2-3-10,0202_eid_s03_2-3-10_bird_10_n02011460_9401.png
subject-03,1,203,1.12302112579346,cat,cat,8-3-10,0203_eid_s03_8-3-10_cat_10_n02123159_7239.png
subject-03,1,204,1.2787868976593,dog,keyboard,64-3-10,0204_eid_s03_64-3-10_keyboard_10_n03085013_20852.png
subject-03,1,205,1.06063389778137,dog,truck,64-3-10,0205_eid_s03_64-3-10_truck_10_n04467665_21266.png
subject-03,1,206,0.714632987976074,bird,bird,1-3-10,0206_eid_s03_1-3-10_bird_10_n01820546_4457.png
subject-03,1,207,0.870146989822388,keyboard,chair,128-3-10,0207_eid_s03_128-3-10_chair_10_n04099969_5901.png
subject-03,1,208,1.06655979156494,chair,chair,4-3-10,0208_eid_s03_4-3-10_chair_10_n04099969_31891.png
subject-03,1,209,1.18406391143799,bottle,knife,4-3-10,0209_eid_s03_4-3-10_knife_10_n03041632_19971.png
subject-03,1,210,0.750089168548584,elephant,elephant,4-3-10,0210_eid_s03_4-3-10_elephant_10_n02504013_1740.png
subject-03,1,211,1.18752193450928,keyboard,oven,128-3-10,0211_eid_s03_128-3-10_oven_10_n04111531_4868.png
subject-03,1,212,1.03133296966553,dog,dog,64-3-10,0212_eid_s03_64-3-10_dog_10_n02101388_438.png
subject-03,1,213,1.20128798484802,bear,bear,1-3-10,0213_eid_s03_1-3-10_bear_10_n02133161_2851.png
subject-03,1,214,0.881370067596436,oven,elephant,128-3-10,0214_eid_s03_128-3-10_elephant_10_n02504013_13223.png
subject-03,1,215,0.80279803276062,keyboard,elephant,128-3-10,0215_eid_s03_128-3-10_elephant_10_n02504458_4263.png
subject-03,1,216,1.1065468788147,keyboard,oven,128-3-10,0216_eid_s03_128-3-10_oven_10_n04111531_9427.png
subject-03,1,217,0.830683946609497,bottle,bottle,4-3-10,0217_eid_s03_4-3-10_bottle_10_n03983396_2305.png
subject-03,1,218,0.962433815002441,cat,bottle,16-3-10,0218_eid_s03_16-3-10_bottle_10_n04560804_5441.png
subject-03,1,219,0.928019046783447,bicycle,boat,8-3-10,0219_eid_s03_8-3-10_boat_10_n02951358_9837.png
subject-03,1,220,1.27405691146851,dog,dog,64-3-10,0220_eid_s03_64-3-10_dog_10_n02087046_15420.png
subject-03,1,221,1.20162415504456,car,chair,64-3-10,0221_eid_s03_64-3-10_chair_10_n04429376_10476.png
subject-03,1,222,0.933599948883057,chair,chair,16-3-10,0222_eid_s03_16-3-10_chair_10_n03376595_6864.png
subject-03,1,223,1.19347286224365,keyboard,keyboard,4-3-10,0223_eid_s03_4-3-10_keyboard_10_n03085013_5819.png
subject-03,1,224,0.846934080123901,bird,bird,1-3-10,0224_eid_s03_1-3-10_bird_10_n02011460_6726.png
subject-03,1,225,0.822826862335205,oven,oven,1-3-10,0225_eid_s03_1-3-10_oven_10_n04111531_10093.png
subject-03,1,226,0.732676029205322,keyboard,keyboard,2-3-10,0226_eid_s03_2-3-10_keyboard_10_n04505470_4294.png
subject-03,1,227,0.918424129486084,bird,truck,64-3-10,0227_eid_s03_64-3-10_truck_10_n04467665_79576.png
subject-03,1,228,0.744399070739746,elephant,elephant,1-3-10,0228_eid_s03_1-3-10_elephant_10_n02504458_6888.png
subject-03,1,229,0.92438793182373,dog,boat,16-3-10,0229_eid_s03_16-3-10_boat_10_n03344393_7308.png
subject-03,1,230,0.728255987167358,cat,bottle,32-3-10,0230_eid_s03_32-3-10_bottle_10_n03937543_5324.png
subject-03,1,231,0.773787975311279,cat,cat,4-3-10,0231_eid_s03_4-3-10_cat_10_n02124075_13719.png
subject-03,1,232,1.06185913085938,keyboard,keyboard,64-3-10,0232_eid_s03_64-3-10_keyboard_10_n03085013_3098.png
subject-03,1,233,0.745712995529175,boat,boat,1-3-10,0233_eid_s03_1-3-10_boat_10_n04273569_24526.png
subject-03,1,234,0.831568002700806,keyboard,dog,128-3-10,0234_eid_s03_128-3-10_dog_10_n02088094_4195.png
subject-03,1,235,1.0575270652771,cat,bottle,32-3-10,0235_eid_s03_32-3-10_bottle_10_n03937543_3344.png
subject-03,1,236,1.07903003692627,keyboard,bicycle,128-3-10,0236_eid_s03_128-3-10_bicycle_10_n02835271_31939.png
subject-03,1,237,0.632768154144287,boat,boat,1-3-10,0237_eid_s03_1-3-10_boat_10_n04273569_4136.png
subject-03,1,238,0.874708890914917,keyboard,oven,8-3-10,0238_eid_s03_8-3-10_oven_10_n04111531_27.png
subject-03,1,239,0.880508899688721,car,car,1-3-10,0239_eid_s03_1-3-10_car_10_n02814533_49499.png
subject-03,1,240,0.808310985565186,boat,boat,2-3-10,0240_eid_s03_2-3-10_boat_10_n02951358_17870.png
subject-03,1,241,0.53258204460144,bottle,bottle,4-3-10,0241_eid_s03_4-3-10_bottle_10_n03983396_9604.png
subject-03,1,242,0.580458879470825,clock,clock,2-3-10,0242_eid_s03_2-3-10_clock_10_n03196217_11657.png
subject-03,1,243,0.798157930374146,dog,dog,4-3-10,0243_eid_s03_4-3-10_dog_10_n02088364_10195.png
subject-03,1,244,1.50010418891907,keyboard,car,64-3-10,0244_eid_s03_64-3-10_car_10_n03100240_6035.png
subject-03,1,245,0.981703042984009,bird,keyboard,32-3-10,0245_eid_s03_32-3-10_keyboard_10_n03085013_24416.png
subject-03,1,246,0.833477973937988,cat,bear,16-3-10,0246_eid_s03_16-3-10_bear_10_n02134084_9307.png
subject-03,1,247,1.05528092384338,bear,bicycle,16-3-10,0247_eid_s03_16-3-10_bicycle_10_n02835271_1426.png
subject-03,1,248,1.00510787963867,keyboard,airplane,64-3-10,0248_eid_s03_64-3-10_airplane_10_n02690373_4364.png
subject-03,1,249,0.917362928390503,cat,bear,4-3-10,0249_eid_s03_4-3-10_bear_10_n02134084_6869.png
subject-03,1,250,0.940829038619995,airplane,airplane,2-3-10,0250_eid_s03_2-3-10_airplane_10_n02690373_4024.png
subject-03,1,251,1.01074314117432,boat,boat,128-3-10,0251_eid_s03_128-3-10_boat_10_n04612504_804.png
subject-03,1,252,1.20458221435547,knife,knife,1-3-10,0252_eid_s03_1-3-10_knife_10_n03041632_76163.png
subject-03,1,253,1.50011086463928,bottle,clock,1-3-10,0253_eid_s03_1-3-10_clock_10_n03196217_3022.png
subject-03,1,254,0.802121877670288,keyboard,keyboard,1-3-10,0254_eid_s03_1-3-10_keyboard_10_n04505470_2608.png
subject-03,1,255,0.77786111831665,bear,oven,64-3-10,0255_eid_s03_64-3-10_oven_10_n04111531_4817.png
subject-03,1,256,1.160080909729,keyboard,cat,128-3-10,0256_eid_s03_128-3-10_cat_10_n02123394_6505.png
subject-03,1,257,1.30765891075134,oven,clock,16-3-10,0257_eid_s03_16-3-10_clock_10_n03196217_10352.png
subject-03,1,258,1.03930306434631,truck,truck,4-3-10,0258_eid_s03_4-3-10_truck_10_n03417042_27862.png
subject-03,1,259,0.961262941360474,cat,bear,8-3-10,0259_eid_s03_8-3-10_bear_10_n02134418_4406.png
subject-03,1,260,1.0409529209137,bird,elephant,64-3-10,0260_eid_s03_64-3-10_elephant_10_n02504458_6163.png
subject-03,1,261,1.11672496795654,car,car,2-3-10,0261_eid_s03_2-3-10_car_10_n04285008_10563.png
subject-03,1,262,1.01449203491211,cat,airplane,128-3-10,0262_eid_s03_128-3-10_airplane_10_n02690373_4943.png
subject-03,1,263,0.936305999755859,bottle,bottle,1-3-10,0263_eid_s03_1-3-10_bottle_10_n04560804_23356.png
subject-03,1,264,1.00847601890564,keyboard,cat,128-3-10,0264_eid_s03_128-3-10_cat_10_n02123597_7269.png
subject-03,1,265,0.757892847061157,boat,boat,2-3-10,0265_eid_s03_2-3-10_boat_10_n04612504_27320.png
subject-03,1,266,1.06219410896301,dog,bird,16-3-10,0266_eid_s03_16-3-10_bird_10_n01537544_23499.png
subject-03,1,267,1.20582699775696,dog,bird,16-3-10,0267_eid_s03_16-3-10_bird_10_n01833805_3242.png
subject-03,1,268,1.17326211929321,dog,keyboard,64-3-10,0268_eid_s03_64-3-10_keyboard_10_n03085013_16057.png
subject-03,1,269,1.13559722900391,bicycle,bear,4-3-10,0269_eid_s03_4-3-10_bear_10_n02134418_2013.png
subject-03,1,270,0.913454055786133,bird,bird,1-3-10,0270_eid_s03_1-3-10_bird_10_n01817953_12850.png
subject-03,1,271,0.620802879333496,airplane,airplane,4-3-10,0271_eid_s03_4-3-10_airplane_10_n02690373_9605.png
subject-03,1,272,1.12307095527649,cat,clock,32-3-10,0272_eid_s03_32-3-10_clock_10_n02708093_4286.png
subject-03,1,273,1.05836796760559,oven,chair,64-3-10,0273_eid_s03_64-3-10_chair_10_n02791124_15756.png
subject-03,1,274,1.17441201210022,chair,bird,1-3-10,0274_eid_s03_1-3-10_bird_10_n02002556_18595.png
subject-03,1,275,0.908129930496216,bicycle,bicycle,8-3-10,0275_eid_s03_8-3-10_bicycle_10_n03792782_6841.png
subject-03,1,276,0.805917978286743,bear,oven,32-3-10,0276_eid_s03_32-3-10_oven_10_n04111531_6975.png
subject-03,1,277,0.963674068450928,elephant,elephant,8-3-10,0277_eid_s03_8-3-10_elephant_10_n02504458_13245.png
subject-03,1,278,1.02147603034973,oven,knife,32-3-10,0278_eid_s03_32-3-10_knife_10_n03041632_43634.png
subject-03,1,279,1.02950096130371,dog,car,64-3-10,0279_eid_s03_64-3-10_car_10_n03100240_362.png
subject-03,1,280,1.0373649597168,dog,bicycle,8-3-10,0280_eid_s03_8-3-10_bicycle_10_n03792782_11609.png
subject-03,1,281,1.21512699127197,dog,cat,8-3-10,0281_eid_s03_8-3-10_cat_10_n02123394_3329.png
subject-03,1,282,1.04689192771912,dog,bear,8-3-10,0282_eid_s03_8-3-10_bear_10_n02132136_1694.png
subject-03,1,283,0.684524059295654,keyboard,keyboard,2-3-10,0283_eid_s03_2-3-10_keyboard_10_n04505470_4791.png
subject-03,1,284,0.942316055297852,cat,bird,64-3-10,0284_eid_s03_64-3-10_bird_10_n01796340_1230.png
subject-03,1,285,0.574153900146484,clock,clock,2-3-10,0285_eid_s03_2-3-10_clock_10_n04548280_3352.png
subject-03,1,286,0.958069086074829,car,truck,32-3-10,0286_eid_s03_32-3-10_truck_10_n03417042_18374.png
subject-03,1,287,0.713803052902222,bottle,bottle,2-3-10,0287_eid_s03_2-3-10_bottle_10_n02823428_13931.png
subject-03,1,288,0.799501895904541,cat,knife,128-3-10,0288_eid_s03_128-3-10_knife_10_n03041632_38535.png
subject-03,1,289,1.08788394927979,knife,bottle,16-3-10,0289_eid_s03_16-3-10_bottle_10_n04557648_9415.png
subject-03,1,290,0.757384061813354,bear,bear,1-3-10,0290_eid_s03_1-3-10_bear_10_n02134418_9829.png
subject-03,1,291,1.15524411201477,dog,oven,64-3-10,0291_eid_s03_64-3-10_oven_10_n04111531_17507.png
subject-03,1,292,0.934912919998169,bird,bird,8-3-10,0292_eid_s03_8-3-10_bird_10_n01622779_6459.png
subject-03,1,293,0.908776998519897,keyboard,oven,8-3-10,0293_eid_s03_8-3-10_oven_10_n04111531_6923.png
subject-03,1,294,1.12059688568115,dog,bear,32-3-10,0294_eid_s03_32-3-10_bear_10_n02132136_4202.png
subject-03,1,295,0.986787080764771,oven,knife,128-3-10,0295_eid_s03_128-3-10_knife_10_n03041632_21723.png
subject-03,1,296,0.792265892028809,knife,knife,1-3-10,0296_eid_s03_1-3-10_knife_10_n03041632_24376.png
subject-03,1,297,1.30594110488892,dog,knife,16-3-10,0297_eid_s03_16-3-10_knife_10_n03041632_23548.png
subject-03,1,298,0.859822988510132,dog,dog,1-3-10,0298_eid_s03_1-3-10_dog_10_n02102040_3045.png
subject-03,1,299,1.29555988311768,bear,elephant,32-3-10,0299_eid_s03_32-3-10_elephant_10_n02504458_12191.png
subject-03,1,300,0.983525991439819,chair,chair,2-3-10,0300_eid_s03_2-3-10_chair_10_n04429376_6029.png
subject-03,1,301,0.771200180053711,knife,knife,4-3-10,0301_eid_s03_4-3-10_knife_10_n03041632_101810.png
subject-03,1,302,0.663543939590454,chair,chair,1-3-10,0302_eid_s03_1-3-10_chair_10_n03376595_8252.png
subject-03,1,303,1.01277303695679,keyboard,oven,4-3-10,0303_eid_s03_4-3-10_oven_10_n04111531_6217.png
subject-03,1,304,0.943068027496338,airplane,airplane,2-3-10,0304_eid_s03_2-3-10_airplane_10_n02690373_15097.png
subject-03,1,305,1.18054890632629,bear,boat,32-3-10,0305_eid_s03_32-3-10_boat_10_n02951358_31101.png
subject-03,1,306,1.05442690849304,dog,bear,16-3-10,0306_eid_s03_16-3-10_bear_10_n02132136_33437.png
subject-03,1,307,1.04614400863647,bear,truck,64-3-10,0307_eid_s03_64-3-10_truck_10_n03417042_25947.png
subject-03,1,308,1.42566299438477,knife,boat,4-3-10,0308_eid_s03_4-3-10_boat_10_n04612504_7566.png
subject-03,1,309,1.5,bear,bicycle,32-3-10,0309_eid_s03_32-3-10_bicycle_10_n03792782_63201.png
subject-03,1,310,1.07000994682312,bird,elephant,32-3-10,0310_eid_s03_32-3-10_elephant_10_n02504013_947.png
subject-03,1,311,1.15529608726501,bottle,elephant,16-3-10,0311_eid_s03_16-3-10_elephant_10_n02504013_10990.png
subject-03,1,312,0.739223957061768,knife,knife,2-3-10,0312_eid_s03_2-3-10_knife_10_n03041632_3781.png
subject-03,1,313,0.899044990539551,dog,boat,64-3-10,0313_eid_s03_64-3-10_boat_10_n03344393_8642.png
subject-03,1,314,1.10885500907898,bear,keyboard,16-3-10,0314_eid_s03_16-3-10_keyboard_10_n04505470_1117.png
subject-03,1,315,0.782650947570801,dog,dog,4-3-10,0315_eid_s03_4-3-10_dog_10_n02107574_5896.png
subject-03,1,316,1.13444805145264,car,car,16-3-10,0316_eid_s03_16-3-10_car_10_n04285008_7909.png
subject-03,1,317,0.876188039779663,bear,bear,1-3-10,0317_eid_s03_1-3-10_bear_10_n02132136_11198.png
subject-03,1,318,0.718100070953369,car,car,4-3-10,0318_eid_s03_4-3-10_car_10_n04285008_13595.png
subject-03,1,319,0.731934070587158,keyboard,keyboard,4-3-10,0319_eid_s03_4-3-10_keyboard_10_n04505470_4492.png
subject-03,1,320,1.21777200698853,bottle,oven,8-3-10,0320_eid_s03_8-3-10_oven_10_n04111531_7667.png
subject-03,1,321,1.3043041229248,dog,knife,16-3-10,0321_eid_s03_16-3-10_knife_10_n03041632_8528.png
subject-03,1,322,0.87995982170105,bottle,bicycle,8-3-10,0322_eid_s03_8-3-10_bicycle_10_n03792782_5880.png
subject-03,1,323,0.907968997955322,car,car,2-3-10,0323_eid_s03_2-3-10_car_10_n02814533_88088.png
subject-03,1,324,0.915705919265747,bear,bear,8-3-10,0324_eid_s03_8-3-10_bear_10_n02134418_2187.png
subject-03,1,325,1.14942598342896,bear,bear,32-3-10,0325_eid_s03_32-3-10_bear_10_n02132136_1795.png
subject-03,1,326,0.859444856643677,bicycle,bicycle,4-3-10,0326_eid_s03_4-3-10_bicycle_10_n03792782_6152.png
subject-03,1,327,1.3352689743042,chair,chair,8-3-10,0327_eid_s03_8-3-10_chair_10_n02791124_16926.png
subject-03,1,328,1.0369119644165,cat,airplane,128-3-10,0328_eid_s03_128-3-10_airplane_10_n02690373_9531.png
subject-03,1,329,0.746662139892578,bear,clock,32-3-10,0329_eid_s03_32-3-10_clock_10_n02708093_2545.png
subject-03,1,330,0.696568012237549,bottle,bottle,1-3-10,0330_eid_s03_1-3-10_bottle_10_n04557648_4133.png
subject-03,1,331,1.1483359336853,dog,clock,32-3-10,0331_eid_s03_32-3-10_clock_10_n02708093_8104.png
subject-03,1,332,1.00225901603699,bird,bicycle,64-3-10,0332_eid_s03_64-3-10_bicycle_10_n03792782_20007.png
subject-03,1,333,0.848205089569092,boat,knife,64-3-10,0333_eid_s03_64-3-10_knife_10_n03041632_28129.png
subject-03,1,334,0.824038028717041,keyboard,clock,128-3-10,0334_eid_s03_128-3-10_clock_10_n03196217_7795.png
subject-03,1,335,0.699741125106812,bicycle,bicycle,1-3-10,0335_eid_s03_1-3-10_bicycle_10_n03792782_4864.png
subject-03,1,336,0.951529026031494,chair,chair,2-3-10,0336_eid_s03_2-3-10_chair_10_n03376595_13949.png
subject-03,1,337,1.13723087310791,airplane,airplane,16-3-10,0337_eid_s03_16-3-10_airplane_10_n02690373_3753.png
subject-03,1,338,1.02517318725586,car,bicycle,128-3-10,0338_eid_s03_128-3-10_bicycle_10_n03792782_70724.png
subject-03,1,339,0.960746049880981,cat,keyboard,128-3-10,0339_eid_s03_128-3-10_keyboard_10_n04505470_255.png
subject-03,1,340,1.09868788719177,car,car,1-3-10,0340_eid_s03_1-3-10_car_10_n03100240_15284.png
subject-03,1,341,0.914491891860962,elephant,elephant,4-3-10,0341_eid_s03_4-3-10_elephant_10_n02504013_7271.png
subject-03,1,342,0.850132942199707,bear,bear,8-3-10,0342_eid_s03_8-3-10_bear_10_n02134084_15913.png
subject-03,1,343,1.45013403892517,knife,chair,1-3-10,0343_eid_s03_1-3-10_chair_10_n02791124_1788.png
subject-03,1,344,0.853882074356079,clock,clock,2-3-10,0344_eid_s03_2-3-10_clock_10_n04548280_353.png
subject-03,1,345,1.04962491989136,bird,bird,16-3-10,0345_eid_s03_16-3-10_bird_10_n01532829_4776.png
subject-03,1,346,0.82750391960144,chair,chair,1-3-10,0346_eid_s03_1-3-10_chair_10_n04429376_18585.png
subject-03,1,347,0.773483991622925,airplane,airplane,8-3-10,0347_eid_s03_8-3-10_airplane_10_n02690373_18864.png
subject-03,1,348,1.50002384185791,bird,bear,2-3-10,0348_eid_s03_2-3-10_bear_10_n02134084_18596.png
subject-03,1,349,NaN,na,oven,4-3-10,0349_eid_s03_4-3-10_oven_10_n04111531_4012.png
subject-03,1,350,0.778892993927002,truck,truck,1-3-10,0350_eid_s03_1-3-10_truck_10_n03417042_2074.png
subject-03,1,351,1.0450599193573,cat,chair,32-3-10,0351_eid_s03_32-3-10_chair_10_n04099969_3095.png
subject-03,1,352,1.07435202598572,bear,oven,16-3-10,0352_eid_s03_16-3-10_oven_10_n04111531_1298.png
subject-03,1,353,1.09656810760498,bear,bear,4-3-10,0353_eid_s03_4-3-10_bear_10_n02132136_5517.png
subject-03,1,354,1.08035707473755,knife,knife,8-3-10,0354_eid_s03_8-3-10_knife_10_n03041632_10802.png
subject-03,1,355,0.905876159667969,keyboard,dog,128-3-10,0355_eid_s03_128-3-10_dog_10_n02086079_6578.png
subject-03,1,356,0.897738933563232,truck,truck,8-3-10,0356_eid_s03_8-3-10_truck_10_n04467665_3098.png
subject-03,1,357,1.33368611335754,dog,keyboard,16-3-10,0357_eid_s03_16-3-10_keyboard_10_n03085013_21649.png
subject-03,1,358,0.933346033096313,bear,bear,2-3-10,0358_eid_s03_2-3-10_bear_10_n02133161_10167.png
subject-03,1,359,0.979484081268311,dog,car,32-3-10,0359_eid_s03_32-3-10_car_10_n04285008_4331.png
subject-03,1,360,1.23688793182373,bicycle,dog,4-3-10,0360_eid_s03_4-3-10_dog_10_n02098105_2333.png
subject-03,1,361,0.992630004882812,dog,truck,128-3-10,0361_eid_s03_128-3-10_truck_10_n03417042_5493.png
subject-03,1,362,0.821041107177734,bear,keyboard,32-3-10,0362_eid_s03_32-3-10_keyboard_10_n04505470_8244.png
subject-03,1,363,1.28641986846924,bird,bear,128-3-10,0363_eid_s03_128-3-10_bear_10_n02132136_15262.png
subject-03,1,364,0.776346206665039,boat,airplane,32-3-10,0364_eid_s03_32-3-10_airplane_10_n02690373_10817.png
subject-03,1,365,1.33795595169067,cat,cat,2-3-10,0365_eid_s03_2-3-10_cat_10_n02124075_13278.png
subject-03,1,366,0.765682220458984,bear,bear,4-3-10,0366_eid_s03_4-3-10_bear_10_n02133161_11422.png
subject-03,1,367,0.765918970108032,keyboard,bottle,8-3-10,0367_eid_s03_8-3-10_bottle_10_n04591713_3534.png
subject-03,1,368,1.03152799606323,dog,bicycle,32-3-10,0368_eid_s03_32-3-10_bicycle_10_n02835271_15601.png
subject-03,1,369,0.481151819229126,clock,clock,2-3-10,0369_eid_s03_2-3-10_clock_10_n04548280_319.png
subject-03,1,370,0.629086971282959,cat,cat,2-3-10,0370_eid_s03_2-3-10_cat_10_n02123394_3339.png
subject-03,1,371,0.988786935806274,keyboard,clock,128-3-10,0371_eid_s03_128-3-10_clock_10_n02708093_3361.png
subject-03,1,372,1.05062413215637,keyboard,oven,128-3-10,0372_eid_s03_128-3-10_oven_10_n04111531_21120.png
subject-03,1,373,0.806498050689697,airplane,airplane,4-3-10,0373_eid_s03_4-3-10_airplane_10_n02690373_7075.png
subject-03,1,374,0.82427191734314,cat,cat,1-3-10,0374_eid_s03_1-3-10_cat_10_n02124075_5369.png
subject-03,1,375,0.816468954086304,bottle,bottle,2-3-10,0375_eid_s03_2-3-10_bottle_10_n03937543_6003.png
subject-03,1,376,0.987818956375122,car,truck,4-3-10,0376_eid_s03_4-3-10_truck_10_n04467665_58158.png
subject-03,1,377,1.17389297485352,keyboard,boat,128-3-10,0377_eid_s03_128-3-10_boat_10_n04612504_2225.png
subject-03,1,378,1.40806698799133,cat,cat,1-3-10,0378_eid_s03_1-3-10_cat_10_n02123159_4519.png
subject-03,1,379,1.02128791809082,keyboard,car,128-3-10,0379_eid_s03_128-3-10_car_10_n02814533_5888.png
subject-03,1,380,1.4813928604126,bicycle,truck,2-3-10,0380_eid_s03_2-3-10_truck_10_n03417042_2978.png
subject-03,1,381,1.0989670753479,keyboard,clock,128-3-10,0381_eid_s03_128-3-10_clock_10_n02708093_3638.png
subject-03,1,382,1.28482007980347,keyboard,keyboard,16-3-10,0382_eid_s03_16-3-10_keyboard_10_n04505470_2737.png
subject-03,1,383,NaN,na,bear,16-3-10,0383_eid_s03_16-3-10_bear_10_n02134418_3969.png
subject-03,1,384,1.13240098953247,car,bird,128-3-10,0384_eid_s03_128-3-10_bird_10_n02017213_15742.png
subject-03,1,385,NaN,na,cat,8-3-10,0385_eid_s03_8-3-10_cat_10_n02123597_10945.png
subject-03,1,386,1.12032604217529,dog,car,64-3-10,0386_eid_s03_64-3-10_car_10_n03100240_17073.png
subject-03,1,387,0.92391300201416,cat,oven,64-3-10,0387_eid_s03_64-3-10_oven_10_n04111531_9910.png
subject-03,1,388,0.691576957702637,bicycle,bicycle,2-3-10,0388_eid_s03_2-3-10_bicycle_10_n03792782_4559.png
subject-03,1,389,NaN,na,elephant,32-3-10,0389_eid_s03_32-3-10_elephant_10_n02504013_4295.png
subject-03,1,390,0.719342947006226,cat,cat,128-3-10,0390_eid_s03_128-3-10_cat_10_n02123045_9492.png
subject-03,1,391,0.725142002105713,keyboard,keyboard,1-3-10,0391_eid_s03_1-3-10_keyboard_10_n04505470_1245.png
subject-03,1,392,0.824971914291382,dog,dog,4-3-10,0392_eid_s03_4-3-10_dog_10_n02105251_8210.png
subject-03,1,393,0.658737897872925,bicycle,bicycle,8-3-10,0393_eid_s03_8-3-10_bicycle_10_n03792782_9833.png
subject-03,1,394,0.89288592338562,bird,clock,128-3-10,0394_eid_s03_128-3-10_clock_10_n04548280_6115.png
subject-03,1,395,0.812353849411011,bear,bear,4-3-10,0395_eid_s03_4-3-10_bear_10_n02134084_10112.png
subject-03,1,396,0.952160120010376,bird,cat,128-3-10,0396_eid_s03_128-3-10_cat_10_n02125311_2622.png
subject-03,1,397,1.09400415420532,dog,car,128-3-10,0397_eid_s03_128-3-10_car_10_n02814533_83588.png
subject-03,1,398,0.887734174728394,bottle,oven,1-3-10,0398_eid_s03_1-3-10_oven_10_n04111531_15912.png
subject-03,1,399,1.26354598999023,dog,elephant,8-3-10,0399_eid_s03_8-3-10_elephant_10_n02504013_812.png
subject-03,1,400,0.791421890258789,boat,boat,4-3-10,0400_eid_s03_4-3-10_boat_10_n03344393_7362.png
subject-03,1,401,0.949465036392212,car,car,8-3-10,0401_eid_s03_8-3-10_car_10_n04285008_6454.png
subject-03,1,402,0.978899002075195,dog,boat,128-3-10,0402_eid_s03_128-3-10_boat_10_n02951358_588.png
subject-03,1,403,1.02474498748779,cat,elephant,128-3-10,0403_eid_s03_128-3-10_elephant_10_n02504458_7085.png
subject-03,1,404,0.694697856903076,keyboard,keyboard,8-3-10,0404_eid_s03_8-3-10_keyboard_10_n03085013_20884.png
subject-03,1,405,0.936387062072754,cat,knife,128-3-10,0405_eid_s03_128-3-10_knife_10_n03041632_8540.png
subject-03,1,406,0.726327180862427,bicycle,bicycle,2-3-10,0406_eid_s03_2-3-10_bicycle_10_n02835271_14879.png
subject-03,1,407,1.11603379249573,bear,car,128-3-10,0407_eid_s03_128-3-10_car_10_n03100240_5489.png
subject-03,1,408,0.975955009460449,bottle,chair,4-3-10,0408_eid_s03_4-3-10_chair_10_n02791124_2023.png
subject-03,1,409,1.14801001548767,bicycle,bottle,16-3-10,0409_eid_s03_16-3-10_bottle_10_n04557648_4470.png
subject-03,1,410,0.645541906356812,cat,cat,4-3-10,0410_eid_s03_4-3-10_cat_10_n02123394_283.png
subject-03,1,411,1.01127791404724,dog,boat,64-3-10,0411_eid_s03_64-3-10_boat_10_n03344393_6799.png
subject-03,1,412,0.75913405418396,cat,cat,8-3-10,0412_eid_s03_8-3-10_cat_10_n02123159_988.png
subject-03,1,413,1.33685994148254,car,boat,8-3-10,0413_eid_s03_8-3-10_boat_10_n03344393_5177.png
subject-03,1,414,1.10878896713257,cat,bicycle,128-3-10,0414_eid_s03_128-3-10_bicycle_10_n03792782_3815.png
subject-03,1,415,0.920378923416138,bicycle,bicycle,2-3-10,0415_eid_s03_2-3-10_bicycle_10_n03792782_16837.png
subject-03,1,416,1.18472909927368,chair,chair,1-3-10,0416_eid_s03_1-3-10_chair_10_n02791124_8788.png
subject-03,1,417,1.26018190383911,bottle,chair,128-3-10,0417_eid_s03_128-3-10_chair_10_n03376595_4033.png
subject-03,1,418,0.805886030197144,airplane,airplane,4-3-10,0418_eid_s03_4-3-10_airplane_10_n02690373_6682.png
subject-03,1,419,0.991727113723755,dog,airplane,64-3-10,0419_eid_s03_64-3-10_airplane_10_n02690373_3377.png
subject-03,1,420,0.997682094573975,keyboard,dog,128-3-10,0420_eid_s03_128-3-10_dog_10_n02095570_601.png
subject-03,1,421,0.965497970581055,elephant,bottle,64-3-10,0421_eid_s03_64-3-10_bottle_10_n04591713_6164.png
subject-03,1,422,1.11102700233459,clock,clock,4-3-10,0422_eid_s03_4-3-10_clock_10_n04548280_5096.png
subject-03,1,423,0.971321105957031,keyboard,keyboard,128-3-10,0423_eid_s03_128-3-10_keyboard_10_n03085013_7286.png
subject-03,1,424,0.856955051422119,airplane,airplane,2-3-10,0424_eid_s03_2-3-10_airplane_10_n02690373_6665.png
subject-03,1,425,1.06100392341614,airplane,knife,16-3-10,0425_eid_s03_16-3-10_knife_10_n03041632_3210.png
subject-03,1,426,1.32464480400085,dog,cat,64-3-10,0426_eid_s03_64-3-10_cat_10_n02125311_17933.png
subject-03,1,427,1.26623106002808,bottle,clock,16-3-10,0427_eid_s03_16-3-10_clock_10_n02708093_3621.png
subject-03,1,428,0.881973028182983,car,car,2-3-10,0428_eid_s03_2-3-10_car_10_n04285008_5005.png
subject-03,1,429,0.934108018875122,dog,chair,64-3-10,0429_eid_s03_64-3-10_chair_10_n04429376_22670.png
subject-03,1,430,0.950188875198364,bear,bottle,32-3-10,0430_eid_s03_32-3-10_bottle_10_n04557648_3768.png
subject-03,1,431,0.995913028717041,dog,dog,2-3-10,0431_eid_s03_2-3-10_dog_10_n02100877_3973.png
subject-03,1,432,0.98527717590332,car,car,1-3-10,0432_eid_s03_1-3-10_car_10_n02814533_4726.png
subject-03,1,433,0.913065195083618,car,car,1-3-10,0433_eid_s03_1-3-10_car_10_n02814533_3375.png
subject-03,1,434,0.79512095451355,cat,knife,32-3-10,0434_eid_s03_32-3-10_knife_10_n03041632_23667.png
subject-03,1,435,1.34670400619507,bear,keyboard,32-3-10,0435_eid_s03_32-3-10_keyboard_10_n03085013_15825.png
subject-03,1,436,0.710477828979492,cat,airplane,32-3-10,0436_eid_s03_32-3-10_airplane_10_n02690373_8559.png
subject-03,1,437,1.22626399993896,boat,oven,2-3-10,0437_eid_s03_2-3-10_oven_10_n04111531_2797.png
subject-03,1,438,1.01418590545654,bear,elephant,16-3-10,0438_eid_s03_16-3-10_elephant_10_n02504458_98.png
subject-03,1,439,0.877969980239868,keyboard,keyboard,2-3-10,0439_eid_s03_2-3-10_keyboard_10_n03085013_2676.png
subject-03,1,440,0.845906972885132,dog,chair,64-3-10,0440_eid_s03_64-3-10_chair_10_n04099969_2354.png
subject-03,1,441,0.789728164672852,chair,chair,2-3-10,0441_eid_s03_2-3-10_chair_10_n04099969_24235.png
subject-03,1,442,1.05352282524109,car,oven,2-3-10,0442_eid_s03_2-3-10_oven_10_n04111531_6298.png
subject-03,1,443,0.949304819107056,cat,bicycle,64-3-10,0443_eid_s03_64-3-10_bicycle_10_n02835271_75.png
subject-03,1,444,0.823117971420288,bird,airplane,64-3-10,0444_eid_s03_64-3-10_airplane_10_n02690373_303.png
subject-03,1,445,1.02096796035767,dog,dog,1-3-10,0445_eid_s03_1-3-10_dog_10_n02093256_5845.png
subject-03,1,446,0.766684055328369,knife,knife,4-3-10,0446_eid_s03_4-3-10_knife_10_n03041632_24181.png
subject-03,1,447,0.844484090805054,keyboard,knife,16-3-10,0447_eid_s03_16-3-10_knife_10_n03041632_47234.png
subject-03,1,448,0.772372961044312,cat,clock,128-3-10,0448_eid_s03_128-3-10_clock_10_n02708093_906.png
subject-03,1,449,0.998153209686279,dog,dog,1-3-10,0449_eid_s03_1-3-10_dog_10_n02094433_3186.png
subject-03,1,450,1.0738730430603,bear,clock,64-3-10,0450_eid_s03_64-3-10_clock_10_n02708093_7827.png
subject-03,1,451,1.08970904350281,dog,bear,128-3-10,0451_eid_s03_128-3-10_bear_10_n02133161_13139.png
subject-03,1,452,0.805690050125122,oven,airplane,64-3-10,0452_eid_s03_64-3-10_airplane_10_n02690373_4671.png
subject-03,1,453,0.859692811965942,car,bicycle,16-3-10,0453_eid_s03_16-3-10_bicycle_10_n02835271_4246.png
subject-03,1,454,0.889129161834717,keyboard,boat,128-3-10,0454_eid_s03_128-3-10_boat_10_n03662601_21992.png
subject-03,1,455,0.98110818862915,boat,dog,32-3-10,0455_eid_s03_32-3-10_dog_10_n02108422_577.png
subject-03,1,456,1.06488394737244,dog,truck,32-3-10,0456_eid_s03_32-3-10_truck_10_n03417042_11062.png
subject-03,1,457,1.14071393013,cat,cat,1-3-10,0457_eid_s03_1-3-10_cat_10_n02123159_3536.png
subject-03,1,458,0.670536994934082,boat,boat,1-3-10,0458_eid_s03_1-3-10_boat_10_n03662601_34796.png
subject-03,1,459,0.888329982757568,bear,dog,8-3-10,0459_eid_s03_8-3-10_dog_10_n02113624_8833.png
subject-03,1,460,0.932284832000732,bicycle,bird,2-3-10,0460_eid_s03_2-3-10_bird_10_n01592084_3570.png
subject-03,1,461,1.01601004600525,bear,truck,64-3-10,0461_eid_s03_64-3-10_truck_10_n04467665_4492.png
subject-03,1,462,1.11807894706726,bicycle,truck,2-3-10,0462_eid_s03_2-3-10_truck_10_n04467665_71055.png
subject-03,1,463,0.559658050537109,cat,cat,4-3-10,0463_eid_s03_4-3-10_cat_10_n02123045_2757.png
subject-03,1,464,1.21545886993408,bird,elephant,16-3-10,0464_eid_s03_16-3-10_elephant_10_n02504013_8052.png
subject-03,1,465,0.861509799957275,truck,truck,4-3-10,0465_eid_s03_4-3-10_truck_10_n04467665_71098.png
subject-03,1,466,0.845118999481201,cat,keyboard,128-3-10,0466_eid_s03_128-3-10_keyboard_10_n03085013_24115.png
subject-03,1,467,0.914841175079346,car,car,16-3-10,0467_eid_s03_16-3-10_car_10_n03100240_8012.png
subject-03,1,468,1.06055903434753,car,truck,16-3-10,0468_eid_s03_16-3-10_truck_10_n03417042_2767.png
subject-03,1,469,0.938265085220337,bottle,bottle,1-3-10,0469_eid_s03_1-3-10_bottle_10_n03937543_1358.png
subject-03,1,470,1.21225094795227,boat,knife,8-3-10,0470_eid_s03_8-3-10_knife_10_n03041632_84048.png
subject-03,1,471,1.03220510482788,bottle,clock,16-3-10,0471_eid_s03_16-3-10_clock_10_n03196217_6185.png
subject-03,1,472,1.19415187835693,boat,boat,4-3-10,0472_eid_s03_4-3-10_boat_10_n02951358_12333.png
subject-03,1,473,1.00563192367554,clock,clock,2-3-10,0473_eid_s03_2-3-10_clock_10_n04548280_9533.png
subject-03,1,474,1.12759900093079,dog,knife,128-3-10,0474_eid_s03_128-3-10_knife_10_n03041632_25498.png
subject-03,1,475,0.74315619468689,oven,truck,64-3-10,0475_eid_s03_64-3-10_truck_10_n03417042_4934.png
subject-03,1,476,0.753068923950195,keyboard,keyboard,16-3-10,0476_eid_s03_16-3-10_keyboard_10_n04505470_430.png
subject-03,1,477,0.910719156265259,bird,bird,2-3-10,0477_eid_s03_2-3-10_bird_10_n01855672_19945.png
subject-03,1,478,0.862633943557739,elephant,elephant,4-3-10,0478_eid_s03_4-3-10_elephant_10_n02504458_3951.png
subject-03,1,479,0.620704889297485,clock,clock,1-3-10,0479_eid_s03_1-3-10_clock_10_n03196217_6707.png
subject-03,1,480,0.688270092010498,car,car,8-3-10,0480_eid_s03_8-3-10_car_10_n03100240_327.png
subject-03,1,481,0.912436962127686,cat,dog,128-3-10,0481_eid_s03_128-3-10_dog_10_n02100583_1343.png
subject-03,1,482,0.847862958908081,cat,airplane,32-3-10,0482_eid_s03_32-3-10_airplane_10_n02690373_10510.png
subject-03,1,483,0.705621004104614,clock,clock,1-3-10,0483_eid_s03_1-3-10_clock_10_n02708093_51.png
subject-03,1,484,0.627870082855225,boat,boat,4-3-10,0484_eid_s03_4-3-10_boat_10_n03662601_14818.png
subject-03,1,485,0.891423940658569,elephant,elephant,2-3-10,0485_eid_s03_2-3-10_elephant_10_n02504013_7001.png
subject-03,1,486,1.01523184776306,bear,bear,1-3-10,0486_eid_s03_1-3-10_bear_10_n02132136_276.png
subject-03,1,487,0.625109195709229,truck,truck,2-3-10,0487_eid_s03_2-3-10_truck_10_n04467665_7975.png
subject-03,1,488,1.22471213340759,bear,bottle,32-3-10,0488_eid_s03_32-3-10_bottle_10_n04579145_2276.png
subject-03,1,489,0.784651041030884,chair,chair,4-3-10,0489_eid_s03_4-3-10_chair_10_n04429376_12617.png
subject-03,1,490,0.798537969589233,keyboard,keyboard,8-3-10,0490_eid_s03_8-3-10_keyboard_10_n04505470_4905.png
subject-03,1,491,0.890367031097412,boat,truck,16-3-10,0491_eid_s03_16-3-10_truck_10_n03796401_4311.png
subject-03,1,492,0.842280864715576,boat,clock,16-3-10,0492_eid_s03_16-3-10_clock_10_n04548280_575.png
subject-03,1,493,0.717859983444214,bear,keyboard,16-3-10,0493_eid_s03_16-3-10_keyboard_10_n04505470_3388.png
subject-03,1,494,1.1698579788208,dog,clock,16-3-10,0494_eid_s03_16-3-10_clock_10_n04548280_64.png
subject-03,1,495,1.04387497901917,bicycle,oven,4-3-10,0495_eid_s03_4-3-10_oven_10_n04111531_2199.png
subject-03,1,496,0.67369818687439,bottle,bottle,1-3-10,0496_eid_s03_1-3-10_bottle_10_n04557648_10167.png
subject-03,1,497,0.789222955703735,airplane,airplane,4-3-10,0497_eid_s03_4-3-10_airplane_10_n02690373_20326.png
subject-03,1,498,0.710937976837158,bear,knife,64-3-10,0498_eid_s03_64-3-10_knife_10_n03041632_22241.png
subject-03,1,499,0.732630014419556,cat,keyboard,64-3-10,0499_eid_s03_64-3-10_keyboard_10_n04505470_10242.png
subject-03,1,500,0.862492799758911,dog,dog,8-3-10,0500_eid_s03_8-3-10_dog_10_n02110185_11414.png
subject-03,1,501,0.752700805664062,bear,elephant,32-3-10,0501_eid_s03_32-3-10_elephant_10_n02504013_10909.png
subject-03,1,502,0.784150123596191,bear,elephant,64-3-10,0502_eid_s03_64-3-10_elephant_10_n02504013_6976.png
subject-03,1,503,0.942155122756958,car,oven,64-3-10,0503_eid_s03_64-3-10_oven_10_n04111531_807.png
subject-03,1,504,0.682059049606323,dog,dog,16-3-10,0504_eid_s03_16-3-10_dog_10_n02094258_2981.png
subject-03,1,505,0.979687929153442,cat,bird,8-3-10,0505_eid_s03_8-3-10_bird_10_n01820546_1941.png
subject-03,1,506,0.89728307723999,car,car,4-3-10,0506_eid_s03_4-3-10_car_10_n02814533_45150.png
subject-03,1,507,0.809314012527466,cat,oven,128-3-10,0507_eid_s03_128-3-10_oven_10_n04111531_5077.png
subject-03,1,508,0.887051105499268,oven,clock,128-3-10,0508_eid_s03_128-3-10_clock_10_n03196217_5137.png
subject-03,1,509,0.768862009048462,keyboard,chair,128-3-10,0509_eid_s03_128-3-10_chair_10_n02791124_2600.png
subject-03,1,510,0.900752067565918,bear,airplane,64-3-10,0510_eid_s03_64-3-10_airplane_10_n02690373_2162.png
subject-03,1,511,1.38472199440002,keyboard,oven,8-3-10,0511_eid_s03_8-3-10_oven_10_n04111531_5473.png
subject-03,1,512,0.734266042709351,dog,dog,8-3-10,0512_eid_s03_8-3-10_dog_10_n02113624_246.png
subject-03,1,513,0.836039066314697,cat,elephant,16-3-10,0513_eid_s03_16-3-10_elephant_10_n02504458_3172.png
subject-03,1,514,0.741950035095215,bird,boat,32-3-10,0514_eid_s03_32-3-10_boat_10_n03662601_19840.png
subject-03,1,515,0.733661890029907,bear,bear,2-3-10,0515_eid_s03_2-3-10_bear_10_n02134084_7193.png
subject-03,1,516,0.7396080493927,bottle,chair,32-3-10,0516_eid_s03_32-3-10_chair_10_n03376595_6115.png
subject-03,1,517,0.823455095291138,airplane,bicycle,4-3-10,0517_eid_s03_4-3-10_bicycle_10_n02835271_6278.png
subject-03,1,518,0.901628971099854,truck,truck,2-3-10,0518_eid_s03_2-3-10_truck_10_n03417042_6247.png
subject-03,1,519,0.900996923446655,bottle,bear,32-3-10,0519_eid_s03_32-3-10_bear_10_n02134084_22032.png
subject-03,1,520,0.920786142349243,bear,car,16-3-10,0520_eid_s03_16-3-10_car_10_n04285008_3651.png
subject-03,1,521,1.02858185768127,bird,bottle,64-3-10,0521_eid_s03_64-3-10_bottle_10_n03937543_4523.png
subject-03,1,522,1.06638193130493,bear,elephant,64-3-10,0522_eid_s03_64-3-10_elephant_10_n02504013_4183.png
subject-03,1,523,0.882605075836182,airplane,airplane,16-3-10,0523_eid_s03_16-3-10_airplane_10_n02690373_1038.png
subject-03,1,524,1.02194905281067,truck,chair,8-3-10,0524_eid_s03_8-3-10_chair_10_n04429376_22745.png
subject-03,1,525,0.903826951980591,bear,dog,32-3-10,0525_eid_s03_32-3-10_dog_10_n02113712_2715.png
subject-03,1,526,0.831638813018799,cat,cat,128-3-10,0526_eid_s03_128-3-10_cat_10_n02124075_12350.png
subject-03,1,527,0.911613941192627,oven,dog,32-3-10,0527_eid_s03_32-3-10_dog_10_n02109525_175.png
subject-03,1,528,1.47558808326721,dog,chair,16-3-10,0528_eid_s03_16-3-10_chair_10_n02791124_5238.png
subject-03,1,529,0.949295043945312,car,car,64-3-10,0529_eid_s03_64-3-10_car_10_n03100240_7626.png
subject-03,1,530,0.742941856384277,keyboard,keyboard,4-3-10,0530_eid_s03_4-3-10_keyboard_10_n03085013_9209.png
subject-03,1,531,0.798914909362793,bird,bird,128-3-10,0531_eid_s03_128-3-10_bird_10_n01560419_5447.png
subject-03,1,532,0.672864198684692,car,car,4-3-10,0532_eid_s03_4-3-10_car_10_n03100240_310.png
subject-03,1,533,0.988256931304932,oven,oven,1-3-10,0533_eid_s03_1-3-10_oven_10_n04111531_1770.png
subject-03,1,534,1.30825996398926,bicycle,bicycle,32-3-10,0534_eid_s03_32-3-10_bicycle_10_n02835271_4160.png
subject-03,1,535,0.737884044647217,airplane,airplane,8-3-10,0535_eid_s03_8-3-10_airplane_10_n02690373_7465.png
subject-03,1,536,1.09784197807312,bear,truck,16-3-10,0536_eid_s03_16-3-10_truck_10_n04467665_58456.png
subject-03,1,537,1.14361500740051,bottle,bicycle,64-3-10,0537_eid_s03_64-3-10_bicycle_10_n03792782_551.png
subject-03,1,538,0.837709903717041,keyboard,car,128-3-10,0538_eid_s03_128-3-10_car_10_n03100240_21971.png
subject-03,1,539,0.891277074813843,cat,cat,2-3-10,0539_eid_s03_2-3-10_cat_10_n02123394_2553.png
subject-03,1,540,0.74937891960144,cat,cat,4-3-10,0540_eid_s03_4-3-10_cat_10_n02124075_521.png
subject-03,1,541,0.756806135177612,bear,keyboard,32-3-10,0541_eid_s03_32-3-10_keyboard_10_n04505470_524.png
subject-03,1,542,1.15470314025879,bicycle,boat,16-3-10,0542_eid_s03_16-3-10_boat_10_n04612504_673.png
subject-03,1,543,0.824446201324463,clock,clock,4-3-10,0543_eid_s03_4-3-10_clock_10_n04548280_2111.png
subject-03,1,544,0.728261947631836,car,car,1-3-10,0544_eid_s03_1-3-10_car_10_n04285008_16856.png
subject-03,1,545,1.29823184013367,truck,cat,64-3-10,0545_eid_s03_64-3-10_cat_10_n02123597_4700.png
subject-03,1,546,1.06208610534668,airplane,airplane,16-3-10,0546_eid_s03_16-3-10_airplane_10_n02690373_8611.png
subject-03,1,547,1.01380491256714,boat,bicycle,8-3-10,0547_eid_s03_8-3-10_bicycle_10_n02835271_11921.png
subject-03,1,548,0.70202898979187,bottle,bottle,1-3-10,0548_eid_s03_1-3-10_bottle_10_n03937543_2999.png
subject-03,1,549,0.943310976028442,bottle,bottle,1-3-10,0549_eid_s03_1-3-10_bottle_10_n04591713_3776.png
subject-03,1,550,0.933089971542358,chair,chair,2-3-10,0550_eid_s03_2-3-10_chair_10_n03376595_2512.png
subject-03,1,551,0.893120050430298,car,car,4-3-10,0551_eid_s03_4-3-10_car_10_n02814533_18077.png
subject-03,1,552,0.780802965164185,elephant,elephant,8-3-10,0552_eid_s03_8-3-10_elephant_10_n02504013_10638.png
subject-03,1,553,0.930776834487915,knife,knife,2-3-10,0553_eid_s03_2-3-10_knife_10_n03041632_79317.png
subject-03,1,554,0.906503200531006,truck,oven,8-3-10,0554_eid_s03_8-3-10_oven_10_n04111531_5802.png
subject-03,1,555,0.974213123321533,dog,bottle,16-3-10,0555_eid_s03_16-3-10_bottle_10_n04560804_15967.png
subject-03,1,556,1.32417702674866,dog,cat,2-3-10,0556_eid_s03_2-3-10_cat_10_n02125311_15293.png
subject-03,1,557,1.20775198936462,bear,bird,32-3-10,0557_eid_s03_32-3-10_bird_10_n01795545_17639.png
subject-03,1,558,1.28552412986755,oven,chair,16-3-10,0558_eid_s03_16-3-10_chair_10_n04429376_17917.png
subject-03,1,559,1.14346885681152,dog,dog,32-3-10,0559_eid_s03_32-3-10_dog_10_n02107574_5583.png
subject-03,1,560,0.829296827316284,knife,knife,2-3-10,0560_eid_s03_2-3-10_knife_10_n03041632_43436.png
subject-03,1,561,0.935084104537964,bear,keyboard,32-3-10,0561_eid_s03_32-3-10_keyboard_10_n03085013_24336.png
subject-03,1,562,1.13280701637268,dog,bicycle,16-3-10,0562_eid_s03_16-3-10_bicycle_10_n02835271_1499.png
subject-03,1,563,1.12452101707458,keyboard,car,64-3-10,0563_eid_s03_64-3-10_car_10_n04285008_8113.png
subject-03,1,564,0.786454916000366,clock,clock,8-3-10,0564_eid_s03_8-3-10_clock_10_n02708093_1431.png
subject-03,1,565,0.8245849609375,bear,boat,32-3-10,0565_eid_s03_32-3-10_boat_10_n03662601_23409.png
subject-03,1,566,1.02401995658875,bear,bird,64-3-10,0566_eid_s03_64-3-10_bird_10_n02056570_27055.png
subject-03,1,567,1.03768301010132,boat,boat,1-3-10,0567_eid_s03_1-3-10_boat_10_n03344393_3337.png
subject-03,1,568,1.0237340927124,dog,oven,32-3-10,0568_eid_s03_32-3-10_oven_10_n04111531_22797.png
subject-03,1,569,0.77957010269165,bear,boat,64-3-10,0569_eid_s03_64-3-10_boat_10_n03662601_36741.png
subject-03,1,570,0.677211046218872,boat,boat,4-3-10,0570_eid_s03_4-3-10_boat_10_n03662601_4619.png
subject-03,1,571,1.32703900337219,dog,bicycle,16-3-10,0571_eid_s03_16-3-10_bicycle_10_n02835271_5152.png
subject-03,1,572,1.07477402687073,bear,cat,32-3-10,0572_eid_s03_32-3-10_cat_10_n02123045_12084.png
subject-03,1,573,0.734629154205322,oven,car,32-3-10,0573_eid_s03_32-3-10_car_10_n02814533_14653.png
subject-03,1,574,1.03059387207031,chair,oven,2-3-10,0574_eid_s03_2-3-10_oven_10_n04111531_15367.png
subject-03,1,575,1.0463171005249,boat,clock,16-3-10,0575_eid_s03_16-3-10_clock_10_n02708093_6857.png
subject-03,1,576,1.12231087684631,dog,car,16-3-10,0576_eid_s03_16-3-10_car_10_n02814533_96407.png
subject-03,1,577,0.853868961334229,bird,bird,2-3-10,0577_eid_s03_2-3-10_bird_10_n02037110_27907.png
subject-03,1,578,1.02573490142822,car,oven,128-3-10,0578_eid_s03_128-3-10_oven_10_n04111531_986.png
subject-03,1,579,0.929553031921387,knife,knife,1-3-10,0579_eid_s03_1-3-10_knife_10_n03041632_22570.png
subject-03,1,580,1.05551695823669,keyboard,keyboard,8-3-10,0580_eid_s03_8-3-10_keyboard_10_n04505470_10041.png
subject-03,1,581,1.32949805259705,bottle,bottle,4-3-10,0581_eid_s03_4-3-10_bottle_10_n02823428_6731.png
subject-03,1,582,0.983251094818115,keyboard,bear,128-3-10,0582_eid_s03_128-3-10_bear_10_n02133161_5723.png
subject-03,1,583,0.926846027374268,knife,bottle,16-3-10,0583_eid_s03_16-3-10_bottle_10_n02823428_12643.png
subject-03,1,584,0.84064793586731,car,car,2-3-10,0584_eid_s03_2-3-10_car_10_n04285008_8641.png
subject-03,1,585,1.03448796272278,bicycle,bird,64-3-10,0585_eid_s03_64-3-10_bird_10_n02033041_2480.png
subject-03,1,586,0.908200979232788,keyboard,airplane,128-3-10,0586_eid_s03_128-3-10_airplane_10_n02690373_3561.png
subject-03,1,587,0.788018941879272,car,car,1-3-10,0587_eid_s03_1-3-10_car_10_n02814533_37110.png
subject-03,1,588,0.81989312171936,keyboard,keyboard,1-3-10,0588_eid_s03_1-3-10_keyboard_10_n03085013_17256.png
subject-03,1,589,1.43585896492004,dog,dog,4-3-10,0589_eid_s03_4-3-10_dog_10_n02098105_526.png
subject-03,1,590,1.12757802009583,bear,bicycle,32-3-10,0590_eid_s03_32-3-10_bicycle_10_n03792782_14476.png
subject-03,1,591,0.721246957778931,truck,truck,4-3-10,0591_eid_s03_4-3-10_truck_10_n03796401_20943.png
subject-03,1,592,1.15719413757324,bird,clock,64-3-10,0592_eid_s03_64-3-10_clock_10_n04548280_11068.png
subject-03,1,593,0.84918999671936,elephant,elephant,1-3-10,0593_eid_s03_1-3-10_elephant_10_n02504458_6878.png
subject-03,1,594,0.832826852798462,boat,boat,2-3-10,0594_eid_s03_2-3-10_boat_10_n03344393_10038.png
subject-03,1,595,0.70658802986145,cat,elephant,128-3-10,0595_eid_s03_128-3-10_elephant_10_n02504458_6696.png
subject-03,1,596,1.42424702644348,bottle,bottle,4-3-10,0596_eid_s03_4-3-10_bottle_10_n04557648_11642.png
subject-03,1,597,1.08630895614624,car,oven,16-3-10,0597_eid_s03_16-3-10_oven_10_n04111531_4467.png
subject-03,1,598,0.793889999389648,clock,clock,8-3-10,0598_eid_s03_8-3-10_clock_10_n02708093_2625.png
subject-03,1,599,0.745879888534546,keyboard,keyboard,8-3-10,0599_eid_s03_8-3-10_keyboard_10_n04505470_4228.png
subject-03,1,600,0.877553939819336,dog,dog,2-3-10,0600_eid_s03_2-3-10_dog_10_n02106382_5226.png
subject-03,1,601,1.36343598365784,car,boat,16-3-10,0601_eid_s03_16-3-10_boat_10_n03662601_13008.png
subject-03,1,602,0.745489835739136,car,car,4-3-10,0602_eid_s03_4-3-10_car_10_n02814533_95669.png
subject-03,1,603,1.01089787483215,boat,airplane,32-3-10,0603_eid_s03_32-3-10_airplane_10_n02690373_2619.png
subject-03,1,604,0.695043087005615,keyboard,keyboard,4-3-10,0604_eid_s03_4-3-10_keyboard_10_n03085013_15365.png
subject-03,1,605,0.848737001419067,truck,oven,1-3-10,0605_eid_s03_1-3-10_oven_10_n04111531_8350.png
subject-03,1,606,0.956525087356567,car,cat,16-3-10,0606_eid_s03_16-3-10_cat_10_n02125311_46738.png
subject-03,1,607,1.09428000450134,elephant,cat,4-3-10,0607_eid_s03_4-3-10_cat_10_n02125311_26954.png
subject-03,1,608,0.898535013198853,bear,knife,16-3-10,0608_eid_s03_16-3-10_knife_10_n03041632_33198.png
subject-03,1,609,0.8179931640625,car,car,2-3-10,0609_eid_s03_2-3-10_car_10_n04285008_11295.png
subject-03,1,610,0.887781858444214,boat,bird,4-3-10,0610_eid_s03_4-3-10_bird_10_n02018207_2282.png
subject-03,1,611,0.835774898529053,bear,knife,32-3-10,0611_eid_s03_32-3-10_knife_10_n03041632_27963.png
subject-03,1,612,0.865427017211914,keyboard,keyboard,2-3-10,0612_eid_s03_2-3-10_keyboard_10_n03085013_6740.png
subject-03,1,613,0.893118143081665,keyboard,keyboard,8-3-10,0613_eid_s03_8-3-10_keyboard_10_n04505470_1903.png
subject-03,1,614,NaN,na,oven,2-3-10,0614_eid_s03_2-3-10_oven_10_n04111531_550.png
subject-03,1,615,0.741236925125122,dog,dog,4-3-10,0615_eid_s03_4-3-10_dog_10_n02102318_11155.png
subject-03,1,616,1.05276417732239,bird,dog,128-3-10,0616_eid_s03_128-3-10_dog_10_n02086240_11622.png
subject-03,1,617,0.722490072250366,bear,boat,32-3-10,0617_eid_s03_32-3-10_boat_10_n03344393_2142.png
subject-03,1,618,1.04228210449219,bottle,bottle,2-3-10,0618_eid_s03_2-3-10_bottle_10_n03937543_4964.png
subject-03,1,619,0.872292041778564,airplane,airplane,8-3-10,0619_eid_s03_8-3-10_airplane_10_n02690373_945.png
subject-03,1,620,0.973932981491089,bird,keyboard,128-3-10,0620_eid_s03_128-3-10_keyboard_10_n03085013_20837.png
subject-03,1,621,0.85785984992981,oven,truck,128-3-10,0621_eid_s03_128-3-10_truck_10_n03417042_13871.png
subject-03,1,622,0.809562921524048,elephant,elephant,1-3-10,0622_eid_s03_1-3-10_elephant_10_n02504013_6615.png
subject-03,1,623,1.00313401222229,elephant,elephant,1-3-10,0623_eid_s03_1-3-10_elephant_10_n02504458_7506.png
subject-03,1,624,1.04313802719116,keyboard,oven,4-3-10,0624_eid_s03_4-3-10_oven_10_n04111531_1230.png
subject-03,1,625,0.998869180679321,truck,oven,1-3-10,0625_eid_s03_1-3-10_oven_10_n04111531_5093.png
subject-03,1,626,1.50014996528625,cat,oven,32-3-10,0626_eid_s03_32-3-10_oven_10_n04111531_7134.png
subject-03,1,627,0.82654595375061,chair,chair,1-3-10,0627_eid_s03_1-3-10_chair_10_n03376595_12524.png
subject-03,1,628,1.46234321594238,chair,chair,4-3-10,0628_eid_s03_4-3-10_chair_10_n04429376_22734.png
subject-03,1,629,0.844153881072998,cat,bear,16-3-10,0629_eid_s03_16-3-10_bear_10_n02133161_79.png
subject-03,1,630,0.976119995117188,bear,knife,128-3-10,0630_eid_s03_128-3-10_knife_10_n03041632_3247.png
subject-03,1,631,0.950149059295654,bicycle,bicycle,1-3-10,0631_eid_s03_1-3-10_bicycle_10_n02835271_21439.png
subject-03,1,632,0.869845151901245,truck,truck,8-3-10,0632_eid_s03_8-3-10_truck_10_n03417042_12133.png
subject-03,1,633,1.15754914283752,dog,bicycle,128-3-10,0633_eid_s03_128-3-10_bicycle_10_n03792782_15757.png
subject-03,1,634,0.695657968521118,airplane,airplane,1-3-10,0634_eid_s03_1-3-10_airplane_10_n02690373_1235.png
subject-03,1,635,1.44520497322083,oven,clock,8-3-10,0635_eid_s03_8-3-10_clock_10_n03196217_7985.png
subject-03,1,636,1.09103989601135,dog,dog,8-3-10,0636_eid_s03_8-3-10_dog_10_n02105056_1381.png
subject-03,1,637,0.777037858963013,cat,bicycle,32-3-10,0637_eid_s03_32-3-10_bicycle_10_n03792782_13160.png
subject-03,1,638,0.77451491355896,bear,boat,32-3-10,0638_eid_s03_32-3-10_boat_10_n03662601_5423.png
subject-03,1,639,1.31263399124146,dog,boat,8-3-10,0639_eid_s03_8-3-10_boat_10_n04612504_1613.png
subject-03,1,640,0.786290884017944,car,clock,64-3-10,0640_eid_s03_64-3-10_clock_10_n03196217_7971.png
subject-03,1,641,1.29960489273071,boat,boat,2-3-10,0641_eid_s03_2-3-10_boat_10_n03344393_3219.png
subject-03,1,642,0.665275096893311,elephant,elephant,2-3-10,0642_eid_s03_2-3-10_elephant_10_n02504013_10793.png
subject-03,1,643,0.913037061691284,bird,boat,16-3-10,0643_eid_s03_16-3-10_boat_10_n04612504_13446.png
subject-03,1,644,0.803048133850098,bird,bird,4-3-10,0644_eid_s03_4-3-10_bird_10_n01560419_8247.png
subject-03,1,645,0.840617895126343,bear,cat,64-3-10,0645_eid_s03_64-3-10_cat_10_n02123159_1102.png
subject-03,1,646,0.954792976379395,knife,knife,1-3-10,0646_eid_s03_1-3-10_knife_10_n03041632_9963.png
subject-03,1,647,0.720440149307251,bear,bicycle,64-3-10,0647_eid_s03_64-3-10_bicycle_10_n02835271_262.png
subject-03,1,648,0.946084022521973,bear,bottle,16-3-10,0648_eid_s03_16-3-10_bottle_10_n02823428_7704.png
subject-03,1,649,1.17018508911133,oven,keyboard,16-3-10,0649_eid_s03_16-3-10_keyboard_10_n03085013_6629.png
subject-03,1,650,0.942102909088135,bottle,car,32-3-10,0650_eid_s03_32-3-10_car_10_n02814533_32802.png
subject-03,1,651,0.933631896972656,truck,truck,1-3-10,0651_eid_s03_1-3-10_truck_10_n03417042_7869.png
subject-03,1,652,0.953634023666382,cat,bird,16-3-10,0652_eid_s03_16-3-10_bird_10_n01819313_5388.png
subject-03,1,653,0.95918607711792,dog,dog,16-3-10,0653_eid_s03_16-3-10_dog_10_n02109525_4516.png
subject-03,1,654,0.846921920776367,truck,truck,1-3-10,0654_eid_s03_1-3-10_truck_10_n03417042_19596.png
subject-03,1,655,1.34523010253906,knife,keyboard,16-3-10,0655_eid_s03_16-3-10_keyboard_10_n03085013_3439.png
subject-03,1,656,0.818866014480591,keyboard,boat,128-3-10,0656_eid_s03_128-3-10_boat_10_n03662601_17001.png
subject-03,1,657,0.942457914352417,bird,bird,4-3-10,0657_eid_s03_4-3-10_bird_10_n01828970_2306.png
subject-03,1,658,1.05013203620911,car,cat,64-3-10,0658_eid_s03_64-3-10_cat_10_n02123159_9450.png
subject-03,1,659,0.798038959503174,bear,keyboard,64-3-10,0659_eid_s03_64-3-10_keyboard_10_n03085013_24668.png
subject-03,1,660,0.88975715637207,boat,boat,8-3-10,0660_eid_s03_8-3-10_boat_10_n03344393_5063.png
subject-03,1,661,0.925666809082031,dog,keyboard,32-3-10,0661_eid_s03_32-3-10_keyboard_10_n03085013_15484.png
subject-03,1,662,0.917386054992676,dog,dog,2-3-10,0662_eid_s03_2-3-10_dog_10_n02102040_988.png
subject-03,1,663,0.711389064788818,clock,clock,4-3-10,0663_eid_s03_4-3-10_clock_10_n04548280_10686.png
subject-03,1,664,0.781021118164062,cat,truck,16-3-10,0664_eid_s03_16-3-10_truck_10_n04467665_67726.png
subject-03,1,665,0.772891044616699,car,bear,16-3-10,0665_eid_s03_16-3-10_bear_10_n02132136_21181.png
subject-03,1,666,0.778925895690918,bird,bird,2-3-10,0666_eid_s03_2-3-10_bird_10_n02007558_4629.png
subject-03,1,667,1.37049293518066,keyboard,airplane,64-3-10,0667_eid_s03_64-3-10_airplane_10_n02690373_2109.png
subject-03,1,668,1.24460506439209,oven,knife,2-3-10,0668_eid_s03_2-3-10_knife_10_n03041632_30666.png
subject-03,1,669,0.858206033706665,boat,boat,16-3-10,0669_eid_s03_16-3-10_boat_10_n04273569_10665.png
subject-03,1,670,1.12414193153381,airplane,clock,16-3-10,0670_eid_s03_16-3-10_clock_10_n04548280_1041.png
subject-03,1,671,0.855733871459961,car,car,2-3-10,0671_eid_s03_2-3-10_car_10_n02814533_61501.png
subject-03,1,672,0.893519878387451,elephant,elephant,4-3-10,0672_eid_s03_4-3-10_elephant_10_n02504013_6065.png
subject-03,1,673,0.987445831298828,boat,elephant,4-3-10,0673_eid_s03_4-3-10_elephant_10_n02504458_1933.png
subject-03,1,674,0.843430042266846,bear,boat,32-3-10,0674_eid_s03_32-3-10_boat_10_n02951358_12867.png
subject-03,1,675,1.32116389274597,bottle,oven,4-3-10,0675_eid_s03_4-3-10_oven_10_n04111531_6629.png
subject-03,1,676,0.862946033477783,keyboard,airplane,128-3-10,0676_eid_s03_128-3-10_airplane_10_n02690373_2967.png
subject-03,1,677,0.974609136581421,bear,elephant,32-3-10,0677_eid_s03_32-3-10_elephant_10_n02504458_1211.png
subject-03,1,678,0.834532022476196,dog,dog,16-3-10,0678_eid_s03_16-3-10_dog_10_n02112350_4795.png
subject-03,1,679,0.832525968551636,cat,elephant,16-3-10,0679_eid_s03_16-3-10_elephant_10_n02504013_4590.png
subject-03,1,680,0.722105026245117,bicycle,bicycle,2-3-10,0680_eid_s03_2-3-10_bicycle_10_n02835271_6641.png
subject-03,1,681,0.917910099029541,bottle,chair,4-3-10,0681_eid_s03_4-3-10_chair_10_n04429376_11813.png
subject-03,1,682,1.03975582122803,keyboard,keyboard,4-3-10,0682_eid_s03_4-3-10_keyboard_10_n04505470_1371.png
subject-03,1,683,0.943648099899292,keyboard,bear,64-3-10,0683_eid_s03_64-3-10_bear_10_n02132136_306.png
subject-03,1,684,0.92155122756958,oven,elephant,16-3-10,0684_eid_s03_16-3-10_elephant_10_n02504013_1900.png
subject-03,1,685,0.849107980728149,bicycle,bird,16-3-10,0685_eid_s03_16-3-10_bird_10_n02011460_23755.png
subject-03,1,686,1.13335800170898,bear,bottle,8-3-10,0686_eid_s03_8-3-10_bottle_10_n04557648_5935.png
subject-03,1,687,1.08485794067383,dog,bicycle,128-3-10,0687_eid_s03_128-3-10_bicycle_10_n02835271_14544.png
subject-03,1,688,0.830965042114258,bottle,elephant,128-3-10,0688_eid_s03_128-3-10_elephant_10_n02504013_6141.png
subject-03,1,689,0.734573125839233,keyboard,keyboard,1-3-10,0689_eid_s03_1-3-10_keyboard_10_n03085013_2594.png
subject-03,1,690,0.818251848220825,truck,truck,2-3-10,0690_eid_s03_2-3-10_truck_10_n03796401_3651.png
subject-03,1,691,1.16854000091553,airplane,airplane,8-3-10,0691_eid_s03_8-3-10_airplane_10_n02690373_7499.png
subject-03,1,692,0.979952096939087,bicycle,bear,2-3-10,0692_eid_s03_2-3-10_bear_10_n02134418_860.png
subject-03,1,693,1.06578397750854,dog,cat,2-3-10,0693_eid_s03_2-3-10_cat_10_n02123597_13839.png
subject-03,1,694,1.11743402481079,dog,bottle,32-3-10,0694_eid_s03_32-3-10_bottle_10_n02823428_13488.png
subject-03,1,695,1.50002098083496,elephant,bicycle,128-3-10,0695_eid_s03_128-3-10_bicycle_10_n03792782_5494.png
subject-03,1,696,1.14532995223999,elephant,airplane,64-3-10,0696_eid_s03_64-3-10_airplane_10_n02690373_1053.png
subject-03,1,697,0.778886079788208,bottle,bottle,4-3-10,0697_eid_s03_4-3-10_bottle_10_n03937543_2143.png
subject-03,1,698,1.18466305732727,bottle,keyboard,8-3-10,0698_eid_s03_8-3-10_keyboard_10_n03085013_8339.png
subject-03,1,699,1.32498097419739,bicycle,boat,8-3-10,0699_eid_s03_8-3-10_boat_10_n03662601_17352.png
subject-03,1,700,0.742438793182373,clock,clock,4-3-10,0700_eid_s03_4-3-10_clock_10_n02708093_386.png
subject-03,1,701,0.868151903152466,truck,truck,2-3-10,0701_eid_s03_2-3-10_truck_10_n04467665_1101.png
subject-03,1,702,1.25013399124146,bird,oven,64-3-10,0702_eid_s03_64-3-10_oven_10_n04111531_15296.png
subject-03,1,703,0.843843936920166,cat,elephant,64-3-10,0703_eid_s03_64-3-10_elephant_10_n02504013_6823.png
subject-03,1,704,1.38959884643555,airplane,knife,16-3-10,0704_eid_s03_16-3-10_knife_10_n03041632_11358.png
subject-03,1,705,0.851528882980347,airplane,airplane,1-3-10,0705_eid_s03_1-3-10_airplane_10_n02690373_427.png
subject-03,1,706,1.30122494697571,bird,bird,4-3-10,0706_eid_s03_4-3-10_bird_10_n01860187_20777.png
subject-03,1,707,1.01895499229431,dog,keyboard,128-3-10,0707_eid_s03_128-3-10_keyboard_10_n04505470_9457.png
subject-03,1,708,0.853142976760864,car,car,4-3-10,0708_eid_s03_4-3-10_car_10_n03100240_12560.png
subject-03,1,709,0.762829065322876,airplane,airplane,8-3-10,0709_eid_s03_8-3-10_airplane_10_n02690373_2851.png
subject-03,1,710,0.918869972229004,bicycle,bicycle,2-3-10,0710_eid_s03_2-3-10_bicycle_10_n02835271_14846.png
subject-03,1,711,1.35415506362915,dog,car,64-3-10,0711_eid_s03_64-3-10_car_10_n04285008_2887.png
subject-03,1,712,0.794256925582886,chair,chair,1-3-10,0712_eid_s03_1-3-10_chair_10_n03376595_1149.png
subject-03,1,713,0.931862831115723,bird,bird,2-3-10,0713_eid_s03_2-3-10_bird_10_n01828970_6924.png
subject-03,1,714,0.697721004486084,chair,chair,4-3-10,0714_eid_s03_4-3-10_chair_10_n04099969_195.png
subject-03,1,715,0.825706005096436,airplane,airplane,8-3-10,0715_eid_s03_8-3-10_airplane_10_n02690373_10769.png
subject-03,1,716,1.44141888618469,dog,keyboard,16-3-10,0716_eid_s03_16-3-10_keyboard_10_n03085013_2166.png
subject-03,1,717,0.907057046890259,cat,chair,8-3-10,0717_eid_s03_8-3-10_chair_10_n02791124_2035.png
subject-03,1,718,0.767338991165161,bird,bird,8-3-10,0718_eid_s03_8-3-10_bird_10_n02028035_7406.png
subject-03,1,719,1.41457986831665,airplane,airplane,16-3-10,0719_eid_s03_16-3-10_airplane_10_n02690373_5714.png
subject-03,1,720,0.740732908248901,boat,truck,128-3-10,0720_eid_s03_128-3-10_truck_10_n03417042_8998.png
subject-03,1,721,1.14437413215637,dog,cat,32-3-10,0721_eid_s03_32-3-10_cat_10_n02123597_6548.png
subject-03,1,722,0.926368951797485,dog,knife,128-3-10,0722_eid_s03_128-3-10_knife_10_n03041632_31909.png
subject-03,1,723,1.15445590019226,keyboard,oven,1-3-10,0723_eid_s03_1-3-10_oven_10_n04111531_9308.png
subject-03,1,724,0.909878015518188,cat,cat,16-3-10,0724_eid_s03_16-3-10_cat_10_n02125311_15099.png
subject-03,1,725,0.953972816467285,truck,truck,1-3-10,0725_eid_s03_1-3-10_truck_10_n03417042_4761.png
subject-03,1,726,1.13343691825867,dog,cat,16-3-10,0726_eid_s03_16-3-10_cat_10_n02123159_13611.png
subject-03,1,727,0.971270084381104,bear,knife,64-3-10,0727_eid_s03_64-3-10_knife_10_n03041632_20576.png
subject-03,1,728,0.929181098937988,keyboard,clock,16-3-10,0728_eid_s03_16-3-10_clock_10_n04548280_6134.png
subject-03,1,729,1.14096212387085,oven,boat,64-3-10,0729_eid_s03_64-3-10_boat_10_n02951358_35073.png
subject-03,1,730,0.910752058029175,bottle,bird,128-3-10,0730_eid_s03_128-3-10_bird_10_n02002556_5393.png
subject-03,1,731,0.864418983459473,cat,car,64-3-10,0731_eid_s03_64-3-10_car_10_n03100240_10126.png
subject-03,1,732,0.848603010177612,dog,dog,2-3-10,0732_eid_s03_2-3-10_dog_10_n02093428_16887.png
subject-03,1,733,1.09635591506958,keyboard,elephant,64-3-10,0733_eid_s03_64-3-10_elephant_10_n02504013_6862.png
subject-03,1,734,1.21998000144958,dog,bicycle,32-3-10,0734_eid_s03_32-3-10_bicycle_10_n02835271_8203.png
subject-03,1,735,0.842082023620605,cat,elephant,64-3-10,0735_eid_s03_64-3-10_elephant_10_n02504013_3418.png
subject-03,1,736,0.797688007354736,bicycle,bicycle,1-3-10,0736_eid_s03_1-3-10_bicycle_10_n03792782_5404.png
subject-03,1,737,0.741425037384033,car,car,4-3-10,0737_eid_s03_4-3-10_car_10_n03100240_4537.png
subject-03,1,738,1.05903697013855,boat,bird,32-3-10,0738_eid_s03_32-3-10_bird_10_n01855672_6144.png
subject-03,1,739,0.954974889755249,car,bear,128-3-10,0739_eid_s03_128-3-10_bear_10_n02132136_10113.png
subject-03,1,740,1.08893895149231,truck,oven,16-3-10,0740_eid_s03_16-3-10_oven_10_n04111531_8537.png
subject-03,1,741,0.752689838409424,cat,bird,64-3-10,0741_eid_s03_64-3-10_bird_10_n01601694_935.png
subject-03,1,742,0.852390050888062,bear,clock,32-3-10,0742_eid_s03_32-3-10_clock_10_n03196217_11445.png
subject-03,1,743,1.24017786979675,airplane,knife,4-3-10,0743_eid_s03_4-3-10_knife_10_n03041632_27898.png
subject-03,1,744,0.954100131988525,truck,truck,8-3-10,0744_eid_s03_8-3-10_truck_10_n03417042_25458.png
subject-03,1,745,1.35193991661072,knife,oven,2-3-10,0745_eid_s03_2-3-10_oven_10_n04111531_20591.png
subject-03,1,746,1.47557902336121,keyboard,bicycle,128-3-10,0746_eid_s03_128-3-10_bicycle_10_n02835271_20153.png
subject-03,1,747,1.17769289016724,bottle,chair,16-3-10,0747_eid_s03_16-3-10_chair_10_n04429376_3426.png
subject-03,1,748,0.739340782165527,cat,cat,1-3-10,0748_eid_s03_1-3-10_cat_10_n02123394_384.png
subject-03,1,749,1.12729907035828,boat,boat,4-3-10,0749_eid_s03_4-3-10_boat_10_n03344393_3518.png
subject-03,1,750,1.42677307128906,truck,oven,8-3-10,0750_eid_s03_8-3-10_oven_10_n04111531_14280.png
subject-03,1,751,1.02059721946716,truck,truck,16-3-10,0751_eid_s03_16-3-10_truck_10_n03796401_8523.png
subject-03,1,752,0.87867283821106,elephant,elephant,4-3-10,0752_eid_s03_4-3-10_elephant_10_n02504458_2343.png
subject-03,1,753,0.642484903335571,boat,boat,2-3-10,0753_eid_s03_2-3-10_boat_10_n04273569_7039.png
subject-03,1,754,0.914262056350708,truck,truck,4-3-10,0754_eid_s03_4-3-10_truck_10_n04467665_10122.png
subject-03,1,755,0.779880046844482,cat,elephant,64-3-10,0755_eid_s03_64-3-10_elephant_10_n02504458_6130.png
subject-03,1,756,1.3798680305481,keyboard,clock,1-3-10,0756_eid_s03_1-3-10_clock_10_n04548280_5327.png
subject-03,1,757,0.87566614151001,cat,oven,32-3-10,0757_eid_s03_32-3-10_oven_10_n04111531_14325.png
subject-03,1,758,0.945730924606323,bicycle,bicycle,4-3-10,0758_eid_s03_4-3-10_bicycle_10_n03792782_16212.png
subject-03,1,759,1.11567687988281,dog,bird,32-3-10,0759_eid_s03_32-3-10_bird_10_n01824575_1765.png
subject-03,1,760,1.02746796607971,dog,dog,2-3-10,0760_eid_s03_2-3-10_dog_10_n02113712_5246.png
subject-03,1,761,0.831259965896606,cat,chair,16-3-10,0761_eid_s03_16-3-10_chair_10_n03376595_6208.png
subject-03,1,762,1.10307383537292,cat,bear,8-3-10,0762_eid_s03_8-3-10_bear_10_n02134418_1642.png
subject-03,1,763,0.968766927719116,keyboard,keyboard,2-3-10,0763_eid_s03_2-3-10_keyboard_10_n03085013_7858.png
subject-03,1,764,0.95018482208252,bear,bird,64-3-10,0764_eid_s03_64-3-10_bird_10_n01843065_4182.png
subject-03,1,765,1.38032102584839,keyboard,clock,128-3-10,0765_eid_s03_128-3-10_clock_10_n03196217_1079.png
subject-03,1,766,0.846127033233643,dog,clock,64-3-10,0766_eid_s03_64-3-10_clock_10_n03196217_3283.png
subject-03,1,767,1.04171299934387,bear,cat,32-3-10,0767_eid_s03_32-3-10_cat_10_n02123045_7248.png
subject-03,1,768,1.00971388816833,cat,cat,32-3-10,0768_eid_s03_32-3-10_cat_10_n02123045_4252.png
subject-03,1,769,1.05553007125854,cat,cat,4-3-10,0769_eid_s03_4-3-10_cat_10_n02123159_6728.png
subject-03,1,770,1.46929311752319,boat,boat,16-3-10,0770_eid_s03_16-3-10_boat_10_n03344393_8022.png
subject-03,1,771,0.828922033309937,bottle,bottle,4-3-10,0771_eid_s03_4-3-10_bottle_10_n04579145_4186.png
subject-03,1,772,0.802685976028442,airplane,airplane,2-3-10,0772_eid_s03_2-3-10_airplane_10_n02690373_939.png
subject-03,1,773,0.662737846374512,car,car,8-3-10,0773_eid_s03_8-3-10_car_10_n04285008_13.png
subject-03,1,774,0.792423009872437,elephant,cat,4-3-10,0774_eid_s03_4-3-10_cat_10_n02125311_20388.png
subject-03,1,775,0.970452785491943,keyboard,keyboard,1-3-10,0775_eid_s03_1-3-10_keyboard_10_n03085013_23834.png
subject-03,1,776,0.696117877960205,clock,clock,4-3-10,0776_eid_s03_4-3-10_clock_10_n02708093_8204.png
subject-03,1,777,0.989744186401367,dog,chair,64-3-10,0777_eid_s03_64-3-10_chair_10_n04429376_7982.png
subject-03,1,778,0.793610095977783,cat,cat,16-3-10,0778_eid_s03_16-3-10_cat_10_n02124075_2068.png
subject-03,1,779,0.799628973007202,bear,dog,32-3-10,0779_eid_s03_32-3-10_dog_10_n02109961_53644.png
subject-03,1,780,1.0972011089325,airplane,boat,1-3-10,0780_eid_s03_1-3-10_boat_10_n03662601_273.png
subject-03,1,781,1.2131450176239,keyboard,bird,128-3-10,0781_eid_s03_128-3-10_bird_10_n02056570_1441.png
subject-03,1,782,0.765094041824341,bear,bear,2-3-10,0782_eid_s03_2-3-10_bear_10_n02134418_2254.png
subject-03,1,783,1.07668209075928,cat,dog,2-3-10,0783_eid_s03_2-3-10_dog_10_n02090721_2242.png
subject-03,1,784,0.904536008834839,truck,truck,1-3-10,0784_eid_s03_1-3-10_truck_10_n03796401_3488.png
subject-03,1,785,0.816340923309326,cat,bottle,64-3-10,0785_eid_s03_64-3-10_bottle_10_n03937543_2232.png
subject-03,1,786,1.34817695617676,knife,knife,8-3-10,0786_eid_s03_8-3-10_knife_10_n03041632_94620.png
subject-03,1,787,1.06395697593689,airplane,airplane,8-3-10,0787_eid_s03_8-3-10_airplane_10_n02690373_7535.png
subject-03,1,788,0.943835973739624,cat,boat,64-3-10,0788_eid_s03_64-3-10_boat_10_n02951358_4544.png
subject-03,1,789,0.963890075683594,car,bottle,2-3-10,0789_eid_s03_2-3-10_bottle_10_n04591713_3085.png
subject-03,1,790,1.07952094078064,boat,boat,4-3-10,0790_eid_s03_4-3-10_boat_10_n04273569_4518.png
subject-03,1,791,0.93747091293335,bird,bear,64-3-10,0791_eid_s03_64-3-10_bear_10_n02132136_11217.png
subject-03,1,792,0.685257196426392,cat,cat,8-3-10,0792_eid_s03_8-3-10_cat_10_n02123045_8636.png
subject-03,1,793,0.714907884597778,airplane,airplane,16-3-10,0793_eid_s03_16-3-10_airplane_10_n02690373_7279.png
subject-03,1,794,1.2606098651886,dog,bicycle,16-3-10,0794_eid_s03_16-3-10_bicycle_10_n03792782_19116.png
subject-03,1,795,0.688472032546997,boat,boat,1-3-10,0795_eid_s03_1-3-10_boat_10_n03662601_26396.png
subject-03,1,796,0.672456026077271,airplane,airplane,2-3-10,0796_eid_s03_2-3-10_airplane_10_n02690373_6978.png
subject-03,1,797,0.762165069580078,bottle,bottle,1-3-10,0797_eid_s03_1-3-10_bottle_10_n03937543_2677.png
subject-03,1,798,1.18801498413086,elephant,elephant,1-3-10,0798_eid_s03_1-3-10_elephant_10_n02504013_1132.png
subject-03,1,799,0.920106887817383,bottle,knife,1-3-10,0799_eid_s03_1-3-10_knife_10_n03041632_29801.png
subject-03,1,800,0.777528047561646,bear,boat,64-3-10,0800_eid_s03_64-3-10_boat_10_n04273569_5901.png
subject-03,1,801,0.838876008987427,bear,oven,32-3-10,0801_eid_s03_32-3-10_oven_10_n04111531_17917.png
subject-03,1,802,1.26011776924133,dog,bottle,16-3-10,0802_eid_s03_16-3-10_bottle_10_n04557648_4490.png
subject-03,1,803,0.930170059204102,dog,dog,8-3-10,0803_eid_s03_8-3-10_dog_10_n02096585_2118.png
subject-03,1,804,0.881981134414673,knife,knife,2-3-10,0804_eid_s03_2-3-10_knife_10_n03041632_43289.png
subject-03,1,805,0.875611066818237,bear,truck,16-3-10,0805_eid_s03_16-3-10_truck_10_n04467665_3038.png
subject-03,1,806,0.621497869491577,car,car,1-3-10,0806_eid_s03_1-3-10_car_10_n04285008_11291.png
subject-03,1,807,0.815313816070557,truck,truck,8-3-10,0807_eid_s03_8-3-10_truck_10_n04467665_9331.png
subject-03,1,808,1.06556606292725,bird,bird,4-3-10,0808_eid_s03_4-3-10_bird_10_n01537544_20.png
subject-03,1,809,0.703227996826172,bear,bear,64-3-10,0809_eid_s03_64-3-10_bear_10_n02134418_4384.png
subject-03,1,810,1.11482977867126,oven,oven,2-3-10,0810_eid_s03_2-3-10_oven_10_n04111531_3902.png
subject-03,1,811,1.46442079544067,elephant,bear,16-3-10,0811_eid_s03_16-3-10_bear_10_n02134418_2604.png
subject-03,1,812,0.814212083816528,dog,dog,2-3-10,0812_eid_s03_2-3-10_dog_10_n02091635_7254.png
subject-03,1,813,1.04003810882568,cat,boat,128-3-10,0813_eid_s03_128-3-10_boat_10_n02951358_34418.png
subject-03,1,814,0.802127122879028,keyboard,keyboard,4-3-10,0814_eid_s03_4-3-10_keyboard_10_n03085013_21272.png
subject-03,1,815,1.41980791091919,keyboard,chair,1-3-10,0815_eid_s03_1-3-10_chair_10_n04429376_294.png
subject-03,1,816,0.82945704460144,keyboard,keyboard,2-3-10,0816_eid_s03_2-3-10_keyboard_10_n03085013_7152.png
subject-03,1,817,0.753431081771851,keyboard,dog,128-3-10,0817_eid_s03_128-3-10_dog_10_n02095889_1087.png
subject-03,1,818,1.04119920730591,keyboard,bear,64-3-10,0818_eid_s03_64-3-10_bear_10_n02134084_34375.png
subject-03,1,819,1.26515007019043,car,bicycle,1-3-10,0819_eid_s03_1-3-10_bicycle_10_n02835271_21707.png
subject-03,1,820,1.20889616012573,bear,elephant,32-3-10,0820_eid_s03_32-3-10_elephant_10_n02504013_7553.png
subject-03,1,821,1.0507538318634,car,dog,128-3-10,0821_eid_s03_128-3-10_dog_10_n02092339_6406.png
subject-03,1,822,0.954560041427612,boat,bottle,64-3-10,0822_eid_s03_64-3-10_bottle_10_n04591713_2826.png
subject-03,1,823,1.11831283569336,dog,bird,32-3-10,0823_eid_s03_32-3-10_bird_10_n02002724_1235.png
subject-03,1,824,1.12002682685852,dog,bear,2-3-10,0824_eid_s03_2-3-10_bear_10_n02134084_14360.png
subject-03,1,825,0.839869022369385,bear,bear,32-3-10,0825_eid_s03_32-3-10_bear_10_n02134084_3479.png
subject-03,1,826,0.963974952697754,elephant,bear,1-3-10,0826_eid_s03_1-3-10_bear_10_n02134418_3148.png
subject-03,1,827,0.879477977752686,truck,truck,1-3-10,0827_eid_s03_1-3-10_truck_10_n03417042_9062.png
subject-03,1,828,0.651244878768921,clock,clock,8-3-10,0828_eid_s03_8-3-10_clock_10_n02708093_2717.png
subject-03,1,829,1.00910496711731,bicycle,elephant,8-3-10,0829_eid_s03_8-3-10_elephant_10_n02504013_4231.png
subject-03,1,830,1.0429699420929,boat,oven,16-3-10,0830_eid_s03_16-3-10_oven_10_n04111531_23668.png
subject-03,1,831,0.764994144439697,clock,clock,4-3-10,0831_eid_s03_4-3-10_clock_10_n04548280_2127.png
subject-03,1,832,1.31062984466553,airplane,bird,32-3-10,0832_eid_s03_32-3-10_bird_10_n02009229_6228.png
subject-03,1,833,0.738357782363892,truck,truck,8-3-10,0833_eid_s03_8-3-10_truck_10_n03417042_4016.png
subject-03,1,834,1.39620780944824,bicycle,bear,8-3-10,0834_eid_s03_8-3-10_bear_10_n02134084_4593.png
subject-03,1,835,1.00391793251038,dog,bear,64-3-10,0835_eid_s03_64-3-10_bear_10_n02133161_2226.png
subject-03,1,836,1.47005295753479,oven,chair,8-3-10,0836_eid_s03_8-3-10_chair_10_n02791124_2282.png
subject-03,1,837,1.27978706359863,dog,bicycle,8-3-10,0837_eid_s03_8-3-10_bicycle_10_n03792782_49510.png
subject-03,1,838,0.75354790687561,bear,bottle,32-3-10,0838_eid_s03_32-3-10_bottle_10_n02823428_8300.png
subject-03,1,839,0.681152105331421,bear,bear,4-3-10,0839_eid_s03_4-3-10_bear_10_n02133161_5577.png
subject-03,1,840,0.695246934890747,cat,cat,1-3-10,0840_eid_s03_1-3-10_cat_10_n02123394_6792.png
subject-03,1,841,0.763202905654907,bottle,bottle,128-3-10,0841_eid_s03_128-3-10_bottle_10_n03937543_6624.png
subject-03,1,842,1.10474801063538,oven,oven,16-3-10,0842_eid_s03_16-3-10_oven_10_n04111531_14329.png
subject-03,1,843,1.11864805221558,car,boat,16-3-10,0843_eid_s03_16-3-10_boat_10_n03344393_9712.png
subject-03,1,844,1.42066979408264,bird,bicycle,4-3-10,0844_eid_s03_4-3-10_bicycle_10_n03792782_7667.png
subject-03,1,845,0.978319883346558,bottle,bottle,8-3-10,0845_eid_s03_8-3-10_bottle_10_n02823428_8525.png
subject-03,1,846,1.20197486877441,cat,cat,1-3-10,0846_eid_s03_1-3-10_cat_10_n02123394_5700.png
subject-03,1,847,0.909847974777222,airplane,airplane,4-3-10,0847_eid_s03_4-3-10_airplane_10_n02690373_1996.png
subject-03,1,848,0.751717090606689,truck,truck,4-3-10,0848_eid_s03_4-3-10_truck_10_n03417042_17215.png
subject-03,1,849,1.21924018859863,bear,dog,64-3-10,0849_eid_s03_64-3-10_dog_10_n02111277_16090.png
subject-03,1,850,0.583317995071411,cat,car,128-3-10,0850_eid_s03_128-3-10_car_10_n04285008_4069.png
subject-03,1,851,0.76130223274231,car,car,8-3-10,0851_eid_s03_8-3-10_car_10_n04285008_2395.png
subject-03,1,852,1.04681706428528,keyboard,truck,128-3-10,0852_eid_s03_128-3-10_truck_10_n03417042_28078.png
subject-03,1,853,0.864775896072388,oven,oven,1-3-10,0853_eid_s03_1-3-10_oven_10_n04111531_21963.png
subject-03,1,854,0.628793001174927,clock,clock,2-3-10,0854_eid_s03_2-3-10_clock_10_n04548280_4583.png
subject-03,1,855,0.852261066436768,cat,oven,64-3-10,0855_eid_s03_64-3-10_oven_10_n04111531_3570.png
subject-03,1,856,0.882025957107544,car,car,1-3-10,0856_eid_s03_1-3-10_car_10_n03100240_2052.png
subject-03,1,857,0.936233043670654,bicycle,bicycle,2-3-10,0857_eid_s03_2-3-10_bicycle_10_n03792782_5665.png
subject-03,1,858,0.949663162231445,dog,bottle,128-3-10,0858_eid_s03_128-3-10_bottle_10_n03983396_18508.png
subject-03,1,859,0.753583908081055,bottle,bear,128-3-10,0859_eid_s03_128-3-10_bear_10_n02132136_30976.png
subject-03,1,860,0.699233055114746,boat,cat,64-3-10,0860_eid_s03_64-3-10_cat_10_n02125311_2869.png
subject-03,1,861,0.925154209136963,bird,bear,32-3-10,0861_eid_s03_32-3-10_bear_10_n02133161_628.png
subject-03,1,862,0.839188098907471,truck,chair,16-3-10,0862_eid_s03_16-3-10_chair_10_n04099969_3623.png
subject-03,1,863,0.806885957717896,elephant,keyboard,64-3-10,0863_eid_s03_64-3-10_keyboard_10_n03085013_26532.png
subject-03,1,864,0.890663862228394,car,car,4-3-10,0864_eid_s03_4-3-10_car_10_n03100240_13673.png
subject-03,1,865,0.892359972000122,bear,bear,128-3-10,0865_eid_s03_128-3-10_bear_10_n02133161_5708.png
subject-03,1,866,1.23628091812134,dog,elephant,16-3-10,0866_eid_s03_16-3-10_elephant_10_n02504013_5182.png
subject-03,1,867,0.829909086227417,bird,bird,1-3-10,0867_eid_s03_1-3-10_bird_10_n02033041_4140.png
subject-03,1,868,0.601814985275269,boat,boat,2-3-10,0868_eid_s03_2-3-10_boat_10_n02951358_8184.png
subject-03,1,869,0.747737884521484,bicycle,bicycle,4-3-10,0869_eid_s03_4-3-10_bicycle_10_n02835271_21464.png
subject-03,1,870,0.817378997802734,oven,oven,8-3-10,0870_eid_s03_8-3-10_oven_10_n04111531_8793.png
subject-03,1,871,0.909269094467163,dog,dog,4-3-10,0871_eid_s03_4-3-10_dog_10_n02093859_4797.png
subject-03,1,872,0.917200088500977,bear,bird,128-3-10,0872_eid_s03_128-3-10_bird_10_n02018207_6819.png
subject-03,1,873,1.03280091285706,cat,bicycle,128-3-10,0873_eid_s03_128-3-10_bicycle_10_n02835271_3941.png
subject-03,1,874,0.790966987609863,car,boat,128-3-10,0874_eid_s03_128-3-10_boat_10_n03344393_6352.png
subject-03,1,875,0.982388019561768,dog,clock,32-3-10,0875_eid_s03_32-3-10_clock_10_n02708093_3790.png
subject-03,1,876,1.13643503189087,cat,bicycle,16-3-10,0876_eid_s03_16-3-10_bicycle_10_n03792782_7963.png
subject-03,1,877,0.846269130706787,airplane,airplane,4-3-10,0877_eid_s03_4-3-10_airplane_10_n02690373_5992.png
subject-03,1,878,0.967910051345825,car,knife,32-3-10,0878_eid_s03_32-3-10_knife_10_n03041632_39883.png
subject-03,1,879,0.675642967224121,clock,clock,1-3-10,0879_eid_s03_1-3-10_clock_10_n04548280_18914.png
subject-03,1,880,0.761669158935547,bear,bear,64-3-10,0880_eid_s03_64-3-10_bear_10_n02134418_2964.png
subject-03,1,881,0.856376171112061,cat,boat,128-3-10,0881_eid_s03_128-3-10_boat_10_n04273569_229.png
subject-03,1,882,NaN,na,truck,64-3-10,0882_eid_s03_64-3-10_truck_10_n03417042_12297.png
subject-03,1,883,0.770243167877197,cat,truck,16-3-10,0883_eid_s03_16-3-10_truck_10_n03417042_17099.png
subject-03,1,884,1.01394081115723,keyboard,clock,8-3-10,0884_eid_s03_8-3-10_clock_10_n02708093_1975.png
subject-03,1,885,1.12558102607727,car,knife,64-3-10,0885_eid_s03_64-3-10_knife_10_n03041632_48071.png
subject-03,1,886,1.23954105377197,car,chair,8-3-10,0886_eid_s03_8-3-10_chair_10_n02791124_13704.png
subject-03,1,887,0.979494094848633,bottle,bottle,8-3-10,0887_eid_s03_8-3-10_bottle_10_n04591713_715.png
subject-03,1,888,0.811048030853271,airplane,airplane,2-3-10,0888_eid_s03_2-3-10_airplane_10_n02690373_4591.png
subject-03,1,889,0.686936140060425,bicycle,bicycle,2-3-10,0889_eid_s03_2-3-10_bicycle_10_n02835271_8654.png
subject-03,1,890,0.918871879577637,elephant,elephant,1-3-10,0890_eid_s03_1-3-10_elephant_10_n02504013_2984.png
subject-03,1,891,1.30265998840332,car,cat,16-3-10,0891_eid_s03_16-3-10_cat_10_n02123597_3921.png
subject-03,1,892,1.02832293510437,dog,elephant,128-3-10,0892_eid_s03_128-3-10_elephant_10_n02504458_12165.png
subject-03,1,893,0.800236225128174,knife,knife,2-3-10,0893_eid_s03_2-3-10_knife_10_n03041632_32048.png
subject-03,1,894,0.758209943771362,cat,bottle,64-3-10,0894_eid_s03_64-3-10_bottle_10_n04557648_3109.png
subject-03,1,895,1.48785591125488,knife,knife,2-3-10,0895_eid_s03_2-3-10_knife_10_n03041632_3079.png
subject-03,1,896,0.75751805305481,bear,truck,64-3-10,0896_eid_s03_64-3-10_truck_10_n04467665_64792.png
subject-03,1,897,0.681438207626343,car,car,8-3-10,0897_eid_s03_8-3-10_car_10_n02814533_3573.png
subject-03,1,898,0.889158010482788,truck,bottle,16-3-10,0898_eid_s03_16-3-10_bottle_10_n03983396_2746.png
subject-03,1,899,0.847382068634033,dog,dog,32-3-10,0899_eid_s03_32-3-10_dog_10_n02095889_1794.png
subject-03,1,900,0.8627610206604,bear,bird,32-3-10,0900_eid_s03_32-3-10_bird_10_n01531178_24471.png
subject-03,1,901,0.956579923629761,bicycle,elephant,1-3-10,0901_eid_s03_1-3-10_elephant_10_n02504013_23590.png
subject-03,1,902,1.00287294387817,oven,oven,1-3-10,0902_eid_s03_1-3-10_oven_10_n04111531_19274.png
subject-03,1,903,1.00048589706421,elephant,oven,32-3-10,0903_eid_s03_32-3-10_oven_10_n04111531_681.png
subject-03,1,904,1.02014899253845,keyboard,truck,128-3-10,0904_eid_s03_128-3-10_truck_10_n03796401_6923.png
subject-03,1,905,0.791965007781982,keyboard,clock,128-3-10,0905_eid_s03_128-3-10_clock_10_n04548280_4364.png
subject-03,1,906,1.03978800773621,oven,chair,8-3-10,0906_eid_s03_8-3-10_chair_10_n04429376_2591.png
subject-03,1,907,0.94765305519104,bird,airplane,32-3-10,0907_eid_s03_32-3-10_airplane_10_n02690373_5130.png
subject-03,1,908,0.801431179046631,truck,truck,1-3-10,0908_eid_s03_1-3-10_truck_10_n03417042_4900.png
subject-03,1,909,0.837162017822266,chair,chair,4-3-10,0909_eid_s03_4-3-10_chair_10_n04099969_2398.png
subject-03,1,910,0.760976076126099,cat,keyboard,32-3-10,0910_eid_s03_32-3-10_keyboard_10_n03085013_20284.png
subject-03,1,911,0.720821857452393,airplane,airplane,2-3-10,0911_eid_s03_2-3-10_airplane_10_n02690373_190.png
subject-03,1,912,0.866692066192627,bird,bird,1-3-10,0912_eid_s03_1-3-10_bird_10_n01855672_11580.png
subject-03,1,913,0.702553033828735,bottle,bottle,1-3-10,0913_eid_s03_1-3-10_bottle_10_n04560804_9169.png
subject-03,1,914,1.20820999145508,bear,bear,128-3-10,0914_eid_s03_128-3-10_bear_10_n02134084_635.png
subject-03,1,915,0.602047920227051,bottle,bottle,2-3-10,0915_eid_s03_2-3-10_bottle_10_n02823428_4068.png
subject-03,1,916,0.913733959197998,keyboard,car,128-3-10,0916_eid_s03_128-3-10_car_10_n03100240_688.png
subject-03,1,917,0.94200611114502,airplane,bicycle,8-3-10,0917_eid_s03_8-3-10_bicycle_10_n03792782_1288.png
subject-03,1,918,0.749639987945557,truck,truck,4-3-10,0918_eid_s03_4-3-10_truck_10_n03417042_6654.png
subject-03,1,919,0.927529096603394,car,truck,32-3-10,0919_eid_s03_32-3-10_truck_10_n04467665_4940.png
subject-03,1,920,0.809074878692627,truck,truck,1-3-10,0920_eid_s03_1-3-10_truck_10_n03796401_9642.png
subject-03,1,921,0.788974046707153,bird,bird,16-3-10,0921_eid_s03_16-3-10_bird_10_n02028035_2478.png
subject-03,1,922,0.856624841690063,bird,knife,128-3-10,0922_eid_s03_128-3-10_knife_10_n03041632_7119.png
subject-03,1,923,0.762574911117554,cat,car,64-3-10,0923_eid_s03_64-3-10_car_10_n02814533_10069.png
subject-03,1,924,0.988878011703491,airplane,bicycle,16-3-10,0924_eid_s03_16-3-10_bicycle_10_n02835271_12608.png
subject-03,1,925,0.822206020355225,dog,dog,2-3-10,0925_eid_s03_2-3-10_dog_10_n02090622_5368.png
subject-03,1,926,0.690138101577759,bear,keyboard,32-3-10,0926_eid_s03_32-3-10_keyboard_10_n04505470_5109.png
subject-03,1,927,0.671703100204468,boat,boat,8-3-10,0927_eid_s03_8-3-10_boat_10_n02951358_30908.png
subject-03,1,928,0.897439956665039,bicycle,bear,128-3-10,0928_eid_s03_128-3-10_bear_10_n02133161_13089.png
subject-03,1,929,0.911835908889771,airplane,airplane,1-3-10,0929_eid_s03_1-3-10_airplane_10_n02690373_6332.png
subject-03,1,930,0.781438112258911,bird,truck,32-3-10,0930_eid_s03_32-3-10_truck_10_n04467665_32937.png
subject-03,1,931,0.997071027755737,elephant,elephant,16-3-10,0931_eid_s03_16-3-10_elephant_10_n02504013_6904.png
subject-03,1,932,0.879342079162598,bear,bird,32-3-10,0932_eid_s03_32-3-10_bird_10_n02037110_10366.png
subject-03,1,933,0.672705173492432,cat,bicycle,32-3-10,0933_eid_s03_32-3-10_bicycle_10_n03792782_11597.png
subject-03,1,934,0.754453897476196,keyboard,keyboard,4-3-10,0934_eid_s03_4-3-10_keyboard_10_n04505470_7721.png
subject-03,1,935,0.826358079910278,oven,bear,64-3-10,0935_eid_s03_64-3-10_bear_10_n02134418_14850.png
subject-03,1,936,0.666223049163818,bear,bear,2-3-10,0936_eid_s03_2-3-10_bear_10_n02132136_8011.png
subject-03,1,937,0.843945026397705,bear,bottle,128-3-10,0937_eid_s03_128-3-10_bottle_10_n03983396_5148.png
subject-03,1,938,0.702164888381958,oven,cat,64-3-10,0938_eid_s03_64-3-10_cat_10_n02125311_8090.png
subject-03,1,939,1.01167702674866,keyboard,oven,2-3-10,0939_eid_s03_2-3-10_oven_10_n04111531_8269.png
subject-03,1,940,0.751311063766479,car,car,8-3-10,0940_eid_s03_8-3-10_car_10_n04285008_11600.png
subject-03,1,941,0.879029035568237,boat,truck,8-3-10,0941_eid_s03_8-3-10_truck_10_n04467665_80629.png
subject-03,1,942,0.673008918762207,boat,boat,2-3-10,0942_eid_s03_2-3-10_boat_10_n03662601_23315.png
subject-03,1,943,0.695033073425293,airplane,airplane,1-3-10,0943_eid_s03_1-3-10_airplane_10_n02690373_10404.png
subject-03,1,944,0.934537172317505,knife,knife,4-3-10,0944_eid_s03_4-3-10_knife_10_n03041632_126.png
subject-03,1,945,1.02442717552185,elephant,elephant,4-3-10,0945_eid_s03_4-3-10_elephant_10_n02504458_4725.png
subject-03,1,946,0.786288022994995,cat,cat,64-3-10,0946_eid_s03_64-3-10_cat_10_n02123597_13835.png
subject-03,1,947,0.715969085693359,cat,cat,1-3-10,0947_eid_s03_1-3-10_cat_10_n02123045_5387.png
subject-03,1,948,0.747972011566162,cat,truck,16-3-10,0948_eid_s03_16-3-10_truck_10_n04467665_8189.png
subject-03,1,949,0.985803842544556,bird,boat,16-3-10,0949_eid_s03_16-3-10_boat_10_n02951358_9103.png
subject-03,1,950,0.965480089187622,car,car,16-3-10,0950_eid_s03_16-3-10_car_10_n02814533_32337.png
subject-03,1,951,0.721343994140625,car,airplane,128-3-10,0951_eid_s03_128-3-10_airplane_10_n02690373_2131.png
subject-03,1,952,1.05324506759644,dog,dog,1-3-10,0952_eid_s03_1-3-10_dog_10_n02110958_1526.png
subject-03,1,953,0.728905200958252,bear,dog,64-3-10,0953_eid_s03_64-3-10_dog_10_n02092002_6122.png
subject-03,1,954,0.866940975189209,bear,keyboard,32-3-10,0954_eid_s03_32-3-10_keyboard_10_n04505470_7335.png
subject-03,1,955,0.996653079986572,bottle,chair,2-3-10,0955_eid_s03_2-3-10_chair_10_n04429376_6496.png
subject-03,1,956,0.954494953155518,bicycle,chair,16-3-10,0956_eid_s03_16-3-10_chair_10_n02791124_206.png
subject-03,1,957,0.986358880996704,cat,airplane,16-3-10,0957_eid_s03_16-3-10_airplane_10_n02690373_20042.png
subject-03,1,958,0.804041147232056,bottle,bottle,2-3-10,0958_eid_s03_2-3-10_bottle_10_n04579145_215.png
subject-03,1,959,1.01380085945129,car,boat,16-3-10,0959_eid_s03_16-3-10_boat_10_n02951358_1360.png
subject-03,1,960,0.729527950286865,knife,knife,4-3-10,0960_eid_s03_4-3-10_knife_10_n03041632_4443.png
subject-03,1,961,0.952919960021973,oven,bird,128-3-10,0961_eid_s03_128-3-10_bird_10_n01798484_7213.png
subject-03,1,962,0.986446857452393,oven,chair,4-3-10,0962_eid_s03_4-3-10_chair_10_n02791124_7987.png
subject-03,1,963,0.75618314743042,bear,bottle,64-3-10,0963_eid_s03_64-3-10_bottle_10_n04591713_6961.png
subject-03,1,964,0.683954000473022,bird,bird,4-3-10,0964_eid_s03_4-3-10_bird_10_n01531178_13010.png
subject-03,1,965,0.749971151351929,airplane,airplane,4-3-10,0965_eid_s03_4-3-10_airplane_10_n02690373_5869.png
subject-03,1,966,1.03776502609253,dog,dog,4-3-10,0966_eid_s03_4-3-10_dog_10_n02097658_1775.png
subject-03,1,967,0.671515941619873,keyboard,keyboard,8-3-10,0967_eid_s03_8-3-10_keyboard_10_n04505470_5125.png
subject-03,1,968,0.659202098846436,cat,cat,16-3-10,0968_eid_s03_16-3-10_cat_10_n02123394_3322.png
subject-03,1,969,0.783276796340942,car,car,8-3-10,0969_eid_s03_8-3-10_car_10_n04285008_13094.png
subject-03,1,970,0.766950130462646,bear,keyboard,128-3-10,0970_eid_s03_128-3-10_keyboard_10_n04505470_4467.png
subject-03,1,971,0.750571012496948,knife,knife,16-3-10,0971_eid_s03_16-3-10_knife_10_n03041632_42185.png
subject-03,1,972,0.936531066894531,knife,knife,1-3-10,0972_eid_s03_1-3-10_knife_10_n03041632_36247.png
