subj,Session,trial,rt,object_response,category,condition,imagename
subject-02,1,1,0.838385105133057,cat,bottle,16-3-10,0001_eid_s02_16-3-10_bottle_10_n04557648_4470.png
subject-02,1,2,0.868145942687988,cat,clock,128-3-10,0002_eid_s02_128-3-10_clock_10_n03196217_5137.png
subject-02,1,3,0.607935905456543,bicycle,bicycle,2-3-10,0003_eid_s02_2-3-10_bicycle_10_n02835271_8060.png
subject-02,1,4,0.69973611831665,bicycle,bicycle,1-3-10,0004_eid_s02_1-3-10_bicycle_10_n02835271_4409.png
subject-02,1,5,0.643670082092285,airplane,airplane,2-3-10,0005_eid_s02_2-3-10_airplane_10_n02690373_4024.png
subject-02,1,6,0.819384098052979,cat,oven,16-3-10,0006_eid_s02_16-3-10_oven_10_n04111531_23668.png
subject-02,1,7,0.621267080307007,clock,clock,8-3-10,0007_eid_s02_8-3-10_clock_10_n04548280_6477.png
subject-02,1,8,0.81524395942688,oven,oven,2-3-10,0008_eid_s02_2-3-10_oven_10_n04111531_4146.png
subject-02,1,9,0.88082480430603,boat,car,32-3-10,0009_eid_s02_32-3-10_car_10_n03100240_5946.png
subject-02,1,10,0.852898836135864,car,knife,128-3-10,0010_eid_s02_128-3-10_knife_10_n03041632_3247.png
subject-02,1,11,0.890332221984863,clock,clock,2-3-10,0011_eid_s02_2-3-10_clock_10_n04548280_9533.png
subject-02,1,12,1.24022603034973,chair,chair,1-3-10,0012_eid_s02_1-3-10_chair_10_n04429376_294.png
subject-02,1,13,NaN,na,airplane,128-3-10,0013_eid_s02_128-3-10_airplane_10_n02690373_4943.png
subject-02,1,14,0.755710124969482,oven,elephant,32-3-10,0014_eid_s02_32-3-10_elephant_10_n02504458_12191.png
subject-02,1,15,0.887728929519653,cat,cat,2-3-10,0015_eid_s02_2-3-10_cat_10_n02124075_13278.png
subject-02,1,16,1.06348896026611,knife,clock,128-3-10,0016_eid_s02_128-3-10_clock_10_n04548280_4364.png
subject-02,1,17,1.42155289649963,elephant,elephant,8-3-10,0017_eid_s02_8-3-10_elephant_10_n02504013_5641.png
subject-02,1,18,0.981491088867188,car,car,8-3-10,0018_eid_s02_8-3-10_car_10_n03100240_327.png
subject-02,1,19,0.816993951797485,boat,bicycle,128-3-10,0019_eid_s02_128-3-10_bicycle_10_n03792782_5494.png
subject-02,1,20,0.742595195770264,bear,airplane,32-3-10,0020_eid_s02_32-3-10_airplane_10_n02690373_10817.png
subject-02,1,21,1.14653301239014,dog,dog,4-3-10,0021_eid_s02_4-3-10_dog_10_n02093859_4797.png
subject-02,1,22,1.34033823013306,chair,chair,1-3-10,0022_eid_s02_1-3-10_chair_10_n02791124_8788.png
subject-02,1,23,1.28014707565308,airplane,airplane,16-3-10,0023_eid_s02_16-3-10_airplane_10_n02690373_1038.png
subject-02,1,24,1.05833697319031,keyboard,oven,64-3-10,0024_eid_s02_64-3-10_oven_10_n04111531_9910.png
subject-02,1,25,0.811918020248413,clock,clock,1-3-10,0025_eid_s02_1-3-10_clock_10_n04548280_3318.png
subject-02,1,26,0.825628042221069,oven,elephant,128-3-10,0026_eid_s02_128-3-10_elephant_10_n02504458_6696.png
subject-02,1,27,1.41748094558716,elephant,truck,1-3-10,0027_eid_s02_1-3-10_truck_10_n03796401_3488.png
subject-02,1,28,0.733222961425781,airplane,airplane,1-3-10,0028_eid_s02_1-3-10_airplane_10_n02690373_6332.png
subject-02,1,29,1.10716605186462,dog,chair,16-3-10,0029_eid_s02_16-3-10_chair_10_n02791124_12486.png
subject-02,1,30,1.50001192092896,airplane,bird,8-3-10,0030_eid_s02_8-3-10_bird_10_n02028035_7406.png
subject-02,1,31,1.09485602378845,boat,airplane,16-3-10,0031_eid_s02_16-3-10_airplane_10_n02690373_7279.png
subject-02,1,32,0.934571027755737,elephant,elephant,8-3-10,0032_eid_s02_8-3-10_elephant_10_n02504013_812.png
subject-02,1,33,1.46068215370178,airplane,car,8-3-10,0033_eid_s02_8-3-10_car_10_n04285008_6454.png
subject-02,1,34,0.864255905151367,bear,dog,32-3-10,0034_eid_s02_32-3-10_dog_10_n02108422_577.png
subject-02,1,35,1.39989018440247,boat,boat,4-3-10,0035_eid_s02_4-3-10_boat_10_n03662601_4619.png
subject-02,1,36,0.981756925582886,bottle,bottle,2-3-10,0036_eid_s02_2-3-10_bottle_10_n02823428_4068.png
subject-02,1,37,0.807614088058472,oven,bird,128-3-10,0037_eid_s02_128-3-10_bird_10_n01819313_3195.png
subject-02,1,38,1.01565599441528,elephant,elephant,1-3-10,0038_eid_s02_1-3-10_elephant_10_n02504458_7506.png
subject-02,1,39,1.05308389663696,bear,oven,32-3-10,0039_eid_s02_32-3-10_oven_10_n04111531_17917.png
subject-02,1,40,1.01110100746155,clock,bear,8-3-10,0040_eid_s02_8-3-10_bear_10_n02134084_4593.png
subject-02,1,41,0.842697858810425,bicycle,boat,32-3-10,0041_eid_s02_32-3-10_boat_10_n03662601_23409.png
subject-02,1,42,0.988907098770142,chair,chair,1-3-10,0042_eid_s02_1-3-10_chair_10_n03376595_8252.png
subject-02,1,43,0.956406116485596,chair,truck,8-3-10,0043_eid_s02_8-3-10_truck_10_n03417042_4016.png
subject-02,1,44,0.868228912353516,cat,keyboard,8-3-10,0044_eid_s02_8-3-10_keyboard_10_n03085013_23254.png
subject-02,1,45,1.01198697090149,boat,oven,32-3-10,0045_eid_s02_32-3-10_oven_10_n04111531_14325.png
subject-02,1,46,1.3897819519043,dog,bear,8-3-10,0046_eid_s02_8-3-10_bear_10_n02133161_13556.png
subject-02,1,47,1.50011897087097,cat,bicycle,2-3-10,0047_eid_s02_2-3-10_bicycle_10_n02835271_14879.png
subject-02,1,48,1.15144610404968,elephant,bicycle,16-3-10,0048_eid_s02_16-3-10_bicycle_10_n03792782_7963.png
subject-02,1,49,0.717509031295776,cat,dog,8-3-10,0049_eid_s02_8-3-10_dog_10_n02113624_8833.png
subject-02,1,50,0.737084865570068,oven,bicycle,128-3-10,0050_eid_s02_128-3-10_bicycle_10_n02835271_15028.png
subject-02,1,51,1.10089898109436,cat,bicycle,32-3-10,0051_eid_s02_32-3-10_bicycle_10_n02835271_12025.png
subject-02,1,52,0.714679956436157,clock,truck,16-3-10,0052_eid_s02_16-3-10_truck_10_n04467665_3038.png
subject-02,1,53,0.932596921920776,cat,elephant,16-3-10,0053_eid_s02_16-3-10_elephant_10_n02504013_10990.png
subject-02,1,54,0.798457860946655,bicycle,bicycle,2-3-10,0054_eid_s02_2-3-10_bicycle_10_n03792782_5665.png
subject-02,1,55,0.906268119812012,elephant,elephant,1-3-10,0055_eid_s02_1-3-10_elephant_10_n02504458_6888.png
subject-02,1,56,0.896149873733521,knife,bottle,32-3-10,0056_eid_s02_32-3-10_bottle_10_n03937543_5324.png
subject-02,1,57,1.50003004074097,bicycle,bicycle,16-3-10,0057_eid_s02_16-3-10_bicycle_10_n02835271_1499.png
subject-02,1,58,1.06000900268555,car,car,2-3-10,0058_eid_s02_2-3-10_car_10_n02814533_65093.png
subject-02,1,59,0.861447095870972,knife,knife,2-3-10,0059_eid_s02_2-3-10_knife_10_n03041632_79317.png
subject-02,1,60,1.42144417762756,dog,dog,8-3-10,0060_eid_s02_8-3-10_dog_10_n02087394_239.png
subject-02,1,61,0.96503210067749,cat,cat,8-3-10,0061_eid_s02_8-3-10_cat_10_n02123045_12657.png
subject-02,1,62,0.985189914703369,dog,oven,8-3-10,0062_eid_s02_8-3-10_oven_10_n04111531_7667.png
subject-02,1,63,1.26247096061707,bicycle,knife,8-3-10,0063_eid_s02_8-3-10_knife_10_n03041632_24114.png
subject-02,1,64,0.782517194747925,cat,dog,32-3-10,0064_eid_s02_32-3-10_dog_10_n02107574_5583.png
subject-02,1,65,0.930212020874023,bear,airplane,128-3-10,0065_eid_s02_128-3-10_airplane_10_n02690373_9312.png
subject-02,1,66,0.857997894287109,boat,car,128-3-10,0066_eid_s02_128-3-10_car_10_n03100240_7219.png
subject-02,1,67,1.06635189056396,elephant,car,16-3-10,0067_eid_s02_16-3-10_car_10_n04285008_7909.png
subject-02,1,68,0.857582092285156,boat,boat,1-3-10,0068_eid_s02_1-3-10_boat_10_n03662601_26396.png
subject-02,1,69,0.785431146621704,keyboard,keyboard,2-3-10,0069_eid_s02_2-3-10_keyboard_10_n03085013_7152.png
subject-02,1,70,1.02528786659241,airplane,airplane,4-3-10,0070_eid_s02_4-3-10_airplane_10_n02690373_9605.png
subject-02,1,71,0.951030969619751,bear,bear,64-3-10,0071_eid_s02_64-3-10_bear_10_n02134418_2964.png
subject-02,1,72,0.877121925354004,car,car,1-3-10,0072_eid_s02_1-3-10_car_10_n04285008_11240.png
subject-02,1,73,0.717026948928833,oven,oven,1-3-10,0073_eid_s02_1-3-10_oven_10_n04111531_18916.png
subject-02,1,74,0.926607847213745,cat,airplane,128-3-10,0074_eid_s02_128-3-10_airplane_10_n02690373_2131.png
subject-02,1,75,0.828367948532104,boat,car,128-3-10,0075_eid_s02_128-3-10_car_10_n03100240_6552.png
subject-02,1,76,0.904561996459961,truck,clock,128-3-10,0076_eid_s02_128-3-10_clock_10_n02708093_906.png
subject-02,1,77,0.893995046615601,bottle,chair,2-3-10,0077_eid_s02_2-3-10_chair_10_n02791124_3222.png
subject-02,1,78,1.25785398483276,knife,knife,16-3-10,0078_eid_s02_16-3-10_knife_10_n03041632_32785.png
subject-02,1,79,1.11364603042603,clock,bird,128-3-10,0079_eid_s02_128-3-10_bird_10_n02018207_6819.png
subject-02,1,80,0.851583957672119,truck,bottle,128-3-10,0080_eid_s02_128-3-10_bottle_10_n03983396_18508.png
subject-02,1,81,0.783999919891357,bicycle,bicycle,1-3-10,0081_eid_s02_1-3-10_bicycle_10_n03792782_32379.png
subject-02,1,82,NaN,na,bear,2-3-10,0082_eid_s02_2-3-10_bear_10_n02133161_7332.png
subject-02,1,83,1.45154500007629,elephant,bottle,64-3-10,0083_eid_s02_64-3-10_bottle_10_n02823428_6793.png
subject-02,1,84,1.01760697364807,boat,chair,128-3-10,0084_eid_s02_128-3-10_chair_10_n02791124_3198.png
subject-02,1,85,1.28115487098694,elephant,elephant,32-3-10,0085_eid_s02_32-3-10_elephant_10_n02504458_6398.png
subject-02,1,86,0.862868070602417,airplane,airplane,2-3-10,0086_eid_s02_2-3-10_airplane_10_n02690373_9762.png
subject-02,1,87,0.868734121322632,bear,elephant,64-3-10,0087_eid_s02_64-3-10_elephant_10_n02504013_4183.png
subject-02,1,88,0.918731927871704,cat,truck,128-3-10,0088_eid_s02_128-3-10_truck_10_n03417042_13871.png
subject-02,1,89,1.23846292495728,dog,cat,32-3-10,0089_eid_s02_32-3-10_cat_10_n02123597_10214.png
subject-02,1,90,0.916116952896118,bear,truck,128-3-10,0090_eid_s02_128-3-10_truck_10_n03417042_28078.png
subject-02,1,91,0.959995031356812,cat,bird,32-3-10,0091_eid_s02_32-3-10_bird_10_n02002724_1235.png
subject-02,1,92,0.733721017837524,boat,clock,32-3-10,0092_eid_s02_32-3-10_clock_10_n03196217_6357.png
subject-02,1,93,0.739686012268066,cat,dog,64-3-10,0093_eid_s02_64-3-10_dog_10_n02101388_438.png
subject-02,1,94,0.791548013687134,airplane,airplane,4-3-10,0094_eid_s02_4-3-10_airplane_10_n02690373_5869.png
subject-02,1,95,0.845304012298584,airplane,airplane,4-3-10,0095_eid_s02_4-3-10_airplane_10_n02690373_1996.png
subject-02,1,96,1.03692221641541,elephant,bear,8-3-10,0096_eid_s02_8-3-10_bear_10_n02132136_1694.png
subject-02,1,97,1.08272814750671,cat,keyboard,128-3-10,0097_eid_s02_128-3-10_keyboard_10_n03085013_7286.png
subject-02,1,98,0.69464898109436,cat,truck,32-3-10,0098_eid_s02_32-3-10_truck_10_n03417042_18374.png
subject-02,1,99,0.738417863845825,cat,boat,128-3-10,0099_eid_s02_128-3-10_boat_10_n02951358_4810.png
subject-02,1,100,1.33849096298218,truck,truck,2-3-10,0100_eid_s02_2-3-10_truck_10_n04467665_68785.png
subject-02,1,101,0.720478057861328,cat,chair,32-3-10,0101_eid_s02_32-3-10_chair_10_n03376595_3912.png
subject-02,1,102,0.646036148071289,cat,clock,32-3-10,0102_eid_s02_32-3-10_clock_10_n03196217_2805.png
subject-02,1,103,0.917744874954224,bicycle,bicycle,4-3-10,0103_eid_s02_4-3-10_bicycle_10_n02835271_8618.png
subject-02,1,104,0.879843950271606,airplane,airplane,1-3-10,0104_eid_s02_1-3-10_airplane_10_n02690373_10404.png
subject-02,1,105,0.877462148666382,boat,bicycle,128-3-10,0105_eid_s02_128-3-10_bicycle_10_n03792782_70724.png
subject-02,1,106,1.21116018295288,car,boat,2-3-10,0106_eid_s02_2-3-10_boat_10_n03344393_10038.png
subject-02,1,107,0.74888801574707,boat,boat,32-3-10,0107_eid_s02_32-3-10_boat_10_n04273569_4087.png
subject-02,1,108,0.909043073654175,dog,bottle,16-3-10,0108_eid_s02_16-3-10_bottle_10_n02823428_12643.png
subject-02,1,109,0.71260404586792,cat,cat,32-3-10,0109_eid_s02_32-3-10_cat_10_n02123045_4089.png
subject-02,1,110,0.732793092727661,bird,clock,16-3-10,0110_eid_s02_16-3-10_clock_10_n03196217_6185.png
subject-02,1,111,1.08826398849487,bottle,chair,2-3-10,0111_eid_s02_2-3-10_chair_10_n03376595_13949.png
subject-02,1,112,1.01415205001831,dog,truck,32-3-10,0112_eid_s02_32-3-10_truck_10_n04467665_37953.png
subject-02,1,113,0.966238975524902,oven,oven,2-3-10,0113_eid_s02_2-3-10_oven_10_n04111531_550.png
subject-02,1,114,0.713601112365723,clock,clock,2-3-10,0114_eid_s02_2-3-10_clock_10_n04548280_4583.png
subject-02,1,115,0.93976902961731,car,keyboard,128-3-10,0115_eid_s02_128-3-10_keyboard_10_n04505470_54.png
subject-02,1,116,0.659581899642944,cat,truck,64-3-10,0116_eid_s02_64-3-10_truck_10_n04467665_21266.png
subject-02,1,117,0.773092031478882,elephant,clock,64-3-10,0117_eid_s02_64-3-10_clock_10_n03196217_1000.png
subject-02,1,118,0.943116903305054,bird,keyboard,16-3-10,0118_eid_s02_16-3-10_keyboard_10_n03085013_2166.png
subject-02,1,119,0.846723794937134,bird,truck,64-3-10,0119_eid_s02_64-3-10_truck_10_n03417042_4934.png
subject-02,1,120,0.732534170150757,elephant,elephant,1-3-10,0120_eid_s02_1-3-10_elephant_10_n02504013_565.png
subject-02,1,121,0.862740039825439,car,car,1-3-10,0121_eid_s02_1-3-10_car_10_n04285008_11291.png
subject-02,1,122,1.04610109329224,bird,bird,4-3-10,0122_eid_s02_4-3-10_bird_10_n01560419_8247.png
subject-02,1,123,0.628221035003662,keyboard,keyboard,1-3-10,0123_eid_s02_1-3-10_keyboard_10_n03085013_2594.png
subject-02,1,124,0.899780988693237,bicycle,bicycle,4-3-10,0124_eid_s02_4-3-10_bicycle_10_n03792782_16212.png
subject-02,1,125,0.747570037841797,bicycle,bicycle,8-3-10,0125_eid_s02_8-3-10_bicycle_10_n02835271_3466.png
subject-02,1,126,0.877261877059937,keyboard,truck,64-3-10,0126_eid_s02_64-3-10_truck_10_n03417042_27581.png
subject-02,1,127,0.773473978042603,cat,keyboard,64-3-10,0127_eid_s02_64-3-10_keyboard_10_n03085013_24668.png
subject-02,1,128,0.938938856124878,keyboard,keyboard,64-3-10,0128_eid_s02_64-3-10_keyboard_10_n03085013_3098.png
subject-02,1,129,1.07093906402588,bicycle,bicycle,8-3-10,0129_eid_s02_8-3-10_bicycle_10_n03792782_11609.png
subject-02,1,130,0.932559967041016,dog,dog,8-3-10,0130_eid_s02_8-3-10_dog_10_n02096294_5781.png
subject-02,1,131,1.08636093139648,bird,car,16-3-10,0131_eid_s02_16-3-10_car_10_n03100240_8012.png
subject-02,1,132,1.02235698699951,keyboard,boat,64-3-10,0132_eid_s02_64-3-10_boat_10_n04612504_5535.png
subject-02,1,133,0.980377197265625,chair,oven,16-3-10,0133_eid_s02_16-3-10_oven_10_n04111531_2091.png
subject-02,1,134,0.969978094100952,car,car,2-3-10,0134_eid_s02_2-3-10_car_10_n02814533_61501.png
subject-02,1,135,0.739790916442871,clock,bear,64-3-10,0135_eid_s02_64-3-10_bear_10_n02133161_6946.png
subject-02,1,136,1.0414080619812,bird,oven,16-3-10,0136_eid_s02_16-3-10_oven_10_n04111531_1298.png
subject-02,1,137,0.575394153594971,cat,cat,2-3-10,0137_eid_s02_2-3-10_cat_10_n02123045_2721.png
subject-02,1,138,0.837567090988159,boat,elephant,16-3-10,0138_eid_s02_16-3-10_elephant_10_n02504013_5182.png
subject-02,1,139,1.22107100486755,bicycle,airplane,128-3-10,0139_eid_s02_128-3-10_airplane_10_n02690373_9531.png
subject-02,1,140,0.810716152191162,clock,dog,16-3-10,0140_eid_s02_16-3-10_dog_10_n02101388_2177.png
subject-02,1,141,1.06654405593872,airplane,boat,16-3-10,0141_eid_s02_16-3-10_boat_10_n03344393_9712.png
subject-02,1,142,1.2367308139801,bicycle,boat,128-3-10,0142_eid_s02_128-3-10_boat_10_n04273569_229.png
subject-02,1,143,0.870370864868164,boat,airplane,8-3-10,0143_eid_s02_8-3-10_airplane_10_n02690373_5221.png
subject-02,1,144,1.17210102081299,knife,dog,1-3-10,0144_eid_s02_1-3-10_dog_10_n02111129_4423.png
subject-02,1,145,0.745787858963013,keyboard,keyboard,8-3-10,0145_eid_s02_8-3-10_keyboard_10_n04505470_5125.png
subject-02,1,146,1.42556595802307,airplane,bicycle,1-3-10,0146_eid_s02_1-3-10_bicycle_10_n03792782_6716.png
subject-02,1,147,1.09547400474548,car,dog,32-3-10,0147_eid_s02_32-3-10_dog_10_n02095889_1794.png
subject-02,1,148,0.731394052505493,cat,bird,64-3-10,0148_eid_s02_64-3-10_bird_10_n01601694_935.png
subject-02,1,149,0.846982002258301,cat,dog,16-3-10,0149_eid_s02_16-3-10_dog_10_n02099267_2379.png
subject-02,1,150,0.640887022018433,cat,knife,64-3-10,0150_eid_s02_64-3-10_knife_10_n03041632_13194.png
subject-02,1,151,1.50013303756714,elephant,boat,8-3-10,0151_eid_s02_8-3-10_boat_10_n03344393_7557.png
subject-02,1,152,0.824631929397583,knife,knife,2-3-10,0152_eid_s02_2-3-10_knife_10_n03041632_43289.png
subject-02,1,153,1.28226709365845,cat,bird,32-3-10,0153_eid_s02_32-3-10_bird_10_n01795545_17639.png
subject-02,1,154,0.660068988800049,cat,cat,1-3-10,0154_eid_s02_1-3-10_cat_10_n02123159_3536.png
subject-02,1,155,1.08799386024475,elephant,knife,32-3-10,0155_eid_s02_32-3-10_knife_10_n03041632_27963.png
subject-02,1,156,0.727750062942505,bear,car,32-3-10,0156_eid_s02_32-3-10_car_10_n04285008_8363.png
subject-02,1,157,0.819510936737061,bear,bird,16-3-10,0157_eid_s02_16-3-10_bird_10_n01582220_32464.png
subject-02,1,158,0.965569019317627,airplane,elephant,128-3-10,0158_eid_s02_128-3-10_elephant_10_n02504458_2068.png
subject-02,1,159,0.915507078170776,dog,dog,4-3-10,0159_eid_s02_4-3-10_dog_10_n02088364_10195.png
subject-02,1,160,0.685259103775024,cat,cat,2-3-10,0160_eid_s02_2-3-10_cat_10_n02123394_2553.png
subject-02,1,161,0.69914984703064,cat,cat,64-3-10,0161_eid_s02_64-3-10_cat_10_n02123597_13835.png
subject-02,1,162,0.970705986022949,keyboard,cat,128-3-10,0162_eid_s02_128-3-10_cat_10_n02125311_2622.png
subject-02,1,163,1.13022899627686,elephant,car,16-3-10,0163_eid_s02_16-3-10_car_10_n02814533_32337.png
subject-02,1,164,1.12823295593262,car,truck,1-3-10,0164_eid_s02_1-3-10_truck_10_n03796401_9642.png
subject-02,1,165,0.999911069869995,bear,car,32-3-10,0165_eid_s02_32-3-10_car_10_n04285008_15570.png
subject-02,1,166,0.72382116317749,cat,dog,128-3-10,0166_eid_s02_128-3-10_dog_10_n02088094_4195.png
subject-02,1,167,1.12015509605408,airplane,boat,128-3-10,0167_eid_s02_128-3-10_boat_10_n02951358_34418.png
subject-02,1,168,1.20976495742798,oven,oven,8-3-10,0168_eid_s02_8-3-10_oven_10_n04111531_11848.png
subject-02,1,169,0.923194169998169,chair,airplane,64-3-10,0169_eid_s02_64-3-10_airplane_10_n02690373_2078.png
subject-02,1,170,1.33503103256226,bicycle,dog,4-3-10,0170_eid_s02_4-3-10_dog_10_n02098105_2333.png
subject-02,1,171,1.15869283676147,cat,dog,16-3-10,0171_eid_s02_16-3-10_dog_10_n02111129_1065.png
subject-02,1,172,0.692614078521729,bicycle,bicycle,2-3-10,0172_eid_s02_2-3-10_bicycle_10_n02835271_14846.png
subject-02,1,173,0.722670078277588,cat,bird,64-3-10,0173_eid_s02_64-3-10_bird_10_n01843383_4667.png
subject-02,1,174,0.798534870147705,cat,cat,16-3-10,0174_eid_s02_16-3-10_cat_10_n02123045_9465.png
subject-02,1,175,0.808257818222046,bird,oven,128-3-10,0175_eid_s02_128-3-10_oven_10_n04111531_4868.png
subject-02,1,176,1.16392993927002,elephant,elephant,16-3-10,0176_eid_s02_16-3-10_elephant_10_n02504458_98.png
subject-02,1,177,0.843692064285278,bottle,bottle,1-3-10,0177_eid_s02_1-3-10_bottle_10_n04557648_4133.png
subject-02,1,178,0.737549781799316,cat,keyboard,64-3-10,0178_eid_s02_64-3-10_keyboard_10_n03085013_23828.png
subject-02,1,179,1.05548501014709,airplane,airplane,1-3-10,0179_eid_s02_1-3-10_airplane_10_n02690373_1325.png
subject-02,1,180,0.763046979904175,cat,bicycle,64-3-10,0180_eid_s02_64-3-10_bicycle_10_n03792782_16443.png
subject-02,1,181,0.830989122390747,dog,dog,2-3-10,0181_eid_s02_2-3-10_dog_10_n02091635_7254.png
subject-02,1,182,0.899266958236694,boat,boat,4-3-10,0182_eid_s02_4-3-10_boat_10_n04612504_7566.png
subject-02,1,183,0.786556005477905,bear,clock,32-3-10,0183_eid_s02_32-3-10_clock_10_n03196217_2859.png
subject-02,1,184,0.908392190933228,elephant,truck,16-3-10,0184_eid_s02_16-3-10_truck_10_n03796401_8523.png
subject-02,1,185,1.03023099899292,dog,boat,16-3-10,0185_eid_s02_16-3-10_boat_10_n03344393_8022.png
subject-02,1,186,NaN,na,bear,2-3-10,0186_eid_s02_2-3-10_bear_10_n02133161_2456.png
subject-02,1,187,0.747961044311523,cat,elephant,64-3-10,0187_eid_s02_64-3-10_elephant_10_n02504458_6130.png
subject-02,1,188,1.33152008056641,knife,knife,2-3-10,0188_eid_s02_2-3-10_knife_10_n03041632_91582.png
subject-02,1,189,0.819466829299927,bird,bird,4-3-10,0189_eid_s02_4-3-10_bird_10_n02056570_4807.png
subject-02,1,190,0.957353830337524,knife,knife,1-3-10,0190_eid_s02_1-3-10_knife_10_n03041632_9635.png
subject-02,1,191,0.93103814125061,bear,dog,128-3-10,0191_eid_s02_128-3-10_dog_10_n02095570_601.png
subject-02,1,192,0.849079132080078,clock,keyboard,32-3-10,0192_eid_s02_32-3-10_keyboard_10_n04505470_524.png
subject-02,1,193,0.764589071273804,cat,knife,64-3-10,0193_eid_s02_64-3-10_knife_10_n03041632_28129.png
subject-02,1,194,0.934540987014771,truck,boat,128-3-10,0194_eid_s02_128-3-10_boat_10_n04612504_804.png
subject-02,1,195,0.862246990203857,elephant,elephant,8-3-10,0195_eid_s02_8-3-10_elephant_10_n02504013_848.png
subject-02,1,196,0.754611968994141,car,knife,32-3-10,0196_eid_s02_32-3-10_knife_10_n03041632_23736.png
subject-02,1,197,0.811896085739136,truck,knife,64-3-10,0197_eid_s02_64-3-10_knife_10_n03041632_22241.png
subject-02,1,198,1.21764993667603,bird,bear,4-3-10,0198_eid_s02_4-3-10_bear_10_n02134084_23382.png
subject-02,1,199,0.721463203430176,bear,dog,128-3-10,0199_eid_s02_128-3-10_dog_10_n02086240_11622.png
subject-02,1,200,0.835241079330444,clock,keyboard,32-3-10,0200_eid_s02_32-3-10_keyboard_10_n03085013_24416.png
subject-02,1,201,1.15354490280151,dog,dog,1-3-10,0201_eid_s02_1-3-10_dog_10_n02091134_5848.png
subject-02,1,202,1.14310503005981,airplane,oven,128-3-10,0202_eid_s02_128-3-10_oven_10_n04111531_986.png
subject-02,1,203,1.21889185905457,bottle,bottle,2-3-10,0203_eid_s02_2-3-10_bottle_10_n03983396_754.png
subject-02,1,204,0.81292200088501,bicycle,bicycle,4-3-10,0204_eid_s02_4-3-10_bicycle_10_n02835271_1487.png
subject-02,1,205,1.40451502799988,bird,bird,8-3-10,0205_eid_s02_8-3-10_bird_10_n01614925_47.png
subject-02,1,206,0.838370084762573,cat,bear,64-3-10,0206_eid_s02_64-3-10_bear_10_n02134084_34375.png
subject-02,1,207,0.780210018157959,boat,clock,128-3-10,0207_eid_s02_128-3-10_clock_10_n04548280_1535.png
subject-02,1,208,0.705871105194092,boat,car,16-3-10,0208_eid_s02_16-3-10_car_10_n02814533_96407.png
subject-02,1,209,0.733813047409058,boat,chair,64-3-10,0209_eid_s02_64-3-10_chair_10_n04099969_34351.png
subject-02,1,210,0.763603925704956,car,car,8-3-10,0210_eid_s02_8-3-10_car_10_n04285008_17059.png
subject-02,1,211,0.905372142791748,boat,boat,1-3-10,0211_eid_s02_1-3-10_boat_10_n03662601_273.png
subject-02,1,212,1.15321207046509,keyboard,keyboard,4-3-10,0212_eid_s02_4-3-10_keyboard_10_n03085013_5819.png
subject-02,1,213,0.820985078811646,bicycle,bicycle,8-3-10,0213_eid_s02_8-3-10_bicycle_10_n03792782_9833.png
subject-02,1,214,0.880733966827393,keyboard,keyboard,2-3-10,0214_eid_s02_2-3-10_keyboard_10_n04505470_4294.png
subject-02,1,215,1.41652488708496,bird,knife,16-3-10,0215_eid_s02_16-3-10_knife_10_n03041632_3210.png
subject-02,1,216,1.10241985321045,cat,dog,1-3-10,0216_eid_s02_1-3-10_dog_10_n02102040_3045.png
subject-02,1,217,0.92622184753418,bottle,bottle,4-3-10,0217_eid_s02_4-3-10_bottle_10_n04579145_6678.png
subject-02,1,218,0.848030090332031,oven,chair,128-3-10,0218_eid_s02_128-3-10_chair_10_n03376595_18787.png
subject-02,1,219,1.00780987739563,bottle,chair,8-3-10,0219_eid_s02_8-3-10_chair_10_n02791124_495.png
subject-02,1,220,0.825700044631958,cat,car,64-3-10,0220_eid_s02_64-3-10_car_10_n03100240_362.png
subject-02,1,221,1.14554405212402,dog,dog,1-3-10,0221_eid_s02_1-3-10_dog_10_n02094433_3186.png
subject-02,1,222,0.907384872436523,cat,chair,8-3-10,0222_eid_s02_8-3-10_chair_10_n04099969_72.png
subject-02,1,223,1.16113686561584,bicycle,dog,2-3-10,0223_eid_s02_2-3-10_dog_10_n02092339_3615.png
subject-02,1,224,1.34696197509766,elephant,knife,8-3-10,0224_eid_s02_8-3-10_knife_10_n03041632_84048.png
subject-02,1,225,0.968678951263428,bird,oven,32-3-10,0225_eid_s02_32-3-10_oven_10_n04111531_22466.png
subject-02,1,226,1.01050114631653,dog,dog,16-3-10,0226_eid_s02_16-3-10_dog_10_n02109525_3364.png
subject-02,1,227,1.03030395507812,clock,clock,1-3-10,0227_eid_s02_1-3-10_clock_10_n04548280_5327.png
subject-02,1,228,0.802167892456055,cat,dog,128-3-10,0228_eid_s02_128-3-10_dog_10_n02105855_10394.png
subject-02,1,229,1.18204498291016,chair,bird,2-3-10,0229_eid_s02_2-3-10_bird_10_n01558993_869.png
subject-02,1,230,1.08577394485474,dog,bird,64-3-10,0230_eid_s02_64-3-10_bird_10_n02056570_27055.png
subject-02,1,231,0.879535913467407,car,car,8-3-10,0231_eid_s02_8-3-10_car_10_n04285008_13.png
subject-02,1,232,0.893478870391846,bird,bird,4-3-10,0232_eid_s02_4-3-10_bird_10_n01531178_13010.png
subject-02,1,233,1.06327795982361,airplane,chair,32-3-10,0233_eid_s02_32-3-10_chair_10_n03376595_14138.png
subject-02,1,234,0.957102060317993,bear,bear,1-3-10,0234_eid_s02_1-3-10_bear_10_n02132136_11198.png
subject-02,1,235,0.892941951751709,truck,car,128-3-10,0235_eid_s02_128-3-10_car_10_n02814533_3384.png
subject-02,1,236,0.87263011932373,boat,boat,8-3-10,0236_eid_s02_8-3-10_boat_10_n02951358_30908.png
subject-02,1,237,1.32451510429382,truck,airplane,128-3-10,0237_eid_s02_128-3-10_airplane_10_n02690373_3561.png
subject-02,1,238,1.15868711471558,dog,boat,128-3-10,0238_eid_s02_128-3-10_boat_10_n02951358_588.png
subject-02,1,239,1.06823706626892,bear,bear,4-3-10,0239_eid_s02_4-3-10_bear_10_n02134418_5271.png
subject-02,1,240,0.86201000213623,bicycle,truck,8-3-10,0240_eid_s02_8-3-10_truck_10_n03417042_29849.png
subject-02,1,241,0.785606861114502,cat,knife,64-3-10,0241_eid_s02_64-3-10_knife_10_n03041632_36280.png
subject-02,1,242,0.955430030822754,dog,oven,64-3-10,0242_eid_s02_64-3-10_oven_10_n04111531_892.png
subject-02,1,243,0.785210847854614,bear,truck,32-3-10,0243_eid_s02_32-3-10_truck_10_n03417042_6467.png
subject-02,1,244,1.0091450214386,bear,bear,4-3-10,0244_eid_s02_4-3-10_bear_10_n02134084_10112.png
subject-02,1,245,1.01287198066711,airplane,keyboard,16-3-10,0245_eid_s02_16-3-10_keyboard_10_n03085013_6629.png
subject-02,1,246,0.900677919387817,cat,bird,32-3-10,0246_eid_s02_32-3-10_bird_10_n02037110_10366.png
subject-02,1,247,0.812490940093994,car,car,8-3-10,0247_eid_s02_8-3-10_car_10_n02814533_31384.png
subject-02,1,248,1.19429397583008,dog,oven,32-3-10,0248_eid_s02_32-3-10_oven_10_n04111531_21460.png
subject-02,1,249,1.00050020217896,cat,oven,8-3-10,0249_eid_s02_8-3-10_oven_10_n04111531_2758.png
subject-02,1,250,0.911772012710571,boat,car,64-3-10,0250_eid_s02_64-3-10_car_10_n04285008_12996.png
subject-02,1,251,0.955928087234497,cat,bear,1-3-10,0251_eid_s02_1-3-10_bear_10_n02134418_3148.png
subject-02,1,252,0.821509122848511,knife,knife,2-3-10,0252_eid_s02_2-3-10_knife_10_n03041632_50648.png
subject-02,1,253,0.855540990829468,bear,elephant,16-3-10,0253_eid_s02_16-3-10_elephant_10_n02504013_6904.png
subject-02,1,254,0.759040832519531,bear,bicycle,64-3-10,0254_eid_s02_64-3-10_bicycle_10_n02835271_75.png
subject-02,1,255,1.07526922225952,bird,cat,8-3-10,0255_eid_s02_8-3-10_cat_10_n02123597_10945.png
subject-02,1,256,0.94696307182312,bear,oven,128-3-10,0256_eid_s02_128-3-10_oven_10_n04111531_6590.png
subject-02,1,257,0.906712055206299,bear,bird,64-3-10,0257_eid_s02_64-3-10_bird_10_n01530575_33354.png
subject-02,1,258,0.872393846511841,car,car,4-3-10,0258_eid_s02_4-3-10_car_10_n03100240_4537.png
subject-02,1,259,0.868095874786377,keyboard,keyboard,4-3-10,0259_eid_s02_4-3-10_keyboard_10_n03085013_21272.png
subject-02,1,260,0.851928949356079,cat,bear,64-3-10,0260_eid_s02_64-3-10_bear_10_n02133161_2226.png
subject-02,1,261,0.943899154663086,dog,elephant,128-3-10,0261_eid_s02_128-3-10_elephant_10_n02504013_7701.png
subject-02,1,262,0.869632959365845,cat,cat,32-3-10,0262_eid_s02_32-3-10_cat_10_n02123045_7248.png
subject-02,1,263,0.953541994094849,car,oven,2-3-10,0263_eid_s02_2-3-10_oven_10_n04111531_6298.png
subject-02,1,264,1.20115804672241,bird,bear,16-3-10,0264_eid_s02_16-3-10_bear_10_n02134418_2604.png
subject-02,1,265,0.993235111236572,bird,car,16-3-10,0265_eid_s02_16-3-10_car_10_n03100240_14045.png
subject-02,1,266,1.18493390083313,knife,bear,1-3-10,0266_eid_s02_1-3-10_bear_10_n02134084_424.png
subject-02,1,267,0.83077597618103,bird,airplane,4-3-10,0267_eid_s02_4-3-10_airplane_10_n02690373_4350.png
subject-02,1,268,0.812473773956299,oven,oven,4-3-10,0268_eid_s02_4-3-10_oven_10_n04111531_4012.png
subject-02,1,269,1.18451905250549,bear,bicycle,128-3-10,0269_eid_s02_128-3-10_bicycle_10_n02835271_3941.png
subject-02,1,270,1.18415904045105,chair,chair,8-3-10,0270_eid_s02_8-3-10_chair_10_n02791124_2282.png
subject-02,1,271,1.04815101623535,bird,car,32-3-10,0271_eid_s02_32-3-10_car_10_n02814533_34289.png
subject-02,1,272,0.886184930801392,chair,airplane,32-3-10,0272_eid_s02_32-3-10_airplane_10_n02690373_8559.png
subject-02,1,273,0.805626153945923,cat,chair,64-3-10,0273_eid_s02_64-3-10_chair_10_n04429376_7982.png
subject-02,1,274,0.817496061325073,bird,cat,1-3-10,0274_eid_s02_1-3-10_cat_10_n02123394_5700.png
subject-02,1,275,0.821274042129517,airplane,airplane,64-3-10,0275_eid_s02_64-3-10_airplane_10_n02690373_2109.png
subject-02,1,276,0.827250003814697,cat,keyboard,128-3-10,0276_eid_s02_128-3-10_keyboard_10_n04505470_255.png
subject-02,1,277,1.07505202293396,bird,clock,32-3-10,0277_eid_s02_32-3-10_clock_10_n04548280_1323.png
subject-02,1,278,0.806632041931152,cat,clock,64-3-10,0278_eid_s02_64-3-10_clock_10_n02708093_7827.png
subject-02,1,279,1.19460511207581,elephant,bottle,32-3-10,0279_eid_s02_32-3-10_bottle_10_n02823428_13280.png
subject-02,1,280,0.832677125930786,bear,bear,2-3-10,0280_eid_s02_2-3-10_bear_10_n02134084_18596.png
subject-02,1,281,0.846171140670776,bear,truck,32-3-10,0281_eid_s02_32-3-10_truck_10_n04467665_67927.png
subject-02,1,282,0.796006202697754,bear,bear,4-3-10,0282_eid_s02_4-3-10_bear_10_n02134084_12070.png
subject-02,1,283,1.16777777671814,bird,elephant,32-3-10,0283_eid_s02_32-3-10_elephant_10_n02504013_4295.png
subject-02,1,284,0.631736040115356,airplane,airplane,2-3-10,0284_eid_s02_2-3-10_airplane_10_n02690373_7457.png
subject-02,1,285,0.833232879638672,bird,bird,4-3-10,0285_eid_s02_4-3-10_bird_10_n02051845_8976.png
subject-02,1,286,0.737375974655151,cat,oven,128-3-10,0286_eid_s02_128-3-10_oven_10_n04111531_6134.png
subject-02,1,287,1.04699397087097,truck,truck,4-3-10,0287_eid_s02_4-3-10_truck_10_n03417042_13013.png
subject-02,1,288,0.988900184631348,keyboard,keyboard,8-3-10,0288_eid_s02_8-3-10_keyboard_10_n03085013_19512.png
subject-02,1,289,0.854503154754639,chair,cat,128-3-10,0289_eid_s02_128-3-10_cat_10_n02123597_14361.png
subject-02,1,290,0.616266965866089,oven,bottle,64-3-10,0290_eid_s02_64-3-10_bottle_10_n03937543_49.png
subject-02,1,291,0.818182945251465,oven,dog,32-3-10,0291_eid_s02_32-3-10_dog_10_n02093754_4949.png
subject-02,1,292,0.797977924346924,boat,boat,2-3-10,0292_eid_s02_2-3-10_boat_10_n02951358_17870.png
subject-02,1,293,0.725919961929321,chair,chair,8-3-10,0293_eid_s02_8-3-10_chair_10_n04429376_2591.png
subject-02,1,294,1.19950699806213,bear,keyboard,32-3-10,0294_eid_s02_32-3-10_keyboard_10_n03085013_20284.png
subject-02,1,295,1.21155405044556,knife,oven,2-3-10,0295_eid_s02_2-3-10_oven_10_n04111531_20591.png
subject-02,1,296,1.12129998207092,bird,boat,16-3-10,0296_eid_s02_16-3-10_boat_10_n04612504_13446.png
subject-02,1,297,0.757566928863525,cat,cat,32-3-10,0297_eid_s02_32-3-10_cat_10_n02123597_6548.png
subject-02,1,298,1.21696400642395,dog,bird,64-3-10,0298_eid_s02_64-3-10_bird_10_n01843065_4182.png
subject-02,1,299,1.02865314483643,knife,knife,4-3-10,0299_eid_s02_4-3-10_knife_10_n03041632_30196.png
subject-02,1,300,0.936760187149048,airplane,car,32-3-10,0300_eid_s02_32-3-10_car_10_n02814533_32802.png
subject-02,1,301,1.32445883750916,bear,bear,32-3-10,0301_eid_s02_32-3-10_bear_10_n02134084_3479.png
subject-02,1,302,1.06245803833008,dog,boat,64-3-10,0302_eid_s02_64-3-10_boat_10_n02951358_4544.png
subject-02,1,303,0.901907205581665,dog,chair,32-3-10,0303_eid_s02_32-3-10_chair_10_n02791124_15539.png
subject-02,1,304,0.889877080917358,knife,knife,1-3-10,0304_eid_s02_1-3-10_knife_10_n03041632_94202.png
subject-02,1,305,0.997729063034058,chair,oven,8-3-10,0305_eid_s02_8-3-10_oven_10_n04111531_6923.png
subject-02,1,306,0.98334789276123,car,car,8-3-10,0306_eid_s02_8-3-10_car_10_n04285008_11600.png
subject-02,1,307,1.00329899787903,dog,cat,8-3-10,0307_eid_s02_8-3-10_cat_10_n02123394_3329.png
subject-02,1,308,1.07101511955261,airplane,dog,64-3-10,0308_eid_s02_64-3-10_dog_10_n02100877_8862.png
subject-02,1,309,0.799182891845703,cat,bird,128-3-10,0309_eid_s02_128-3-10_bird_10_n02006656_10058.png
subject-02,1,310,1.31845116615295,bird,bicycle,32-3-10,0310_eid_s02_32-3-10_bicycle_10_n02835271_4160.png
subject-02,1,311,0.902459859848022,bottle,bottle,8-3-10,0311_eid_s02_8-3-10_bottle_10_n02823428_8525.png
subject-02,1,312,0.688477039337158,boat,bear,16-3-10,0312_eid_s02_16-3-10_bear_10_n02132136_21181.png
subject-02,1,313,0.950208902359009,cat,bicycle,8-3-10,0313_eid_s02_8-3-10_bicycle_10_n03792782_49510.png
subject-02,1,314,0.799920082092285,bear,bicycle,64-3-10,0314_eid_s02_64-3-10_bicycle_10_n02835271_22448.png
subject-02,1,315,0.82780909538269,airplane,airplane,2-3-10,0315_eid_s02_2-3-10_airplane_10_n02690373_4591.png
subject-02,1,316,0.753729820251465,boat,boat,1-3-10,0316_eid_s02_1-3-10_boat_10_n04273569_12318.png
subject-02,1,317,0.997350931167603,elephant,elephant,128-3-10,0317_eid_s02_128-3-10_elephant_10_n02504458_7085.png
subject-02,1,318,1.19915699958801,truck,truck,8-3-10,0318_eid_s02_8-3-10_truck_10_n04467665_9331.png
subject-02,1,319,1.01713991165161,dog,chair,128-3-10,0319_eid_s02_128-3-10_chair_10_n02791124_6956.png
subject-02,1,320,0.87296199798584,chair,car,128-3-10,0320_eid_s02_128-3-10_car_10_n02814533_5888.png
subject-02,1,321,0.976081132888794,boat,bicycle,32-3-10,0321_eid_s02_32-3-10_bicycle_10_n03792782_11597.png
subject-02,1,322,0.709939002990723,oven,elephant,16-3-10,0322_eid_s02_16-3-10_elephant_10_n02504458_3172.png
subject-02,1,323,0.901639938354492,car,bicycle,1-3-10,0323_eid_s02_1-3-10_bicycle_10_n02835271_21707.png
subject-02,1,324,0.837467908859253,oven,clock,8-3-10,0324_eid_s02_8-3-10_clock_10_n03196217_7985.png
subject-02,1,325,1.18718099594116,cat,chair,128-3-10,0325_eid_s02_128-3-10_chair_10_n04099969_5901.png
subject-02,1,326,0.765283107757568,boat,boat,1-3-10,0326_eid_s02_1-3-10_boat_10_n03662601_34796.png
subject-02,1,327,0.768850088119507,keyboard,keyboard,1-3-10,0327_eid_s02_1-3-10_keyboard_10_n04505470_4109.png
subject-02,1,328,0.978525161743164,bear,bear,4-3-10,0328_eid_s02_4-3-10_bear_10_n02134084_6869.png
subject-02,1,329,1.11658596992493,truck,truck,4-3-10,0329_eid_s02_4-3-10_truck_10_n04467665_58158.png
subject-02,1,330,1.05218505859375,oven,clock,4-3-10,0330_eid_s02_4-3-10_clock_10_n04548280_4249.png
subject-02,1,331,0.830087900161743,oven,oven,4-3-10,0331_eid_s02_4-3-10_oven_10_n04111531_1230.png
subject-02,1,332,1.00784087181091,boat,bottle,64-3-10,0332_eid_s02_64-3-10_bottle_10_n03937543_2232.png
subject-02,1,333,1.0677809715271,truck,truck,1-3-10,0333_eid_s02_1-3-10_truck_10_n03417042_9062.png
subject-02,1,334,0.877587080001831,cat,keyboard,16-3-10,0334_eid_s02_16-3-10_keyboard_10_n03085013_6834.png
subject-02,1,335,0.921316862106323,bottle,bottle,4-3-10,0335_eid_s02_4-3-10_bottle_10_n02823428_4387.png
subject-02,1,336,0.988972187042236,dog,dog,1-3-10,0336_eid_s02_1-3-10_dog_10_n02097658_816.png
subject-02,1,337,0.83105206489563,cat,car,128-3-10,0337_eid_s02_128-3-10_car_10_n03100240_5489.png
subject-02,1,338,1.00870585441589,bird,bear,16-3-10,0338_eid_s02_16-3-10_bear_10_n02134084_9307.png
subject-02,1,339,0.77045202255249,oven,bear,128-3-10,0339_eid_s02_128-3-10_bear_10_n02132136_10113.png
subject-02,1,340,1.08642387390137,bottle,oven,4-3-10,0340_eid_s02_4-3-10_oven_10_n04111531_6629.png
subject-02,1,341,0.92828893661499,boat,bicycle,16-3-10,0341_eid_s02_16-3-10_bicycle_10_n02835271_4246.png
subject-02,1,342,0.776134014129639,cat,cat,8-3-10,0342_eid_s02_8-3-10_cat_10_n02124075_5828.png
subject-02,1,343,1.03177905082703,boat,boat,8-3-10,0343_eid_s02_8-3-10_boat_10_n02951358_4650.png
subject-02,1,344,0.897541046142578,keyboard,keyboard,1-3-10,0344_eid_s02_1-3-10_keyboard_10_n03085013_17256.png
subject-02,1,345,0.88149094581604,oven,knife,128-3-10,0345_eid_s02_128-3-10_knife_10_n03041632_31909.png
subject-02,1,346,0.93532395362854,dog,dog,4-3-10,0346_eid_s02_4-3-10_dog_10_n02102318_11155.png
subject-02,1,347,1.03104901313782,bicycle,chair,128-3-10,0347_eid_s02_128-3-10_chair_10_n02791124_2600.png
subject-02,1,348,1.50001502037048,clock,clock,1-3-10,0348_eid_s02_1-3-10_clock_10_n03196217_3022.png
subject-02,1,349,0.880948066711426,bird,bird,4-3-10,0349_eid_s02_4-3-10_bird_10_n01860187_20777.png
subject-02,1,350,0.868921041488647,bird,dog,1-3-10,0350_eid_s02_1-3-10_dog_10_n02093647_5955.png
subject-02,1,351,1.07837820053101,dog,truck,16-3-10,0351_eid_s02_16-3-10_truck_10_n04467665_8189.png
subject-02,1,352,0.840188980102539,cat,elephant,1-3-10,0352_eid_s02_1-3-10_elephant_10_n02504013_1132.png
subject-02,1,353,0.939918994903564,oven,bear,64-3-10,0353_eid_s02_64-3-10_bear_10_n02134418_14850.png
subject-02,1,354,1.06172204017639,oven,knife,64-3-10,0354_eid_s02_64-3-10_knife_10_n03041632_32774.png
subject-02,1,355,1.40345311164856,dog,bear,16-3-10,0355_eid_s02_16-3-10_bear_10_n02133161_79.png
subject-02,1,356,1.00330781936646,dog,dog,4-3-10,0356_eid_s02_4-3-10_dog_10_n02107574_5896.png
subject-02,1,357,1.06362295150757,cat,chair,8-3-10,0357_eid_s02_8-3-10_chair_10_n02791124_2035.png
subject-02,1,358,1.27936911582947,cat,dog,4-3-10,0358_eid_s02_4-3-10_dog_10_n02098105_526.png
subject-02,1,359,0.85270619392395,cat,oven,64-3-10,0359_eid_s02_64-3-10_oven_10_n04111531_15296.png
subject-02,1,360,0.992726802825928,clock,clock,1-3-10,0360_eid_s02_1-3-10_clock_10_n03196217_6707.png
subject-02,1,361,0.980490207672119,boat,car,32-3-10,0361_eid_s02_32-3-10_car_10_n02814533_70922.png
subject-02,1,362,0.680150985717773,cat,truck,16-3-10,0362_eid_s02_16-3-10_truck_10_n04467665_67726.png
subject-02,1,363,0.909999847412109,dog,bottle,16-3-10,0363_eid_s02_16-3-10_bottle_10_n04560804_15967.png
subject-02,1,364,1.06583094596863,keyboard,keyboard,16-3-10,0364_eid_s02_16-3-10_keyboard_10_n04505470_430.png
subject-02,1,365,0.951684951782227,car,car,4-3-10,0365_eid_s02_4-3-10_car_10_n03100240_12560.png
subject-02,1,366,1.04337382316589,dog,car,64-3-10,0366_eid_s02_64-3-10_car_10_n03100240_17073.png
subject-02,1,367,0.727383136749268,cat,bicycle,32-3-10,0367_eid_s02_32-3-10_bicycle_10_n03792782_14476.png
subject-02,1,368,1.02914118766785,oven,chair,4-3-10,0368_eid_s02_4-3-10_chair_10_n04099969_31891.png
subject-02,1,369,1.16698312759399,elephant,elephant,2-3-10,0369_eid_s02_2-3-10_elephant_10_n02504013_358.png
subject-02,1,370,1.07870507240295,dog,bottle,16-3-10,0370_eid_s02_16-3-10_bottle_10_n03983396_2746.png
subject-02,1,371,0.960572004318237,bottle,truck,2-3-10,0371_eid_s02_2-3-10_truck_10_n03417042_94.png
subject-02,1,372,1.08230996131897,knife,knife,8-3-10,0372_eid_s02_8-3-10_knife_10_n03041632_10802.png
subject-02,1,373,0.758181810379028,boat,chair,64-3-10,0373_eid_s02_64-3-10_chair_10_n04099969_2354.png
subject-02,1,374,0.836015939712524,boat,boat,4-3-10,0374_eid_s02_4-3-10_boat_10_n02951358_9146.png
subject-02,1,375,0.815871953964233,cat,cat,64-3-10,0375_eid_s02_64-3-10_cat_10_n02125311_8090.png
subject-02,1,376,0.711549043655396,oven,bottle,32-3-10,0376_eid_s02_32-3-10_bottle_10_n02823428_8300.png
subject-02,1,377,0.975403070449829,keyboard,keyboard,2-3-10,0377_eid_s02_2-3-10_keyboard_10_n04505470_4791.png
subject-02,1,378,0.731186151504517,cat,knife,64-3-10,0378_eid_s02_64-3-10_knife_10_n03041632_19571.png
subject-02,1,379,1.08893394470215,elephant,bear,4-3-10,0379_eid_s02_4-3-10_bear_10_n02132136_5517.png
subject-02,1,380,1.08505320549011,bird,cat,16-3-10,0380_eid_s02_16-3-10_cat_10_n02123597_3921.png
subject-02,1,381,0.948687076568604,cat,knife,128-3-10,0381_eid_s02_128-3-10_knife_10_n03041632_1201.png
subject-02,1,382,0.924374103546143,airplane,boat,16-3-10,0382_eid_s02_16-3-10_boat_10_n04273569_10665.png
subject-02,1,383,0.740502834320068,boat,boat,2-3-10,0383_eid_s02_2-3-10_boat_10_n02951358_3556.png
subject-02,1,384,0.962141036987305,cat,boat,16-3-10,0384_eid_s02_16-3-10_boat_10_n04612504_673.png
subject-02,1,385,0.770029067993164,oven,dog,32-3-10,0385_eid_s02_32-3-10_dog_10_n02094114_424.png
subject-02,1,386,0.899693012237549,keyboard,keyboard,8-3-10,0386_eid_s02_8-3-10_keyboard_10_n04505470_10041.png
subject-02,1,387,1.12564587593079,bottle,chair,2-3-10,0387_eid_s02_2-3-10_chair_10_n02791124_2649.png
subject-02,1,388,1.2615020275116,oven,oven,128-3-10,0388_eid_s02_128-3-10_oven_10_n04111531_21120.png
subject-02,1,389,0.821326971054077,bicycle,bicycle,1-3-10,0389_eid_s02_1-3-10_bicycle_10_n02835271_21439.png
subject-02,1,390,0.717123031616211,cat,truck,128-3-10,0390_eid_s02_128-3-10_truck_10_n03417042_29478.png
subject-02,1,391,1.18297696113586,airplane,clock,128-3-10,0391_eid_s02_128-3-10_clock_10_n04548280_6115.png
subject-02,1,392,0.902674913406372,cat,clock,16-3-10,0392_eid_s02_16-3-10_clock_10_n04548280_575.png
subject-02,1,393,0.902306079864502,airplane,bicycle,16-3-10,0393_eid_s02_16-3-10_bicycle_10_n02835271_1199.png
subject-02,1,394,1.14031481742859,car,car,4-3-10,0394_eid_s02_4-3-10_car_10_n02814533_55326.png
subject-02,1,395,0.912107944488525,truck,bear,64-3-10,0395_eid_s02_64-3-10_bear_10_n02132136_306.png
subject-02,1,396,0.797811031341553,cat,bird,32-3-10,0396_eid_s02_32-3-10_bird_10_n01824575_1765.png
subject-02,1,397,0.717589855194092,clock,clock,2-3-10,0397_eid_s02_2-3-10_clock_10_n04548280_353.png
subject-02,1,398,0.683534145355225,clock,clock,1-3-10,0398_eid_s02_1-3-10_clock_10_n04548280_2937.png
subject-02,1,399,0.931310176849365,boat,boat,128-3-10,0399_eid_s02_128-3-10_boat_10_n03662601_9628.png
subject-02,1,400,1.08302092552185,truck,truck,4-3-10,0400_eid_s02_4-3-10_truck_10_n03796401_20943.png
subject-02,1,401,0.832540035247803,cat,elephant,32-3-10,0401_eid_s02_32-3-10_elephant_10_n02504458_1211.png
subject-02,1,402,0.658001899719238,oven,oven,4-3-10,0402_eid_s02_4-3-10_oven_10_n04111531_11655.png
subject-02,1,403,0.959956884384155,truck,truck,8-3-10,0403_eid_s02_8-3-10_truck_10_n04467665_3098.png
subject-02,1,404,0.689733982086182,car,car,2-3-10,0404_eid_s02_2-3-10_car_10_n04285008_11295.png
subject-02,1,405,0.741714000701904,bicycle,dog,32-3-10,0405_eid_s02_32-3-10_dog_10_n02093428_3667.png
subject-02,1,406,0.903248071670532,airplane,airplane,4-3-10,0406_eid_s02_4-3-10_airplane_10_n02690373_9086.png
subject-02,1,407,0.901342868804932,cat,bird,2-3-10,0407_eid_s02_2-3-10_bird_10_n01855672_19945.png
subject-02,1,408,0.928571939468384,cat,clock,16-3-10,0408_eid_s02_16-3-10_clock_10_n04548280_2283.png
subject-02,1,409,0.811099052429199,boat,cat,32-3-10,0409_eid_s02_32-3-10_cat_10_n02123597_8698.png
subject-02,1,410,0.872431039810181,cat,clock,32-3-10,0410_eid_s02_32-3-10_clock_10_n02708093_8104.png
subject-02,1,411,1.09005403518677,bottle,clock,8-3-10,0411_eid_s02_8-3-10_clock_10_n02708093_2588.png
subject-02,1,412,0.789890050888062,chair,chair,4-3-10,0412_eid_s02_4-3-10_chair_10_n04429376_11383.png
subject-02,1,413,1.27381587028503,bottle,clock,16-3-10,0413_eid_s02_16-3-10_clock_10_n04548280_8171.png
subject-02,1,414,1.03770208358765,chair,bird,8-3-10,0414_eid_s02_8-3-10_bird_10_n01820546_4748.png
subject-02,1,415,0.753501176834106,cat,cat,4-3-10,0415_eid_s02_4-3-10_cat_10_n02123159_6728.png
subject-02,1,416,0.971337080001831,chair,bear,128-3-10,0416_eid_s02_128-3-10_bear_10_n02133161_5157.png
subject-02,1,417,1.04725217819214,dog,dog,2-3-10,0417_eid_s02_2-3-10_dog_10_n02100877_3973.png
subject-02,1,418,0.856973886489868,bear,oven,16-3-10,0418_eid_s02_16-3-10_oven_10_n04111531_14758.png
subject-02,1,419,0.854966878890991,cat,bottle,32-3-10,0419_eid_s02_32-3-10_bottle_10_n04557648_3768.png
subject-02,1,420,0.890580177307129,elephant,elephant,2-3-10,0420_eid_s02_2-3-10_elephant_10_n02504458_4163.png
subject-02,1,421,0.758291006088257,bottle,bottle,2-3-10,0421_eid_s02_2-3-10_bottle_10_n02823428_13931.png
subject-02,1,422,1.0724630355835,bird,cat,1-3-10,0422_eid_s02_1-3-10_cat_10_n02125311_13348.png
subject-02,1,423,0.694015026092529,cat,cat,8-3-10,0423_eid_s02_8-3-10_cat_10_n02123394_8009.png
subject-02,1,424,1.02783513069153,bear,clock,16-3-10,0424_eid_s02_16-3-10_clock_10_n02708093_3621.png
subject-02,1,425,0.765647888183594,boat,boat,4-3-10,0425_eid_s02_4-3-10_boat_10_n03344393_4289.png
subject-02,1,426,0.771361112594604,clock,clock,4-3-10,0426_eid_s02_4-3-10_clock_10_n02708093_386.png
subject-02,1,427,1.08716607093811,car,bottle,128-3-10,0427_eid_s02_128-3-10_bottle_10_n04560804_5540.png
subject-02,1,428,1.10707402229309,bottle,chair,16-3-10,0428_eid_s02_16-3-10_chair_10_n03376595_6986.png
subject-02,1,429,0.910837173461914,airplane,airplane,2-3-10,0429_eid_s02_2-3-10_airplane_10_n02690373_15097.png
subject-02,1,430,0.926625967025757,bicycle,car,64-3-10,0430_eid_s02_64-3-10_car_10_n02814533_10069.png
subject-02,1,431,1.00674200057983,knife,knife,2-3-10,0431_eid_s02_2-3-10_knife_10_n03041632_32048.png
subject-02,1,432,1.18034100532532,bird,elephant,8-3-10,0432_eid_s02_8-3-10_elephant_10_n02504013_4231.png
subject-02,1,433,1.22438907623291,bear,chair,4-3-10,0433_eid_s02_4-3-10_chair_10_n04429376_22734.png
subject-02,1,434,0.924009084701538,boat,airplane,64-3-10,0434_eid_s02_64-3-10_airplane_10_n02690373_3090.png
subject-02,1,435,1.3498740196228,elephant,cat,4-3-10,0435_eid_s02_4-3-10_cat_10_n02125311_20388.png
subject-02,1,436,0.941621780395508,cat,chair,32-3-10,0436_eid_s02_32-3-10_chair_10_n02791124_2611.png
subject-02,1,437,0.977200984954834,chair,oven,8-3-10,0437_eid_s02_8-3-10_oven_10_n04111531_5802.png
subject-02,1,438,0.921271085739136,chair,chair,2-3-10,0438_eid_s02_2-3-10_chair_10_n03376595_16212.png
subject-02,1,439,0.951099157333374,car,bottle,128-3-10,0439_eid_s02_128-3-10_bottle_10_n04560804_9922.png
subject-02,1,440,0.908869981765747,keyboard,keyboard,1-3-10,0440_eid_s02_1-3-10_keyboard_10_n04505470_1245.png
subject-02,1,441,0.85065484046936,cat,truck,32-3-10,0441_eid_s02_32-3-10_truck_10_n03796401_4454.png
subject-02,1,442,0.888374090194702,cat,chair,64-3-10,0442_eid_s02_64-3-10_chair_10_n02791124_15756.png
subject-02,1,443,1.10204195976257,chair,chair,8-3-10,0443_eid_s02_8-3-10_chair_10_n02791124_13704.png
subject-02,1,444,1.22402501106262,boat,elephant,4-3-10,0444_eid_s02_4-3-10_elephant_10_n02504458_1933.png
subject-02,1,445,1.06573700904846,dog,keyboard,32-3-10,0445_eid_s02_32-3-10_keyboard_10_n04505470_5109.png
subject-02,1,446,0.8297278881073,cat,cat,1-3-10,0446_eid_s02_1-3-10_cat_10_n02123394_6792.png
subject-02,1,447,0.97341513633728,knife,knife,1-3-10,0447_eid_s02_1-3-10_knife_10_n03041632_22570.png
subject-02,1,448,0.77516508102417,cat,oven,32-3-10,0448_eid_s02_32-3-10_oven_10_n04111531_7134.png
subject-02,1,449,0.811311960220337,cat,truck,16-3-10,0449_eid_s02_16-3-10_truck_10_n03796401_2751.png
subject-02,1,450,0.804855108261108,cat,boat,128-3-10,0450_eid_s02_128-3-10_boat_10_n04612504_2225.png
subject-02,1,451,0.91863489151001,clock,bird,64-3-10,0451_eid_s02_64-3-10_bird_10_n01796340_1230.png
subject-02,1,452,1.01085710525513,boat,dog,4-3-10,0452_eid_s02_4-3-10_dog_10_n02093256_1653.png
subject-02,1,453,0.670305967330933,cat,knife,128-3-10,0453_eid_s02_128-3-10_knife_10_n03041632_21723.png
subject-02,1,454,1.37818717956543,bird,bird,1-3-10,0454_eid_s02_1-3-10_bird_10_n01817953_8025.png
subject-02,1,455,1.31202507019043,elephant,car,32-3-10,0455_eid_s02_32-3-10_car_10_n03100240_6103.png
subject-02,1,456,1.07796883583069,airplane,airplane,1-3-10,0456_eid_s02_1-3-10_airplane_10_n02690373_5790.png
subject-02,1,457,0.871624946594238,cat,chair,32-3-10,0457_eid_s02_32-3-10_chair_10_n02791124_2212.png
subject-02,1,458,0.901380062103271,cat,elephant,128-3-10,0458_eid_s02_128-3-10_elephant_10_n02504013_6141.png
subject-02,1,459,0.921211957931519,cat,truck,128-3-10,0459_eid_s02_128-3-10_truck_10_n03796401_1335.png
subject-02,1,460,0.979146003723145,cat,keyboard,128-3-10,0460_eid_s02_128-3-10_keyboard_10_n03085013_24399.png
subject-02,1,461,0.850821018218994,cat,cat,2-3-10,0461_eid_s02_2-3-10_cat_10_n02124075_9706.png
subject-02,1,462,0.998860836029053,boat,cat,32-3-10,0462_eid_s02_32-3-10_cat_10_n02123045_13340.png
subject-02,1,463,0.954413890838623,oven,bottle,4-3-10,0463_eid_s02_4-3-10_bottle_10_n03937543_2135.png
subject-02,1,464,1.10849714279175,bird,bicycle,8-3-10,0464_eid_s02_8-3-10_bicycle_10_n03792782_1288.png
subject-02,1,465,0.902348041534424,dog,dog,4-3-10,0465_eid_s02_4-3-10_dog_10_n02105251_8210.png
subject-02,1,466,0.875792026519775,chair,chair,2-3-10,0466_eid_s02_2-3-10_chair_10_n03376595_2512.png
subject-02,1,467,1.04373502731323,knife,knife,4-3-10,0467_eid_s02_4-3-10_knife_10_n03041632_126.png
subject-02,1,468,1.05149292945862,knife,knife,8-3-10,0468_eid_s02_8-3-10_knife_10_n03041632_9671.png
subject-02,1,469,1.07336497306824,chair,chair,16-3-10,0469_eid_s02_16-3-10_chair_10_n04429376_17917.png
subject-02,1,470,0.945107936859131,cat,knife,128-3-10,0470_eid_s02_128-3-10_knife_10_n03041632_8540.png
subject-02,1,471,1.04496598243713,truck,bear,32-3-10,0471_eid_s02_32-3-10_bear_10_n02132136_3378.png
subject-02,1,472,0.752665996551514,boat,bird,16-3-10,0472_eid_s02_16-3-10_bird_10_n02011460_23755.png
subject-02,1,473,1.21856498718262,elephant,elephant,4-3-10,0473_eid_s02_4-3-10_elephant_10_n02504013_1740.png
subject-02,1,474,0.958768129348755,cat,cat,4-3-10,0474_eid_s02_4-3-10_cat_10_n02124075_13719.png
subject-02,1,475,0.744397878646851,boat,chair,128-3-10,0475_eid_s02_128-3-10_chair_10_n04099969_18678.png
subject-02,1,476,0.883967161178589,cat,car,32-3-10,0476_eid_s02_32-3-10_car_10_n02814533_14653.png
subject-02,1,477,0.961764097213745,bicycle,bicycle,2-3-10,0477_eid_s02_2-3-10_bicycle_10_n03792782_16837.png
subject-02,1,478,1.15569400787354,car,cat,8-3-10,0478_eid_s02_8-3-10_cat_10_n02123159_7239.png
subject-02,1,479,1.37946796417236,airplane,knife,64-3-10,0479_eid_s02_64-3-10_knife_10_n03041632_20576.png
subject-02,1,480,0.883363008499146,bicycle,bicycle,2-3-10,0480_eid_s02_2-3-10_bicycle_10_n02835271_8654.png
subject-02,1,481,1.21462106704712,bear,keyboard,32-3-10,0481_eid_s02_32-3-10_keyboard_10_n03085013_24626.png
subject-02,1,482,1.500079870224,oven,truck,8-3-10,0482_eid_s02_8-3-10_truck_10_n03417042_18127.png
subject-02,1,483,0.71402907371521,cat,boat,128-3-10,0483_eid_s02_128-3-10_boat_10_n03344393_6352.png
subject-02,1,484,1.15791416168213,elephant,elephant,4-3-10,0484_eid_s02_4-3-10_elephant_10_n02504458_4725.png
subject-02,1,485,0.857581853866577,keyboard,keyboard,1-3-10,0485_eid_s02_1-3-10_keyboard_10_n03085013_18989.png
subject-02,1,486,1.12955784797668,bird,bird,8-3-10,0486_eid_s02_8-3-10_bird_10_n01798484_3266.png
subject-02,1,487,0.795334100723267,airplane,airplane,8-3-10,0487_eid_s02_8-3-10_airplane_10_n02690373_10769.png
subject-02,1,488,0.879220008850098,car,car,2-3-10,0488_eid_s02_2-3-10_car_10_n04285008_5005.png
subject-02,1,489,1.08901214599609,bear,bird,16-3-10,0489_eid_s02_16-3-10_bird_10_n02006656_6688.png
subject-02,1,490,0.890543937683105,clock,clock,4-3-10,0490_eid_s02_4-3-10_clock_10_n02708093_8204.png
subject-02,1,491,0.888870000839233,keyboard,keyboard,2-3-10,0491_eid_s02_2-3-10_keyboard_10_n03085013_6740.png
subject-02,1,492,1.27659797668457,bear,clock,128-3-10,0492_eid_s02_128-3-10_clock_10_n03196217_1079.png
subject-02,1,493,0.970127105712891,bottle,bottle,1-3-10,0493_eid_s02_1-3-10_bottle_10_n04557648_10167.png
subject-02,1,494,0.957973003387451,airplane,airplane,16-3-10,0494_eid_s02_16-3-10_airplane_10_n02690373_848.png
subject-02,1,495,1.29961585998535,car,bicycle,128-3-10,0495_eid_s02_128-3-10_bicycle_10_n02835271_20153.png
subject-02,1,496,1.16566586494446,cat,airplane,32-3-10,0496_eid_s02_32-3-10_airplane_10_n02690373_3669.png
subject-02,1,497,1.26347303390503,truck,keyboard,16-3-10,0497_eid_s02_16-3-10_keyboard_10_n03085013_3439.png
subject-02,1,498,1.22942996025085,oven,oven,8-3-10,0498_eid_s02_8-3-10_oven_10_n04111531_14280.png
subject-02,1,499,1.14911818504333,oven,oven,8-3-10,0499_eid_s02_8-3-10_oven_10_n04111531_27.png
subject-02,1,500,0.910799026489258,cat,cat,16-3-10,0500_eid_s02_16-3-10_cat_10_n02124075_2068.png
subject-02,1,501,1.14854907989502,bottle,boat,64-3-10,0501_eid_s02_64-3-10_boat_10_n04273569_5901.png
subject-02,1,502,1.24050116539001,truck,cat,16-3-10,0502_eid_s02_16-3-10_cat_10_n02125311_22073.png
subject-02,1,503,1.01042294502258,bottle,bottle,4-3-10,0503_eid_s02_4-3-10_bottle_10_n04579145_4186.png
subject-02,1,504,0.96829891204834,clock,clock,8-3-10,0504_eid_s02_8-3-10_clock_10_n04548280_2334.png
subject-02,1,505,1.23991179466248,bicycle,boat,128-3-10,0505_eid_s02_128-3-10_boat_10_n03662601_17001.png
subject-02,1,506,0.986063957214355,bear,bear,2-3-10,0506_eid_s02_2-3-10_bear_10_n02134084_7193.png
subject-02,1,507,0.935842990875244,car,car,2-3-10,0507_eid_s02_2-3-10_car_10_n04285008_10563.png
subject-02,1,508,1.21551299095154,chair,chair,2-3-10,0508_eid_s02_2-3-10_chair_10_n04429376_6029.png
subject-02,1,509,1.26515698432922,airplane,car,16-3-10,0509_eid_s02_16-3-10_car_10_n02814533_12310.png
subject-02,1,510,NaN,na,airplane,128-3-10,0510_eid_s02_128-3-10_airplane_10_n02690373_845.png
subject-02,1,511,0.982801914215088,keyboard,keyboard,8-3-10,0511_eid_s02_8-3-10_keyboard_10_n04505470_4228.png
subject-02,1,512,0.896519184112549,car,car,4-3-10,0512_eid_s02_4-3-10_car_10_n02814533_52674.png
subject-02,1,513,0.964661121368408,oven,oven,1-3-10,0513_eid_s02_1-3-10_oven_10_n04111531_10093.png
subject-02,1,514,0.92233681678772,airplane,airplane,2-3-10,0514_eid_s02_2-3-10_airplane_10_n02690373_190.png
subject-02,1,515,1.04415416717529,knife,knife,4-3-10,0515_eid_s02_4-3-10_knife_10_n03041632_27898.png
subject-02,1,516,1.02407097816467,bear,clock,64-3-10,0516_eid_s02_64-3-10_clock_10_n03196217_6809.png
subject-02,1,517,0.999645233154297,bird,cat,2-3-10,0517_eid_s02_2-3-10_cat_10_n02123597_13839.png
subject-02,1,518,1.0115180015564,dog,clock,64-3-10,0518_eid_s02_64-3-10_clock_10_n03196217_3283.png
subject-02,1,519,0.985350847244263,cat,bottle,8-3-10,0519_eid_s02_8-3-10_bottle_10_n03983396_3880.png
subject-02,1,520,0.887331008911133,cat,cat,32-3-10,0520_eid_s02_32-3-10_cat_10_n02123045_12084.png
subject-02,1,521,0.916893005371094,knife,knife,8-3-10,0521_eid_s02_8-3-10_knife_10_n03041632_44738.png
subject-02,1,522,0.875036954879761,cat,bear,16-3-10,0522_eid_s02_16-3-10_bear_10_n02134418_3969.png
subject-02,1,523,0.682916879653931,oven,oven,2-3-10,0523_eid_s02_2-3-10_oven_10_n04111531_8269.png
subject-02,1,524,1.4762818813324,truck,truck,2-3-10,0524_eid_s02_2-3-10_truck_10_n03796401_3651.png
subject-02,1,525,1.35608816146851,elephant,dog,32-3-10,0525_eid_s02_32-3-10_dog_10_n02109961_53644.png
subject-02,1,526,1.21041512489319,dog,bird,8-3-10,0526_eid_s02_8-3-10_bird_10_n02025239_9177.png
subject-02,1,527,1.06569719314575,cat,car,64-3-10,0527_eid_s02_64-3-10_car_10_n03100240_7626.png
subject-02,1,528,1.03969097137451,truck,truck,4-3-10,0528_eid_s02_4-3-10_truck_10_n04467665_10122.png
subject-02,1,529,0.8176109790802,car,car,2-3-10,0529_eid_s02_2-3-10_car_10_n02814533_88088.png
subject-02,1,530,1.1092050075531,dog,chair,32-3-10,0530_eid_s02_32-3-10_chair_10_n04429376_51025.png
subject-02,1,531,0.924891948699951,boat,bottle,16-3-10,0531_eid_s02_16-3-10_bottle_10_n04557648_9415.png
subject-02,1,532,1.11088180541992,bird,elephant,16-3-10,0532_eid_s02_16-3-10_elephant_10_n02504013_4590.png
subject-02,1,533,0.974684953689575,bird,chair,64-3-10,0533_eid_s02_64-3-10_chair_10_n04429376_10476.png
subject-02,1,534,0.900820016860962,bird,bird,1-3-10,0534_eid_s02_1-3-10_bird_10_n01820546_4457.png
subject-02,1,535,1.40623497962952,dog,oven,16-3-10,0535_eid_s02_16-3-10_oven_10_n04111531_3270.png
subject-02,1,536,0.964128017425537,cat,car,128-3-10,0536_eid_s02_128-3-10_car_10_n02814533_83588.png
subject-02,1,537,0.749987125396729,clock,clock,1-3-10,0537_eid_s02_1-3-10_clock_10_n02708093_51.png
subject-02,1,538,1.18569207191467,bird,keyboard,16-3-10,0538_eid_s02_16-3-10_keyboard_10_n03085013_21649.png
subject-02,1,539,0.813541889190674,oven,oven,1-3-10,0539_eid_s02_1-3-10_oven_10_n04111531_21963.png
subject-02,1,540,0.93569803237915,cat,cat,16-3-10,0540_eid_s02_16-3-10_cat_10_n02123159_798.png
subject-02,1,541,0.949011087417603,keyboard,keyboard,4-3-10,0541_eid_s02_4-3-10_keyboard_10_n03085013_15365.png
subject-02,1,542,0.977051973342896,knife,knife,2-3-10,0542_eid_s02_2-3-10_knife_10_n03041632_3781.png
subject-02,1,543,0.746730089187622,cat,cat,4-3-10,0543_eid_s02_4-3-10_cat_10_n02123045_2757.png
subject-02,1,544,0.93852710723877,dog,dog,8-3-10,0544_eid_s02_8-3-10_dog_10_n02110185_11414.png
subject-02,1,545,1.06265997886658,dog,dog,2-3-10,0545_eid_s02_2-3-10_dog_10_n02102040_988.png
subject-02,1,546,0.934445142745972,dog,bottle,8-3-10,0546_eid_s02_8-3-10_bottle_10_n02823428_5374.png
subject-02,1,547,1.10991597175598,boat,knife,4-3-10,0547_eid_s02_4-3-10_knife_10_n03041632_19971.png
subject-02,1,548,0.761903047561646,boat,knife,64-3-10,0548_eid_s02_64-3-10_knife_10_n03041632_48071.png
subject-02,1,549,0.875761985778809,clock,clock,32-3-10,0549_eid_s02_32-3-10_clock_10_n02708093_3790.png
subject-02,1,550,0.793526887893677,bottle,dog,128-3-10,0550_eid_s02_128-3-10_dog_10_n02095889_1087.png
subject-02,1,551,0.815314054489136,chair,bird,64-3-10,0551_eid_s02_64-3-10_bird_10_n02033041_2480.png
subject-02,1,552,0.921212911605835,bird,bird,1-3-10,0552_eid_s02_1-3-10_bird_10_n01855672_11580.png
subject-02,1,553,0.667211055755615,cat,car,128-3-10,0553_eid_s02_128-3-10_car_10_n03100240_22593.png
subject-02,1,554,0.686820030212402,bear,boat,32-3-10,0554_eid_s02_32-3-10_boat_10_n02951358_31101.png
subject-02,1,555,0.698840141296387,boat,knife,32-3-10,0555_eid_s02_32-3-10_knife_10_n03041632_45326.png
subject-02,1,556,0.860466957092285,cat,cat,4-3-10,0556_eid_s02_4-3-10_cat_10_n02124075_2113.png
subject-02,1,557,1.03033399581909,truck,truck,8-3-10,0557_eid_s02_8-3-10_truck_10_n04467665_23905.png
subject-02,1,558,1.03398609161377,knife,truck,64-3-10,0558_eid_s02_64-3-10_truck_10_n03417042_12297.png
subject-02,1,559,0.87580418586731,airplane,bear,16-3-10,0559_eid_s02_16-3-10_bear_10_n02132136_19290.png
subject-02,1,560,1.00556516647339,dog,car,16-3-10,0560_eid_s02_16-3-10_car_10_n02814533_24935.png
subject-02,1,561,0.743912935256958,chair,chair,1-3-10,0561_eid_s02_1-3-10_chair_10_n03376595_1149.png
subject-02,1,562,0.803786993026733,cat,keyboard,128-3-10,0562_eid_s02_128-3-10_keyboard_10_n03085013_20837.png
subject-02,1,563,0.781448841094971,bottle,bottle,8-3-10,0563_eid_s02_8-3-10_bottle_10_n03983396_8552.png
subject-02,1,564,0.981215000152588,bird,elephant,64-3-10,0564_eid_s02_64-3-10_elephant_10_n02504013_7746.png
subject-02,1,565,0.735086917877197,keyboard,keyboard,2-3-10,0565_eid_s02_2-3-10_keyboard_10_n04505470_3941.png
subject-02,1,566,1.04501795768738,bear,cat,2-3-10,0566_eid_s02_2-3-10_cat_10_n02125311_15293.png
subject-02,1,567,1.04865694046021,dog,clock,64-3-10,0567_eid_s02_64-3-10_clock_10_n04548280_11068.png
subject-02,1,568,0.984864950180054,elephant,elephant,1-3-10,0568_eid_s02_1-3-10_elephant_10_n02504013_6615.png
subject-02,1,569,0.872391939163208,dog,dog,2-3-10,0569_eid_s02_2-3-10_dog_10_n02093428_16887.png
subject-02,1,570,1.06617784500122,boat,truck,128-3-10,0570_eid_s02_128-3-10_truck_10_n03796401_7487.png
subject-02,1,571,0.928086996078491,bird,bird,2-3-10,0571_eid_s02_2-3-10_bird_10_n01534433_26061.png
subject-02,1,572,1.17571306228638,chair,chair,2-3-10,0572_eid_s02_2-3-10_chair_10_n04099969_24235.png
subject-02,1,573,1.03153586387634,clock,bottle,64-3-10,0573_eid_s02_64-3-10_bottle_10_n04591713_2826.png
subject-02,1,574,0.753556966781616,boat,boat,2-3-10,0574_eid_s02_2-3-10_boat_10_n02951358_34051.png
subject-02,1,575,0.921409845352173,car,car,1-3-10,0575_eid_s02_1-3-10_car_10_n04285008_16856.png
subject-02,1,576,1.08907604217529,car,oven,8-3-10,0576_eid_s02_8-3-10_oven_10_n04111531_5473.png
subject-02,1,577,0.852879047393799,clock,clock,2-3-10,0577_eid_s02_2-3-10_clock_10_n04548280_6792.png
subject-02,1,578,1.13099002838135,airplane,truck,32-3-10,0578_eid_s02_32-3-10_truck_10_n04467665_4940.png
subject-02,1,579,1.05642700195312,bird,boat,8-3-10,0579_eid_s02_8-3-10_boat_10_n04612504_1613.png
subject-02,1,580,1.20248293876648,truck,truck,1-3-10,0580_eid_s02_1-3-10_truck_10_n03417042_3845.png
subject-02,1,581,0.948303937911987,clock,chair,128-3-10,0581_eid_s02_128-3-10_chair_10_n04099969_44784.png
subject-02,1,582,0.969722032546997,boat,oven,64-3-10,0582_eid_s02_64-3-10_oven_10_n04111531_807.png
subject-02,1,583,1.19174480438232,dog,cat,128-3-10,0583_eid_s02_128-3-10_cat_10_n02123394_141.png
subject-02,1,584,1.02759909629822,oven,bear,8-3-10,0584_eid_s02_8-3-10_bear_10_n02133161_12161.png
subject-02,1,585,0.96349310874939,airplane,airplane,16-3-10,0585_eid_s02_16-3-10_airplane_10_n02690373_7093.png
subject-02,1,586,1.02929186820984,dog,dog,2-3-10,0586_eid_s02_2-3-10_dog_10_n02106382_5226.png
subject-02,1,587,0.829055786132812,cat,knife,16-3-10,0587_eid_s02_16-3-10_knife_10_n03041632_32004.png
subject-02,1,588,0.966921091079712,chair,boat,1-3-10,0588_eid_s02_1-3-10_boat_10_n03344393_8545.png
subject-02,1,589,0.892977952957153,car,car,1-3-10,0589_eid_s02_1-3-10_car_10_n03100240_84.png
subject-02,1,590,1.35038495063782,knife,chair,1-3-10,0590_eid_s02_1-3-10_chair_10_n02791124_1788.png
subject-02,1,591,0.868709087371826,cat,oven,32-3-10,0591_eid_s02_32-3-10_oven_10_n04111531_22797.png
subject-02,1,592,0.920145988464355,airplane,airplane,4-3-10,0592_eid_s02_4-3-10_airplane_10_n02690373_5992.png
subject-02,1,593,1.12418913841248,truck,keyboard,32-3-10,0593_eid_s02_32-3-10_keyboard_10_n04505470_8244.png
subject-02,1,594,0.883588075637817,chair,chair,1-3-10,0594_eid_s02_1-3-10_chair_10_n03376595_12524.png
subject-02,1,595,0.865582942962646,knife,knife,8-3-10,0595_eid_s02_8-3-10_knife_10_n03041632_14132.png
subject-02,1,596,0.793239116668701,cat,elephant,128-3-10,0596_eid_s02_128-3-10_elephant_10_n02504458_12165.png
subject-02,1,597,0.893125057220459,bear,boat,8-3-10,0597_eid_s02_8-3-10_boat_10_n03662601_17352.png
subject-02,1,598,1.28684306144714,airplane,bear,32-3-10,0598_eid_s02_32-3-10_bear_10_n02134084_22032.png
subject-02,1,599,0.814671039581299,bicycle,bicycle,1-3-10,0599_eid_s02_1-3-10_bicycle_10_n02835271_15468.png
subject-02,1,600,0.928524971008301,airplane,keyboard,16-3-10,0600_eid_s02_16-3-10_keyboard_10_n03085013_10984.png
subject-02,1,601,0.658334970474243,oven,elephant,32-3-10,0601_eid_s02_32-3-10_elephant_10_n02504013_7553.png
subject-02,1,602,0.940176010131836,oven,elephant,4-3-10,0602_eid_s02_4-3-10_elephant_10_n02504013_7271.png
subject-02,1,603,0.920335054397583,truck,truck,8-3-10,0603_eid_s02_8-3-10_truck_10_n03417042_12133.png
subject-02,1,604,0.871715068817139,keyboard,keyboard,4-3-10,0604_eid_s02_4-3-10_keyboard_10_n04505470_4492.png
subject-02,1,605,1.05758905410767,bear,bear,1-3-10,0605_eid_s02_1-3-10_bear_10_n02133161_1656.png
subject-02,1,606,0.827338218688965,cat,oven,32-3-10,0606_eid_s02_32-3-10_oven_10_n04111531_2027.png
subject-02,1,607,0.839337110519409,boat,clock,32-3-10,0607_eid_s02_32-3-10_clock_10_n03196217_11445.png
subject-02,1,608,0.812965869903564,cat,oven,1-3-10,0608_eid_s02_1-3-10_oven_10_n04111531_19274.png
subject-02,1,609,0.981269121170044,dog,oven,128-3-10,0609_eid_s02_128-3-10_oven_10_n04111531_14848.png
subject-02,1,610,0.80460786819458,keyboard,keyboard,16-3-10,0610_eid_s02_16-3-10_keyboard_10_n04505470_2737.png
subject-02,1,611,1.1467969417572,chair,bicycle,64-3-10,0611_eid_s02_64-3-10_bicycle_10_n03792782_20007.png
subject-02,1,612,1.03225493431091,dog,chair,128-3-10,0612_eid_s02_128-3-10_chair_10_n04429376_9165.png
subject-02,1,613,0.942264080047607,dog,dog,16-3-10,0613_eid_s02_16-3-10_dog_10_n02094258_2981.png
subject-02,1,614,0.916048049926758,elephant,elephant,2-3-10,0614_eid_s02_2-3-10_elephant_10_n02504013_10793.png
subject-02,1,615,0.953732013702393,car,car,1-3-10,0615_eid_s02_1-3-10_car_10_n02814533_4726.png
subject-02,1,616,1.047611951828,elephant,cat,2-3-10,0616_eid_s02_2-3-10_cat_10_n02125311_22949.png
subject-02,1,617,0.895295858383179,cat,airplane,64-3-10,0617_eid_s02_64-3-10_airplane_10_n02690373_2162.png
subject-02,1,618,1.02507209777832,chair,dog,16-3-10,0618_eid_s02_16-3-10_dog_10_n02108000_1538.png
subject-02,1,619,1.13093709945679,truck,chair,32-3-10,0619_eid_s02_32-3-10_chair_10_n04429376_29223.png
subject-02,1,620,1.12687301635742,car,car,2-3-10,0620_eid_s02_2-3-10_car_10_n03100240_6836.png
subject-02,1,621,0.996603965759277,dog,dog,8-3-10,0621_eid_s02_8-3-10_dog_10_n02098286_2242.png
subject-02,1,622,1.19034695625305,bottle,bottle,2-3-10,0622_eid_s02_2-3-10_bottle_10_n03937543_6003.png
subject-02,1,623,1.10627818107605,clock,boat,16-3-10,0623_eid_s02_16-3-10_boat_10_n02951358_1360.png
subject-02,1,624,0.962044954299927,dog,chair,128-3-10,0624_eid_s02_128-3-10_chair_10_n02791124_622.png
subject-02,1,625,0.785984992980957,cat,cat,1-3-10,0625_eid_s02_1-3-10_cat_10_n02124075_5369.png
subject-02,1,626,0.696167945861816,oven,elephant,64-3-10,0626_eid_s02_64-3-10_elephant_10_n02504013_6823.png
subject-02,1,627,0.80781102180481,dog,bird,16-3-10,0627_eid_s02_16-3-10_bird_10_n01614925_6637.png
subject-02,1,628,0.835166931152344,bear,bear,2-3-10,0628_eid_s02_2-3-10_bear_10_n02133161_10167.png
subject-02,1,629,0.871113777160645,bear,bear,2-3-10,0629_eid_s02_2-3-10_bear_10_n02134418_2254.png
subject-02,1,630,1.07102799415588,bicycle,bottle,128-3-10,0630_eid_s02_128-3-10_bottle_10_n02823428_1154.png
subject-02,1,631,1.50010180473328,dog,dog,2-3-10,0631_eid_s02_2-3-10_dog_10_n02090622_5368.png
subject-02,1,632,1.00295305252075,bird,clock,64-3-10,0632_eid_s02_64-3-10_clock_10_n03196217_7971.png
subject-02,1,633,1.05431509017944,airplane,elephant,32-3-10,0633_eid_s02_32-3-10_elephant_10_n02504458_7818.png
subject-02,1,634,1.04411816596985,bear,bear,2-3-10,0634_eid_s02_2-3-10_bear_10_n02133161_10314.png
subject-02,1,635,0.887984037399292,keyboard,keyboard,2-3-10,0635_eid_s02_2-3-10_keyboard_10_n03085013_7858.png
subject-02,1,636,0.666131019592285,bottle,bottle,1-3-10,0636_eid_s02_1-3-10_bottle_10_n04560804_9169.png
subject-02,1,637,0.731663942337036,elephant,knife,32-3-10,0637_eid_s02_32-3-10_knife_10_n03041632_23667.png
subject-02,1,638,0.805615901947021,oven,keyboard,32-3-10,0638_eid_s02_32-3-10_keyboard_10_n03085013_15484.png
subject-02,1,639,0.795164823532104,car,car,2-3-10,0639_eid_s02_2-3-10_car_10_n03100240_9387.png
subject-02,1,640,0.712911128997803,clock,truck,32-3-10,0640_eid_s02_32-3-10_truck_10_n04467665_50927.png
subject-02,1,641,0.804728984832764,car,car,8-3-10,0641_eid_s02_8-3-10_car_10_n04285008_2395.png
subject-02,1,642,0.878530025482178,keyboard,keyboard,1-3-10,0642_eid_s02_1-3-10_keyboard_10_n04505470_1351.png
subject-02,1,643,0.772248983383179,oven,clock,128-3-10,0643_eid_s02_128-3-10_clock_10_n02708093_3638.png
subject-02,1,644,0.888084888458252,bicycle,bicycle,2-3-10,0644_eid_s02_2-3-10_bicycle_10_n03792782_4559.png
subject-02,1,645,0.795847177505493,boat,boat,1-3-10,0645_eid_s02_1-3-10_boat_10_n04612504_11387.png
subject-02,1,646,0.87568187713623,keyboard,keyboard,2-3-10,0646_eid_s02_2-3-10_keyboard_10_n03085013_24192.png
subject-02,1,647,1.10748600959778,dog,boat,32-3-10,0647_eid_s02_32-3-10_boat_10_n03344393_2142.png
subject-02,1,648,1.02544093132019,truck,truck,4-3-10,0648_eid_s02_4-3-10_truck_10_n04467665_71098.png
subject-02,1,649,1.15513610839844,airplane,truck,16-3-10,0649_eid_s02_16-3-10_truck_10_n04467665_906.png
subject-02,1,650,0.97294807434082,cat,knife,64-3-10,0650_eid_s02_64-3-10_knife_10_n03041632_18304.png
subject-02,1,651,1.05479288101196,cat,bird,32-3-10,0651_eid_s02_32-3-10_bird_10_n01797886_21510.png
subject-02,1,652,1.05048704147339,airplane,airplane,16-3-10,0652_eid_s02_16-3-10_airplane_10_n02690373_20042.png
subject-02,1,653,1.00861501693726,dog,dog,1-3-10,0653_eid_s02_1-3-10_dog_10_n02093256_5845.png
subject-02,1,654,0.874370813369751,cat,keyboard,128-3-10,0654_eid_s02_128-3-10_keyboard_10_n03085013_7879.png
subject-02,1,655,1.0803701877594,chair,bicycle,1-3-10,0655_eid_s02_1-3-10_bicycle_10_n02835271_15717.png
subject-02,1,656,1.09599184989929,bird,bottle,32-3-10,0656_eid_s02_32-3-10_bottle_10_n02823428_13488.png
subject-02,1,657,0.935666084289551,oven,keyboard,128-3-10,0657_eid_s02_128-3-10_keyboard_10_n04505470_4467.png
subject-02,1,658,1.11154699325562,bear,elephant,16-3-10,0658_eid_s02_16-3-10_elephant_10_n02504013_2431.png
subject-02,1,659,1.02524495124817,dog,dog,8-3-10,0659_eid_s02_8-3-10_dog_10_n02099267_15002.png
subject-02,1,660,0.951043128967285,clock,clock,2-3-10,0660_eid_s02_2-3-10_clock_10_n04548280_319.png
subject-02,1,661,1.0233039855957,elephant,clock,64-3-10,0661_eid_s02_64-3-10_clock_10_n02708093_2875.png
subject-02,1,662,1.0191330909729,chair,chair,64-3-10,0662_eid_s02_64-3-10_chair_10_n04099969_48169.png
subject-02,1,663,0.780562877655029,car,car,8-3-10,0663_eid_s02_8-3-10_car_10_n02814533_43990.png
subject-02,1,664,0.928344964981079,bicycle,bear,64-3-10,0664_eid_s02_64-3-10_bear_10_n02134084_134.png
subject-02,1,665,0.712538003921509,cat,cat,1-3-10,0665_eid_s02_1-3-10_cat_10_n02123159_4157.png
subject-02,1,666,1.34795522689819,truck,truck,2-3-10,0666_eid_s02_2-3-10_truck_10_n03417042_2978.png
subject-02,1,667,1.24179100990295,clock,oven,2-3-10,0667_eid_s02_2-3-10_oven_10_n04111531_2797.png
subject-02,1,668,0.761781930923462,boat,cat,64-3-10,0668_eid_s02_64-3-10_cat_10_n02123159_1102.png
subject-02,1,669,1.11152005195618,bear,bear,1-3-10,0669_eid_s02_1-3-10_bear_10_n02133161_2851.png
subject-02,1,670,1.12521600723267,boat,chair,16-3-10,0670_eid_s02_16-3-10_chair_10_n04429376_3426.png
subject-02,1,671,1.05897402763367,cat,cat,128-3-10,0671_eid_s02_128-3-10_cat_10_n02123394_6505.png
subject-02,1,672,0.936787128448486,cat,airplane,128-3-10,0672_eid_s02_128-3-10_airplane_10_n02690373_8740.png
subject-02,1,673,0.920609951019287,boat,boat,8-3-10,0673_eid_s02_8-3-10_boat_10_n02951358_4128.png
subject-02,1,674,1.092609167099,dog,bottle,16-3-10,0674_eid_s02_16-3-10_bottle_10_n02823428_7704.png
subject-02,1,675,0.85634708404541,clock,clock,2-3-10,0675_eid_s02_2-3-10_clock_10_n03196217_10424.png
subject-02,1,676,1.31006908416748,bird,bear,32-3-10,0676_eid_s02_32-3-10_bear_10_n02133161_628.png
subject-02,1,677,0.8680100440979,cat,cat,8-3-10,0677_eid_s02_8-3-10_cat_10_n02123159_988.png
subject-02,1,678,1.25018906593323,car,bear,32-3-10,0678_eid_s02_32-3-10_bear_10_n02134418_280.png
subject-02,1,679,0.87959098815918,cat,cat,1-3-10,0679_eid_s02_1-3-10_cat_10_n02123159_4519.png
subject-02,1,680,0.953732967376709,airplane,airplane,4-3-10,0680_eid_s02_4-3-10_airplane_10_n02690373_6682.png
subject-02,1,681,0.955091953277588,boat,car,64-3-10,0681_eid_s02_64-3-10_car_10_n04285008_2887.png
subject-02,1,682,0.827081918716431,clock,bicycle,32-3-10,0682_eid_s02_32-3-10_bicycle_10_n02835271_12288.png
subject-02,1,683,1.28281402587891,chair,knife,4-3-10,0683_eid_s02_4-3-10_knife_10_n03041632_24181.png
subject-02,1,684,0.676549911499023,boat,boat,4-3-10,0684_eid_s02_4-3-10_boat_10_n03344393_7614.png
subject-02,1,685,0.826433897018433,car,car,4-3-10,0685_eid_s02_4-3-10_car_10_n03100240_310.png
subject-02,1,686,1.04212808609009,bicycle,dog,64-3-10,0686_eid_s02_64-3-10_dog_10_n02100236_4549.png
subject-02,1,687,1.02412104606628,bottle,bottle,2-3-10,0687_eid_s02_2-3-10_bottle_10_n04579145_215.png
subject-02,1,688,1.23434114456177,cat,airplane,16-3-10,0688_eid_s02_16-3-10_airplane_10_n02690373_8611.png
subject-02,1,689,1.00374698638916,cat,knife,128-3-10,0689_eid_s02_128-3-10_knife_10_n03041632_18468.png
subject-02,1,690,1.10762214660645,airplane,dog,64-3-10,0690_eid_s02_64-3-10_dog_10_n02090379_605.png
subject-02,1,691,1.00350785255432,airplane,clock,16-3-10,0691_eid_s02_16-3-10_clock_10_n02708093_6857.png
subject-02,1,692,1.02299404144287,oven,truck,64-3-10,0692_eid_s02_64-3-10_truck_10_n04467665_64792.png
subject-02,1,693,0.995249032974243,keyboard,keyboard,1-3-10,0693_eid_s02_1-3-10_keyboard_10_n04505470_2608.png
subject-02,1,694,1.02295517921448,chair,chair,4-3-10,0694_eid_s02_4-3-10_chair_10_n04429376_16370.png
subject-02,1,695,0.988430976867676,boat,keyboard,64-3-10,0695_eid_s02_64-3-10_keyboard_10_n03085013_26532.png
subject-02,1,696,1.07028388977051,oven,oven,8-3-10,0696_eid_s02_8-3-10_oven_10_n04111531_8793.png
subject-02,1,697,1.01614212989807,airplane,airplane,1-3-10,0697_eid_s02_1-3-10_airplane_10_n02690373_427.png
subject-02,1,698,1.17800116539001,chair,chair,8-3-10,0698_eid_s02_8-3-10_chair_10_n03376595_2667.png
subject-02,1,699,1.1377739906311,chair,bird,2-3-10,0699_eid_s02_2-3-10_bird_10_n01843383_277.png
subject-02,1,700,1.11006212234497,bottle,knife,32-3-10,0700_eid_s02_32-3-10_knife_10_n03041632_30286.png
subject-02,1,701,0.953794002532959,knife,knife,4-3-10,0701_eid_s02_4-3-10_knife_10_n03041632_15431.png
subject-02,1,702,0.929296016693115,cat,cat,1-3-10,0702_eid_s02_1-3-10_cat_10_n02123045_5387.png
subject-02,1,703,0.841027975082397,keyboard,keyboard,2-3-10,0703_eid_s02_2-3-10_keyboard_10_n03085013_19416.png
subject-02,1,704,1.27497410774231,bicycle,clock,8-3-10,0704_eid_s02_8-3-10_clock_10_n03196217_564.png
subject-02,1,705,0.942766904830933,boat,keyboard,64-3-10,0705_eid_s02_64-3-10_keyboard_10_n03085013_20849.png
subject-02,1,706,0.960468053817749,car,car,4-3-10,0706_eid_s02_4-3-10_car_10_n04285008_13595.png
subject-02,1,707,0.966403007507324,oven,oven,4-3-10,0707_eid_s02_4-3-10_oven_10_n04111531_6217.png
subject-02,1,708,1.12606501579285,cat,cat,128-3-10,0708_eid_s02_128-3-10_cat_10_n02123045_8784.png
subject-02,1,709,0.920480012893677,chair,chair,4-3-10,0709_eid_s02_4-3-10_chair_10_n04099969_195.png
subject-02,1,710,0.969839811325073,bicycle,chair,32-3-10,0710_eid_s02_32-3-10_chair_10_n03376595_6115.png
subject-02,1,711,1.40373682975769,airplane,boat,32-3-10,0711_eid_s02_32-3-10_boat_10_n03662601_5423.png
subject-02,1,712,0.885508060455322,boat,bear,32-3-10,0712_eid_s02_32-3-10_bear_10_n02132136_1795.png
subject-02,1,713,0.975285053253174,cat,bicycle,128-3-10,0713_eid_s02_128-3-10_bicycle_10_n03792782_26306.png
subject-02,1,714,0.863312005996704,airplane,airplane,1-3-10,0714_eid_s02_1-3-10_airplane_10_n02690373_6314.png
subject-02,1,715,1.49871802330017,elephant,bear,16-3-10,0715_eid_s02_16-3-10_bear_10_n02132136_33437.png
subject-02,1,716,0.954752206802368,airplane,airplane,4-3-10,0716_eid_s02_4-3-10_airplane_10_n02690373_7075.png
subject-02,1,717,0.746427059173584,cat,bicycle,32-3-10,0717_eid_s02_32-3-10_bicycle_10_n02835271_8203.png
subject-02,1,718,0.982195854187012,bird,bird,2-3-10,0718_eid_s02_2-3-10_bird_10_n01828970_6924.png
subject-02,1,719,1.00839400291443,airplane,airplane,4-3-10,0719_eid_s02_4-3-10_airplane_10_n02690373_744.png
subject-02,1,720,0.995915174484253,car,bottle,2-3-10,0720_eid_s02_2-3-10_bottle_10_n04591713_3085.png
subject-02,1,721,1.01986813545227,cat,clock,16-3-10,0721_eid_s02_16-3-10_clock_10_n04548280_6134.png
subject-02,1,722,0.929234981536865,elephant,elephant,4-3-10,0722_eid_s02_4-3-10_elephant_10_n02504013_8270.png
subject-02,1,723,0.855072975158691,bird,bird,4-3-10,0723_eid_s02_4-3-10_bird_10_n02056570_8865.png
subject-02,1,724,1.0929388999939,airplane,chair,16-3-10,0724_eid_s02_16-3-10_chair_10_n03376595_6864.png
subject-02,1,725,1.45706987380981,boat,knife,128-3-10,0725_eid_s02_128-3-10_knife_10_n03041632_38535.png
subject-02,1,726,0.812530040740967,cat,bird,32-3-10,0726_eid_s02_32-3-10_bird_10_n02009229_6228.png
subject-02,1,727,0.926526069641113,cat,bicycle,16-3-10,0727_eid_s02_16-3-10_bicycle_10_n02835271_5152.png
subject-02,1,728,0.930334806442261,bear,bear,32-3-10,0728_eid_s02_32-3-10_bear_10_n02134084_11781.png
subject-02,1,729,0.864061117172241,cat,dog,64-3-10,0729_eid_s02_64-3-10_dog_10_n02092002_6122.png
subject-02,1,730,0.915789127349854,bicycle,bicycle,1-3-10,0730_eid_s02_1-3-10_bicycle_10_n02835271_790.png
subject-02,1,731,0.893669843673706,cat,airplane,32-3-10,0731_eid_s02_32-3-10_airplane_10_n02690373_349.png
subject-02,1,732,1.11336302757263,bear,bear,32-3-10,0732_eid_s02_32-3-10_bear_10_n02132136_6641.png
subject-02,1,733,0.899270057678223,bear,bear,2-3-10,0733_eid_s02_2-3-10_bear_10_n02134084_14360.png
subject-02,1,734,1.19304013252258,oven,bird,8-3-10,0734_eid_s02_8-3-10_bird_10_n02056570_9935.png
subject-02,1,735,NaN,na,knife,8-3-10,0735_eid_s02_8-3-10_knife_10_n03041632_30958.png
subject-02,1,736,0.768644094467163,cat,boat,32-3-10,0736_eid_s02_32-3-10_boat_10_n03662601_19840.png
subject-02,1,737,0.920667886734009,knife,knife,2-3-10,0737_eid_s02_2-3-10_knife_10_n03041632_43436.png
subject-02,1,738,1.15035200119019,clock,clock,4-3-10,0738_eid_s02_4-3-10_clock_10_n04548280_2522.png
subject-02,1,739,0.926208972930908,cat,keyboard,32-3-10,0739_eid_s02_32-3-10_keyboard_10_n03085013_24336.png
subject-02,1,740,0.899960994720459,keyboard,keyboard,1-3-10,0740_eid_s02_1-3-10_keyboard_10_n03085013_3539.png
subject-02,1,741,1.24179887771606,bear,chair,16-3-10,0741_eid_s02_16-3-10_chair_10_n02791124_5238.png
subject-02,1,742,1.1134660243988,bear,bear,8-3-10,0742_eid_s02_8-3-10_bear_10_n02133161_15481.png
subject-02,1,743,0.963299036026001,keyboard,keyboard,8-3-10,0743_eid_s02_8-3-10_keyboard_10_n04505470_4905.png
subject-02,1,744,0.849148035049438,oven,knife,128-3-10,0744_eid_s02_128-3-10_knife_10_n03041632_25498.png
subject-02,1,745,0.867121934890747,cat,bird,128-3-10,0745_eid_s02_128-3-10_bird_10_n01560419_5447.png
subject-02,1,746,1.20672988891602,bird,bird,2-3-10,0746_eid_s02_2-3-10_bird_10_n02037110_27907.png
subject-02,1,747,1.17643904685974,dog,clock,16-3-10,0747_eid_s02_16-3-10_clock_10_n03196217_10352.png
subject-02,1,748,0.954767942428589,cat,bottle,64-3-10,0748_eid_s02_64-3-10_bottle_10_n02823428_12997.png
subject-02,1,749,1.36416292190552,elephant,bear,1-3-10,0749_eid_s02_1-3-10_bear_10_n02132136_2346.png
subject-02,1,750,1.16407299041748,car,car,1-3-10,0750_eid_s02_1-3-10_car_10_n03100240_2052.png
subject-02,1,751,1.09778594970703,keyboard,keyboard,4-3-10,0751_eid_s02_4-3-10_keyboard_10_n04505470_7721.png
subject-02,1,752,0.825568914413452,cat,car,64-3-10,0752_eid_s02_64-3-10_car_10_n03100240_10126.png
subject-02,1,753,1.19553995132446,bicycle,elephant,1-3-10,0753_eid_s02_1-3-10_elephant_10_n02504013_23590.png
subject-02,1,754,0.839321136474609,boat,bottle,64-3-10,0754_eid_s02_64-3-10_bottle_10_n04591713_6961.png
subject-02,1,755,0.961242198944092,dog,dog,4-3-10,0755_eid_s02_4-3-10_dog_10_n02097658_1775.png
subject-02,1,756,1.1968789100647,elephant,elephant,1-3-10,0756_eid_s02_1-3-10_elephant_10_n02504458_4058.png
subject-02,1,757,0.906748056411743,bicycle,bicycle,4-3-10,0757_eid_s02_4-3-10_bicycle_10_n02835271_21464.png
subject-02,1,758,1.0047299861908,boat,airplane,64-3-10,0758_eid_s02_64-3-10_airplane_10_n02690373_3377.png
subject-02,1,759,1.12441301345825,bicycle,bicycle,8-3-10,0759_eid_s02_8-3-10_bicycle_10_n03792782_6841.png
subject-02,1,760,1.08033013343811,cat,bird,16-3-10,0760_eid_s02_16-3-10_bird_10_n01819313_5388.png
subject-02,1,761,1.09995293617249,bird,bird,16-3-10,0761_eid_s02_16-3-10_bird_10_n01532829_4776.png
subject-02,1,762,0.931948900222778,bottle,bottle,1-3-10,0762_eid_s02_1-3-10_bottle_10_n04560804_23356.png
subject-02,1,763,0.91186785697937,chair,chair,1-3-10,0763_eid_s02_1-3-10_chair_10_n04099969_9425.png
subject-02,1,764,0.829456090927124,keyboard,keyboard,8-3-10,0764_eid_s02_8-3-10_keyboard_10_n03085013_20884.png
subject-02,1,765,0.899288177490234,elephant,elephant,2-3-10,0765_eid_s02_2-3-10_elephant_10_n02504013_7001.png
subject-02,1,766,1.02136087417603,bottle,chair,2-3-10,0766_eid_s02_2-3-10_chair_10_n04429376_6496.png
subject-02,1,767,1.0089750289917,boat,knife,32-3-10,0767_eid_s02_32-3-10_knife_10_n03041632_39883.png
subject-02,1,768,0.972517967224121,boat,airplane,64-3-10,0768_eid_s02_64-3-10_airplane_10_n02690373_7107.png
subject-02,1,769,0.906575918197632,cat,airplane,32-3-10,0769_eid_s02_32-3-10_airplane_10_n02690373_5130.png
subject-02,1,770,0.974545001983643,bicycle,boat,64-3-10,0770_eid_s02_64-3-10_boat_10_n03344393_8642.png
subject-02,1,771,0.912183046340942,oven,bottle,128-3-10,0771_eid_s02_128-3-10_bottle_10_n03937543_6624.png
subject-02,1,772,0.923938035964966,cat,knife,64-3-10,0772_eid_s02_64-3-10_knife_10_n03041632_17285.png
subject-02,1,773,1.06773710250854,airplane,truck,16-3-10,0773_eid_s02_16-3-10_truck_10_n03796401_4311.png
subject-02,1,774,0.903609991073608,bicycle,bicycle,1-3-10,0774_eid_s02_1-3-10_bicycle_10_n03792782_5404.png
subject-02,1,775,0.829778909683228,cat,bear,128-3-10,0775_eid_s02_128-3-10_bear_10_n02133161_13089.png
subject-02,1,776,0.691288948059082,cat,knife,16-3-10,0776_eid_s02_16-3-10_knife_10_n03041632_11358.png
subject-02,1,777,1.15723991394043,bear,clock,32-3-10,0777_eid_s02_32-3-10_clock_10_n02708093_2545.png
subject-02,1,778,0.702799081802368,clock,clock,1-3-10,0778_eid_s02_1-3-10_clock_10_n04548280_18914.png
subject-02,1,779,0.866943120956421,bear,oven,64-3-10,0779_eid_s02_64-3-10_oven_10_n04111531_4817.png
subject-02,1,780,0.808525085449219,cat,bear,128-3-10,0780_eid_s02_128-3-10_bear_10_n02133161_13139.png
subject-02,1,781,1.05468106269836,oven,elephant,64-3-10,0781_eid_s02_64-3-10_elephant_10_n02504013_3418.png
subject-02,1,782,0.946074962615967,bottle,clock,4-3-10,0782_eid_s02_4-3-10_clock_10_n03196217_1376.png
subject-02,1,783,0.809798955917358,truck,truck,2-3-10,0783_eid_s02_2-3-10_truck_10_n03417042_6247.png
subject-02,1,784,0.892187118530273,bird,bird,4-3-10,0784_eid_s02_4-3-10_bird_10_n01537544_20.png
subject-02,1,785,0.717551231384277,clock,clock,2-3-10,0785_eid_s02_2-3-10_clock_10_n04548280_3352.png
subject-02,1,786,0.793489217758179,boat,boat,64-3-10,0786_eid_s02_64-3-10_boat_10_n02951358_35073.png
subject-02,1,787,0.859248876571655,bottle,bottle,1-3-10,0787_eid_s02_1-3-10_bottle_10_n03937543_1358.png
subject-02,1,788,0.799040079116821,truck,truck,1-3-10,0788_eid_s02_1-3-10_truck_10_n03417042_7869.png
subject-02,1,789,0.892829895019531,truck,truck,4-3-10,0789_eid_s02_4-3-10_truck_10_n03417042_21758.png
subject-02,1,790,0.710684061050415,truck,truck,2-3-10,0790_eid_s02_2-3-10_truck_10_n03417042_15482.png
subject-02,1,791,0.982372045516968,clock,clock,8-3-10,0791_eid_s02_8-3-10_clock_10_n02708093_1975.png
subject-02,1,792,0.726435899734497,keyboard,keyboard,4-3-10,0792_eid_s02_4-3-10_keyboard_10_n04505470_1371.png
subject-02,1,793,0.702088117599487,car,car,8-3-10,0793_eid_s02_8-3-10_car_10_n04285008_13094.png
subject-02,1,794,0.769967079162598,car,truck,4-3-10,0794_eid_s02_4-3-10_truck_10_n03417042_6654.png
subject-02,1,795,0.687774896621704,cat,cat,4-3-10,0795_eid_s02_4-3-10_cat_10_n02124075_521.png
subject-02,1,796,0.65550684928894,boat,boat,2-3-10,0796_eid_s02_2-3-10_boat_10_n04273569_7039.png
subject-02,1,797,0.66123104095459,clock,clock,1-3-10,0797_eid_s02_1-3-10_clock_10_n03196217_5399.png
subject-02,1,798,0.693156957626343,car,car,1-3-10,0798_eid_s02_1-3-10_car_10_n02814533_37110.png
subject-02,1,799,1.13496017456055,dog,bicycle,8-3-10,0799_eid_s02_8-3-10_bicycle_10_n02835271_11921.png
subject-02,1,800,0.706643104553223,cat,bird,32-3-10,0800_eid_s02_32-3-10_bird_10_n01531178_24471.png
subject-02,1,801,0.966506958007812,cat,airplane,64-3-10,0801_eid_s02_64-3-10_airplane_10_n02690373_1053.png
subject-02,1,802,0.768418073654175,oven,oven,4-3-10,0802_eid_s02_4-3-10_oven_10_n04111531_12903.png
subject-02,1,803,0.83026385307312,cat,car,32-3-10,0803_eid_s02_32-3-10_car_10_n04285008_4331.png
subject-02,1,804,1.00600504875183,airplane,truck,32-3-10,0804_eid_s02_32-3-10_truck_10_n03417042_5180.png
subject-02,1,805,0.893634080886841,cat,chair,64-3-10,0805_eid_s02_64-3-10_chair_10_n04429376_22670.png
subject-02,1,806,0.839488983154297,elephant,elephant,4-3-10,0806_eid_s02_4-3-10_elephant_10_n02504458_12449.png
subject-02,1,807,0.7671959400177,cat,dog,64-3-10,0807_eid_s02_64-3-10_dog_10_n02091244_9305.png
subject-02,1,808,1.23319578170776,bicycle,bicycle,4-3-10,0808_eid_s02_4-3-10_bicycle_10_n03792782_6152.png
subject-02,1,809,0.860800981521606,oven,oven,2-3-10,0809_eid_s02_2-3-10_oven_10_n04111531_16696.png
subject-02,1,810,0.897089004516602,truck,truck,1-3-10,0810_eid_s02_1-3-10_truck_10_n03417042_19596.png
subject-02,1,811,0.75871205329895,bottle,bottle,2-3-10,0811_eid_s02_2-3-10_bottle_10_n04591713_3608.png
subject-02,1,812,0.784512042999268,elephant,elephant,1-3-10,0812_eid_s02_1-3-10_elephant_10_n02504013_3425.png
subject-02,1,813,0.610161781311035,cat,cat,128-3-10,0813_eid_s02_128-3-10_cat_10_n02124075_12350.png
subject-02,1,814,0.834071159362793,oven,car,32-3-10,0814_eid_s02_32-3-10_car_10_n03100240_7935.png
subject-02,1,815,0.757979154586792,bottle,bottle,4-3-10,0815_eid_s02_4-3-10_bottle_10_n03983396_2305.png
subject-02,1,816,0.685971975326538,cat,bottle,4-3-10,0816_eid_s02_4-3-10_bottle_10_n04557648_11642.png
subject-02,1,817,0.725440979003906,clock,clock,8-3-10,0817_eid_s02_8-3-10_clock_10_n02708093_394.png
subject-02,1,818,0.82721996307373,bird,chair,16-3-10,0818_eid_s02_16-3-10_chair_10_n04099969_28601.png
subject-02,1,819,0.659170866012573,clock,clock,1-3-10,0819_eid_s02_1-3-10_clock_10_n02708093_4597.png
subject-02,1,820,0.798923969268799,oven,keyboard,1-3-10,0820_eid_s02_1-3-10_keyboard_10_n03085013_20709.png
subject-02,1,821,0.942656993865967,knife,knife,2-3-10,0821_eid_s02_2-3-10_knife_10_n03041632_8321.png
subject-02,1,822,0.768396854400635,keyboard,keyboard,2-3-10,0822_eid_s02_2-3-10_keyboard_10_n03085013_2676.png
subject-02,1,823,0.716315984725952,boat,bottle,32-3-10,0823_eid_s02_32-3-10_bottle_10_n04579145_2276.png
subject-02,1,824,0.664201974868774,oven,oven,1-3-10,0824_eid_s02_1-3-10_oven_10_n04111531_22834.png
subject-02,1,825,0.643753051757812,cat,cat,4-3-10,0825_eid_s02_4-3-10_cat_10_n02125311_58887.png
subject-02,1,826,0.904186964035034,bird,elephant,64-3-10,0826_eid_s02_64-3-10_elephant_10_n02504458_6132.png
subject-02,1,827,0.66545295715332,cat,truck,128-3-10,0827_eid_s02_128-3-10_truck_10_n03417042_8998.png
subject-02,1,828,0.731353044509888,bear,oven,32-3-10,0828_eid_s02_32-3-10_oven_10_n04111531_681.png
subject-02,1,829,0.629320859909058,cat,bicycle,64-3-10,0829_eid_s02_64-3-10_bicycle_10_n02835271_1344.png
subject-02,1,830,1.41103601455688,bear,cat,1-3-10,0830_eid_s02_1-3-10_cat_10_n02125311_7527.png
subject-02,1,831,0.910912036895752,clock,bicycle,8-3-10,0831_eid_s02_8-3-10_bicycle_10_n03792782_63054.png
subject-02,1,832,0.770661115646362,cat,dog,2-3-10,0832_eid_s02_2-3-10_dog_10_n02090721_2242.png
subject-02,1,833,0.820385932922363,cat,oven,4-3-10,0833_eid_s02_4-3-10_oven_10_n04111531_2199.png
subject-02,1,834,0.836302995681763,truck,truck,2-3-10,0834_eid_s02_2-3-10_truck_10_n04467665_7975.png
subject-02,1,835,0.658241033554077,bottle,bottle,4-3-10,0835_eid_s02_4-3-10_bottle_10_n03937543_2143.png
subject-02,1,836,1.0037989616394,dog,bear,64-3-10,0836_eid_s02_64-3-10_bear_10_n02133161_5267.png
subject-02,1,837,0.743583202362061,cat,oven,64-3-10,0837_eid_s02_64-3-10_oven_10_n04111531_605.png
subject-02,1,838,0.833901882171631,airplane,airplane,8-3-10,0838_eid_s02_8-3-10_airplane_10_n02690373_945.png
subject-02,1,839,0.707213163375854,car,car,4-3-10,0839_eid_s02_4-3-10_car_10_n02814533_18077.png
subject-02,1,840,0.661185026168823,bird,cat,64-3-10,0840_eid_s02_64-3-10_cat_10_n02123597_4700.png
subject-02,1,841,0.882964134216309,bear,dog,16-3-10,0841_eid_s02_16-3-10_dog_10_n02096051_5524.png
subject-02,1,842,0.854687929153442,bottle,keyboard,8-3-10,0842_eid_s02_8-3-10_keyboard_10_n03085013_8339.png
subject-02,1,843,0.730739831924438,airplane,airplane,1-3-10,0843_eid_s02_1-3-10_airplane_10_n02690373_1235.png
subject-02,1,844,0.750630855560303,boat,bird,32-3-10,0844_eid_s02_32-3-10_bird_10_n02028035_6827.png
subject-02,1,845,0.840095043182373,car,chair,4-3-10,0845_eid_s02_4-3-10_chair_10_n02791124_7987.png
subject-02,1,846,0.771946907043457,boat,boat,2-3-10,0846_eid_s02_2-3-10_boat_10_n04612504_27320.png
subject-02,1,847,0.748044013977051,cat,bear,64-3-10,0847_eid_s02_64-3-10_bear_10_n02132136_11217.png
subject-02,1,848,0.869630098342896,dog,bicycle,128-3-10,0848_eid_s02_128-3-10_bicycle_10_n03792782_15757.png
subject-02,1,849,0.731354951858521,boat,boat,2-3-10,0849_eid_s02_2-3-10_boat_10_n03344393_4221.png
subject-02,1,850,0.89716100692749,cat,knife,128-3-10,0850_eid_s02_128-3-10_knife_10_n03041632_7119.png
subject-02,1,851,0.912860870361328,bird,cat,32-3-10,0851_eid_s02_32-3-10_cat_10_n02123045_4252.png
subject-02,1,852,0.932732105255127,elephant,airplane,64-3-10,0852_eid_s02_64-3-10_airplane_10_n02690373_303.png
subject-02,1,853,1.03074789047241,oven,oven,16-3-10,0853_eid_s02_16-3-10_oven_10_n04111531_10064.png
subject-02,1,854,1.01456308364868,airplane,airplane,16-3-10,0854_eid_s02_16-3-10_airplane_10_n02690373_1044.png
subject-02,1,855,0.852245807647705,bird,bird,4-3-10,0855_eid_s02_4-3-10_bird_10_n01855672_14476.png
subject-02,1,856,0.794113874435425,bicycle,bicycle,4-3-10,0856_eid_s02_4-3-10_bicycle_10_n02835271_8180.png
subject-02,1,857,0.881893873214722,bird,oven,16-3-10,0857_eid_s02_16-3-10_oven_10_n04111531_14329.png
subject-02,1,858,0.846061944961548,knife,knife,2-3-10,0858_eid_s02_2-3-10_knife_10_n03041632_30666.png
subject-02,1,859,0.847491025924683,knife,knife,1-3-10,0859_eid_s02_1-3-10_knife_10_n03041632_36247.png
subject-02,1,860,0.767317771911621,knife,knife,16-3-10,0860_eid_s02_16-3-10_knife_10_n03041632_47234.png
subject-02,1,861,0.791184902191162,cat,truck,64-3-10,0861_eid_s02_64-3-10_truck_10_n04467665_4492.png
subject-02,1,862,0.917069911956787,car,car,16-3-10,0862_eid_s02_16-3-10_car_10_n04285008_3651.png
subject-02,1,863,NaN,na,bicycle,64-3-10,0863_eid_s02_64-3-10_bicycle_10_n03792782_551.png
subject-02,1,864,0.680484056472778,car,car,4-3-10,0864_eid_s02_4-3-10_car_10_n03100240_13673.png
subject-02,1,865,0.760349988937378,boat,truck,8-3-10,0865_eid_s02_8-3-10_truck_10_n04467665_80629.png
subject-02,1,866,1.05032706260681,dog,dog,4-3-10,0866_eid_s02_4-3-10_dog_10_n02086240_1183.png
subject-02,1,867,0.744025945663452,cat,truck,128-3-10,0867_eid_s02_128-3-10_truck_10_n03796401_6923.png
subject-02,1,868,1.00593900680542,oven,keyboard,8-3-10,0868_eid_s02_8-3-10_keyboard_10_n03085013_15504.png
subject-02,1,869,1.19562292098999,cat,bear,16-3-10,0869_eid_s02_16-3-10_bear_10_n02133161_2400.png
subject-02,1,870,1.23559308052063,chair,dog,128-3-10,0870_eid_s02_128-3-10_dog_10_n02113624_4844.png
subject-02,1,871,0.699187994003296,cat,bottle,128-3-10,0871_eid_s02_128-3-10_bottle_10_n03937543_7191.png
subject-02,1,872,0.937391042709351,dog,bicycle,16-3-10,0872_eid_s02_16-3-10_bicycle_10_n03792782_1682.png
subject-02,1,873,0.732856035232544,cat,oven,128-3-10,0873_eid_s02_128-3-10_oven_10_n04111531_9702.png
subject-02,1,874,0.774758815765381,car,car,1-3-10,0874_eid_s02_1-3-10_car_10_n02814533_49499.png
subject-02,1,875,0.770614862442017,keyboard,keyboard,4-3-10,0875_eid_s02_4-3-10_keyboard_10_n04505470_4452.png
subject-02,1,876,0.862420082092285,keyboard,keyboard,2-3-10,0876_eid_s02_2-3-10_keyboard_10_n03085013_29042.png
subject-02,1,877,0.714215040206909,cat,cat,1-3-10,0877_eid_s02_1-3-10_cat_10_n02123394_384.png
subject-02,1,878,0.964317798614502,elephant,elephant,1-3-10,0878_eid_s02_1-3-10_elephant_10_n02504458_6878.png
subject-02,1,879,1.13771605491638,bird,boat,8-3-10,0879_eid_s02_8-3-10_boat_10_n03344393_5177.png
subject-02,1,880,0.959610939025879,chair,chair,4-3-10,0880_eid_s02_4-3-10_chair_10_n04099969_2398.png
subject-02,1,881,0.76328706741333,boat,boat,4-3-10,0881_eid_s02_4-3-10_boat_10_n03662601_14818.png
subject-02,1,882,0.839427947998047,bird,bird,2-3-10,0882_eid_s02_2-3-10_bird_10_n02011460_9401.png
subject-02,1,883,1.15289306640625,bear,bear,1-3-10,0883_eid_s02_1-3-10_bear_10_n02134418_2569.png
subject-02,1,884,0.852690935134888,cat,truck,32-3-10,0884_eid_s02_32-3-10_truck_10_n03417042_11062.png
subject-02,1,885,0.886632204055786,boat,bicycle,64-3-10,0885_eid_s02_64-3-10_bicycle_10_n02835271_1721.png
subject-02,1,886,0.896679162979126,elephant,elephant,1-3-10,0886_eid_s02_1-3-10_elephant_10_n02504013_2984.png
subject-02,1,887,0.666394948959351,cat,clock,64-3-10,0887_eid_s02_64-3-10_clock_10_n03196217_1187.png
subject-02,1,888,0.660160779953003,airplane,airplane,2-3-10,0888_eid_s02_2-3-10_airplane_10_n02690373_6978.png
subject-02,1,889,0.867890119552612,boat,boat,2-3-10,0889_eid_s02_2-3-10_boat_10_n03662601_23315.png
subject-02,1,890,NaN,na,dog,8-3-10,0890_eid_s02_8-3-10_dog_10_n02105056_1381.png
subject-02,1,891,1.00543618202209,knife,oven,2-3-10,0891_eid_s02_2-3-10_oven_10_n04111531_3902.png
subject-02,1,892,0.713202953338623,boat,chair,128-3-10,0892_eid_s02_128-3-10_chair_10_n03376595_4033.png
subject-02,1,893,0.682983875274658,cat,cat,16-3-10,0893_eid_s02_16-3-10_cat_10_n02123394_3322.png
subject-02,1,894,0.99694299697876,cat,chair,4-3-10,0894_eid_s02_4-3-10_chair_10_n04429376_11813.png
subject-02,1,895,1.17877411842346,cat,knife,16-3-10,0895_eid_s02_16-3-10_knife_10_n03041632_8528.png
subject-02,1,896,0.73085880279541,airplane,airplane,2-3-10,0896_eid_s02_2-3-10_airplane_10_n02690373_19345.png
subject-02,1,897,0.774294137954712,cat,cat,64-3-10,0897_eid_s02_64-3-10_cat_10_n02123159_7386.png
subject-02,1,898,0.750298976898193,boat,boat,1-3-10,0898_eid_s02_1-3-10_boat_10_n02951358_1136.png
subject-02,1,899,0.765967130661011,cat,oven,64-3-10,0899_eid_s02_64-3-10_oven_10_n04111531_2922.png
subject-02,1,900,1.0576651096344,dog,bear,128-3-10,0900_eid_s02_128-3-10_bear_10_n02134084_635.png
subject-02,1,901,1.02764487266541,bird,bear,8-3-10,0901_eid_s02_8-3-10_bear_10_n02132136_648.png
subject-02,1,902,0.757426977157593,cat,boat,32-3-10,0902_eid_s02_32-3-10_boat_10_n04273569_5593.png
subject-02,1,903,0.651278972625732,oven,knife,16-3-10,0903_eid_s02_16-3-10_knife_10_n03041632_52371.png
subject-02,1,904,0.693140983581543,bottle,bottle,8-3-10,0904_eid_s02_8-3-10_bottle_10_n04557648_4974.png
subject-02,1,905,0.752809047698975,cat,boat,32-3-10,0905_eid_s02_32-3-10_boat_10_n02951358_12867.png
subject-02,1,906,0.786537170410156,chair,chair,1-3-10,0906_eid_s02_1-3-10_chair_10_n04099969_755.png
subject-02,1,907,0.888459205627441,dog,bear,8-3-10,0907_eid_s02_8-3-10_bear_10_n02134418_2187.png
subject-02,1,908,1.16636395454407,knife,cat,16-3-10,0908_eid_s02_16-3-10_cat_10_n02125311_15099.png
subject-02,1,909,0.646018981933594,boat,bird,128-3-10,0909_eid_s02_128-3-10_bird_10_n02017213_15742.png
subject-02,1,910,0.757972002029419,cat,bird,64-3-10,0910_eid_s02_64-3-10_bird_10_n01614925_19422.png
subject-02,1,911,0.619879961013794,airplane,airplane,8-3-10,0911_eid_s02_8-3-10_airplane_10_n02690373_2851.png
subject-02,1,912,0.919588088989258,elephant,elephant,2-3-10,0912_eid_s02_2-3-10_elephant_10_n02504013_2549.png
subject-02,1,913,0.729273080825806,cat,bicycle,128-3-10,0913_eid_s02_128-3-10_bicycle_10_n02835271_14544.png
subject-02,1,914,1.02113795280457,bicycle,airplane,16-3-10,0914_eid_s02_16-3-10_airplane_10_n02690373_5714.png
subject-02,1,915,0.83683705329895,bear,bear,1-3-10,0915_eid_s02_1-3-10_bear_10_n02133161_4223.png
subject-02,1,916,0.92668890953064,clock,clock,4-3-10,0916_eid_s02_4-3-10_clock_10_n04548280_5096.png
subject-02,1,917,0.922890901565552,cat,boat,32-3-10,0917_eid_s02_32-3-10_boat_10_n04273569_9604.png
subject-02,1,918,0.928431034088135,cat,keyboard,64-3-10,0918_eid_s02_64-3-10_keyboard_10_n03085013_20852.png
subject-02,1,919,0.944341897964478,cat,bird,8-3-10,0919_eid_s02_8-3-10_bird_10_n01820546_1941.png
subject-02,1,920,0.873843908309937,cat,cat,8-3-10,0920_eid_s02_8-3-10_cat_10_n02124075_5729.png
subject-02,1,921,1.17195701599121,oven,clock,2-3-10,0921_eid_s02_2-3-10_clock_10_n03196217_7759.png
subject-02,1,922,1.09352898597717,elephant,elephant,8-3-10,0922_eid_s02_8-3-10_elephant_10_n02504013_8930.png
subject-02,1,923,0.821568965911865,boat,boat,1-3-10,0923_eid_s02_1-3-10_boat_10_n04273569_4136.png
subject-02,1,924,0.713357925415039,clock,clock,2-3-10,0924_eid_s02_2-3-10_clock_10_n03196217_11657.png
subject-02,1,925,0.797128200531006,cat,boat,16-3-10,0925_eid_s02_16-3-10_boat_10_n03662601_5915.png
subject-02,1,926,1.09283304214478,bear,elephant,16-3-10,0926_eid_s02_16-3-10_elephant_10_n02504013_1900.png
subject-02,1,927,0.796700954437256,car,car,8-3-10,0927_eid_s02_8-3-10_car_10_n02814533_3573.png
subject-02,1,928,0.826445817947388,keyboard,keyboard,8-3-10,0928_eid_s02_8-3-10_keyboard_10_n04505470_1903.png
subject-02,1,929,0.832231998443604,cat,bottle,32-3-10,0929_eid_s02_32-3-10_bottle_10_n04560804_16815.png
subject-02,1,930,0.780237197875977,boat,boat,4-3-10,0930_eid_s02_4-3-10_boat_10_n02951358_12333.png
subject-02,1,931,1.16199707984924,chair,elephant,2-3-10,0931_eid_s02_2-3-10_elephant_10_n02504458_1210.png
subject-02,1,932,0.799807071685791,cat,dog,64-3-10,0932_eid_s02_64-3-10_dog_10_n02087046_15420.png
subject-02,1,933,0.857503890991211,bird,truck,64-3-10,0933_eid_s02_64-3-10_truck_10_n03417042_25947.png
subject-02,1,934,0.751420021057129,clock,clock,8-3-10,0934_eid_s02_8-3-10_clock_10_n02708093_2717.png
subject-02,1,935,0.879157066345215,chair,chair,2-3-10,0935_eid_s02_2-3-10_chair_10_n03376595_6518.png
subject-02,1,936,0.869320154190063,bicycle,bicycle,8-3-10,0936_eid_s02_8-3-10_bicycle_10_n02835271_20099.png
subject-02,1,937,0.826714038848877,bottle,bottle,4-3-10,0937_eid_s02_4-3-10_bottle_10_n02823428_6731.png
subject-02,1,938,0.94658899307251,cat,knife,32-3-10,0938_eid_s02_32-3-10_knife_10_n03041632_51617.png
subject-02,1,939,0.752855062484741,bird,bird,1-3-10,0939_eid_s02_1-3-10_bird_10_n02033041_4140.png
subject-02,1,940,1.24029302597046,knife,dog,2-3-10,0940_eid_s02_2-3-10_dog_10_n02088364_11105.png
subject-02,1,941,0.892161130905151,chair,chair,4-3-10,0941_eid_s02_4-3-10_chair_10_n02791124_2023.png
subject-02,1,942,0.767971992492676,cat,keyboard,128-3-10,0942_eid_s02_128-3-10_keyboard_10_n04505470_9457.png
subject-02,1,943,1.42771792411804,bottle,boat,1-3-10,0943_eid_s02_1-3-10_boat_10_n03344393_3337.png
subject-02,1,944,0.751793146133423,cat,boat,64-3-10,0944_eid_s02_64-3-10_boat_10_n03344393_6799.png
subject-02,1,945,0.895306825637817,truck,truck,4-3-10,0945_eid_s02_4-3-10_truck_10_n03417042_17215.png
subject-02,1,946,0.723128080368042,boat,dog,128-3-10,0946_eid_s02_128-3-10_dog_10_n02102177_4180.png
subject-02,1,947,0.820844888687134,knife,knife,1-3-10,0947_eid_s02_1-3-10_knife_10_n03041632_23129.png
subject-02,1,948,0.846678018569946,knife,knife,16-3-10,0948_eid_s02_16-3-10_knife_10_n03041632_23548.png
subject-02,1,949,0.682491064071655,cat,truck,64-3-10,0949_eid_s02_64-3-10_truck_10_n04467665_79576.png
subject-02,1,950,0.850358009338379,elephant,elephant,4-3-10,0950_eid_s02_4-3-10_elephant_10_n02504458_3951.png
subject-02,1,951,0.75812292098999,bird,bird,1-3-10,0951_eid_s02_1-3-10_bird_10_n02011460_6726.png
subject-02,1,952,0.808069944381714,boat,bird,4-3-10,0952_eid_s02_4-3-10_bird_10_n02018207_2282.png
subject-02,1,953,0.742011070251465,bicycle,bicycle,2-3-10,0953_eid_s02_2-3-10_bicycle_10_n02835271_3956.png
subject-02,1,954,0.853682994842529,car,car,4-3-10,0954_eid_s02_4-3-10_car_10_n02814533_95669.png
subject-02,1,955,0.869388818740845,bottle,bottle,1-3-10,0955_eid_s02_1-3-10_bottle_10_n03937543_2677.png
subject-02,1,956,0.795302152633667,boat,elephant,32-3-10,0956_eid_s02_32-3-10_elephant_10_n02504013_947.png
subject-02,1,957,0.891561031341553,airplane,airplane,32-3-10,0957_eid_s02_32-3-10_airplane_10_n02690373_2619.png
subject-02,1,958,0.748899936676025,cat,cat,64-3-10,0958_eid_s02_64-3-10_cat_10_n02125311_2869.png
subject-02,1,959,1.02861905097961,dog,oven,64-3-10,0959_eid_s02_64-3-10_oven_10_n04111531_3570.png
subject-02,1,960,0.718401908874512,bear,bear,1-3-10,0960_eid_s02_1-3-10_bear_10_n02134418_9829.png
subject-02,1,961,0.683377027511597,cat,car,64-3-10,0961_eid_s02_64-3-10_car_10_n03100240_9101.png
subject-02,1,962,0.841183185577393,bear,cat,64-3-10,0962_eid_s02_64-3-10_cat_10_n02123159_9450.png
subject-02,1,963,0.732894897460938,cat,bicycle,128-3-10,0963_eid_s02_128-3-10_bicycle_10_n03792782_3815.png
subject-02,1,964,0.816642999649048,elephant,elephant,4-3-10,0964_eid_s02_4-3-10_elephant_10_n02504013_6065.png
subject-02,1,965,0.906577110290527,car,car,2-3-10,0965_eid_s02_2-3-10_car_10_n04285008_8641.png
subject-02,1,966,0.674556970596313,airplane,airplane,8-3-10,0966_eid_s02_8-3-10_airplane_10_n02690373_7535.png
subject-02,1,967,0.850300073623657,cat,clock,128-3-10,0967_eid_s02_128-3-10_clock_10_n04548280_377.png
subject-02,1,968,0.729907035827637,bottle,bottle,4-3-10,0968_eid_s02_4-3-10_bottle_10_n03983396_4300.png
subject-02,1,969,0.809972047805786,dog,elephant,32-3-10,0969_eid_s02_32-3-10_elephant_10_n02504013_4071.png
subject-02,1,970,0.743618011474609,car,car,4-3-10,0970_eid_s02_4-3-10_car_10_n02814533_45150.png
subject-02,1,971,1.31734299659729,bottle,bottle,8-3-10,0971_eid_s02_8-3-10_bottle_10_n04591713_715.png
subject-02,1,972,1.03511905670166,bird,bird,1-3-10,0972_eid_s02_1-3-10_bird_10_n01560419_19608.png
subject-02,1,973,0.760973930358887,bear,bear,8-3-10,0973_eid_s02_8-3-10_bear_10_n02134418_1642.png
