subj,session,trial,rt,object_response,category,condition,imagename
swag_regnety_16gf_in1k,1,1,NaN,dog,car,64-3-10,0001_eid_dnn_64-3-10_car_10_n04285008_8113.png
swag_regnety_16gf_in1k,1,2,NaN,bottle,oven,8-3-10,0002_eid_dnn_8-3-10_oven_10_n04111531_11848.png
swag_regnety_16gf_in1k,1,3,NaN,airplane,truck,8-3-10,0003_eid_dnn_8-3-10_truck_10_n03417042_25458.png
swag_regnety_16gf_in1k,1,4,NaN,bear,chair,16-3-10,0004_eid_dnn_16-3-10_chair_10_n03376595_6208.png
swag_regnety_16gf_in1k,1,5,NaN,dog,cat,32-3-10,0005_eid_dnn_32-3-10_cat_10_n02123045_12084.png
swag_regnety_16gf_in1k,1,6,NaN,keyboard,keyboard,8-3-10,0006_eid_dnn_8-3-10_keyboard_10_n03085013_20884.png
swag_regnety_16gf_in1k,1,7,NaN,airplane,airplane,4-3-10,0007_eid_dnn_4-3-10_airplane_10_n02690373_5992.png
swag_regnety_16gf_in1k,1,8,NaN,clock,bear,32-3-10,0008_eid_dnn_32-3-10_bear_10_n02132136_6641.png
swag_regnety_16gf_in1k,1,9,NaN,oven,oven,2-3-10,0009_eid_dnn_2-3-10_oven_10_n04111531_2797.png
swag_regnety_16gf_in1k,1,10,NaN,airplane,airplane,2-3-10,0010_eid_dnn_2-3-10_airplane_10_n02690373_7457.png
swag_regnety_16gf_in1k,1,11,NaN,bear,truck,16-3-10,0011_eid_dnn_16-3-10_truck_10_n03796401_2751.png
swag_regnety_16gf_in1k,1,12,NaN,bear,bear,2-3-10,0012_eid_dnn_2-3-10_bear_10_n02134418_860.png
swag_regnety_16gf_in1k,1,13,NaN,knife,knife,4-3-10,0013_eid_dnn_4-3-10_knife_10_n03041632_2058.png
swag_regnety_16gf_in1k,1,14,NaN,dog,airplane,32-3-10,0014_eid_dnn_32-3-10_airplane_10_n02690373_10510.png
swag_regnety_16gf_in1k,1,15,NaN,dog,keyboard,64-3-10,0015_eid_dnn_64-3-10_keyboard_10_n03085013_6313.png
swag_regnety_16gf_in1k,1,16,NaN,airplane,bicycle,4-3-10,0016_eid_dnn_4-3-10_bicycle_10_n02835271_6278.png
swag_regnety_16gf_in1k,1,17,NaN,keyboard,keyboard,2-3-10,0017_eid_dnn_2-3-10_keyboard_10_n03085013_24192.png
swag_regnety_16gf_in1k,1,18,NaN,car,car,2-3-10,0018_eid_dnn_2-3-10_car_10_n04285008_8255.png
swag_regnety_16gf_in1k,1,19,NaN,airplane,airplane,2-3-10,0019_eid_dnn_2-3-10_airplane_10_n02690373_4591.png
swag_regnety_16gf_in1k,1,20,NaN,airplane,airplane,4-3-10,0020_eid_dnn_4-3-10_airplane_10_n02690373_7075.png
swag_regnety_16gf_in1k,1,21,NaN,bicycle,bicycle,4-3-10,0021_eid_dnn_4-3-10_bicycle_10_n02835271_21464.png
swag_regnety_16gf_in1k,1,22,NaN,dog,car,64-3-10,0022_eid_dnn_64-3-10_car_10_n03100240_362.png
swag_regnety_16gf_in1k,1,23,NaN,dog,truck,32-3-10,0023_eid_dnn_32-3-10_truck_10_n04467665_50927.png
swag_regnety_16gf_in1k,1,24,NaN,airplane,car,16-3-10,0024_eid_dnn_16-3-10_car_10_n04285008_3651.png
swag_regnety_16gf_in1k,1,25,NaN,bottle,bottle,8-3-10,0025_eid_dnn_8-3-10_bottle_10_n04557648_4974.png
swag_regnety_16gf_in1k,1,26,NaN,dog,bird,16-3-10,0026_eid_dnn_16-3-10_bird_10_n01537544_23499.png
swag_regnety_16gf_in1k,1,27,NaN,boat,boat,1-3-10,0027_eid_dnn_1-3-10_boat_10_n04612504_11387.png
swag_regnety_16gf_in1k,1,28,NaN,bottle,bottle,4-3-10,0028_eid_dnn_4-3-10_bottle_10_n03983396_4300.png
swag_regnety_16gf_in1k,1,29,NaN,dog,bottle,64-3-10,0029_eid_dnn_64-3-10_bottle_10_n04591713_6961.png
swag_regnety_16gf_in1k,1,30,NaN,dog,clock,128-3-10,0030_eid_dnn_128-3-10_clock_10_n02708093_3361.png
swag_regnety_16gf_in1k,1,31,NaN,dog,truck,32-3-10,0031_eid_dnn_32-3-10_truck_10_n03417042_18374.png
swag_regnety_16gf_in1k,1,32,NaN,dog,knife,64-3-10,0032_eid_dnn_64-3-10_knife_10_n03041632_36280.png
swag_regnety_16gf_in1k,1,33,NaN,airplane,bird,8-3-10,0033_eid_dnn_8-3-10_bird_10_n01614925_47.png
swag_regnety_16gf_in1k,1,34,NaN,bicycle,bicycle,8-3-10,0034_eid_dnn_8-3-10_bicycle_10_n02835271_20099.png
swag_regnety_16gf_in1k,1,35,NaN,bear,bear,4-3-10,0035_eid_dnn_4-3-10_bear_10_n02134084_12070.png
swag_regnety_16gf_in1k,1,36,NaN,bottle,bottle,8-3-10,0036_eid_dnn_8-3-10_bottle_10_n02823428_8525.png
swag_regnety_16gf_in1k,1,37,NaN,airplane,truck,32-3-10,0037_eid_dnn_32-3-10_truck_10_n04467665_37953.png
swag_regnety_16gf_in1k,1,38,NaN,dog,oven,128-3-10,0038_eid_dnn_128-3-10_oven_10_n04111531_4868.png
swag_regnety_16gf_in1k,1,39,NaN,airplane,boat,32-3-10,0039_eid_dnn_32-3-10_boat_10_n03662601_19840.png
swag_regnety_16gf_in1k,1,40,NaN,bear,truck,8-3-10,0040_eid_dnn_8-3-10_truck_10_n04467665_9331.png
swag_regnety_16gf_in1k,1,41,NaN,dog,dog,64-3-10,0041_eid_dnn_64-3-10_dog_10_n02111277_16090.png
swag_regnety_16gf_in1k,1,42,NaN,keyboard,bottle,4-3-10,0042_eid_dnn_4-3-10_bottle_10_n02823428_6731.png
swag_regnety_16gf_in1k,1,43,NaN,dog,elephant,8-3-10,0043_eid_dnn_8-3-10_elephant_10_n02504013_8930.png
swag_regnety_16gf_in1k,1,44,NaN,car,car,4-3-10,0044_eid_dnn_4-3-10_car_10_n03100240_13673.png
swag_regnety_16gf_in1k,1,45,NaN,knife,bird,128-3-10,0045_eid_dnn_128-3-10_bird_10_n02018207_6819.png
swag_regnety_16gf_in1k,1,46,NaN,elephant,elephant,4-3-10,0046_eid_dnn_4-3-10_elephant_10_n02504013_6065.png
swag_regnety_16gf_in1k,1,47,NaN,cat,cat,1-3-10,0047_eid_dnn_1-3-10_cat_10_n02123394_384.png
swag_regnety_16gf_in1k,1,48,NaN,dog,bicycle,16-3-10,0048_eid_dnn_16-3-10_bicycle_10_n02835271_12608.png
swag_regnety_16gf_in1k,1,49,NaN,chair,chair,2-3-10,0049_eid_dnn_2-3-10_chair_10_n03376595_13949.png
swag_regnety_16gf_in1k,1,50,NaN,dog,airplane,128-3-10,0050_eid_dnn_128-3-10_airplane_10_n02690373_3561.png
swag_regnety_16gf_in1k,1,51,NaN,dog,bicycle,32-3-10,0051_eid_dnn_32-3-10_bicycle_10_n02835271_8203.png
swag_regnety_16gf_in1k,1,52,NaN,bicycle,bicycle,2-3-10,0052_eid_dnn_2-3-10_bicycle_10_n03792782_5665.png
swag_regnety_16gf_in1k,1,53,NaN,dog,bicycle,128-3-10,0053_eid_dnn_128-3-10_bicycle_10_n02835271_15028.png
swag_regnety_16gf_in1k,1,54,NaN,clock,clock,1-3-10,0054_eid_dnn_1-3-10_clock_10_n04548280_3318.png
swag_regnety_16gf_in1k,1,55,NaN,dog,cat,128-3-10,0055_eid_dnn_128-3-10_cat_10_n02123045_8784.png
swag_regnety_16gf_in1k,1,56,NaN,dog,knife,128-3-10,0056_eid_dnn_128-3-10_knife_10_n03041632_3247.png
swag_regnety_16gf_in1k,1,57,NaN,dog,dog,8-3-10,0057_eid_dnn_8-3-10_dog_10_n02110185_11414.png
swag_regnety_16gf_in1k,1,58,NaN,dog,dog,32-3-10,0058_eid_dnn_32-3-10_dog_10_n02113712_2715.png
swag_regnety_16gf_in1k,1,59,NaN,bear,elephant,2-3-10,0059_eid_dnn_2-3-10_elephant_10_n02504458_1210.png
swag_regnety_16gf_in1k,1,60,NaN,dog,car,16-3-10,0060_eid_dnn_16-3-10_car_10_n02814533_32337.png
swag_regnety_16gf_in1k,1,61,NaN,car,car,4-3-10,0061_eid_dnn_4-3-10_car_10_n02814533_55326.png
swag_regnety_16gf_in1k,1,62,NaN,dog,knife,64-3-10,0062_eid_dnn_64-3-10_knife_10_n03041632_32774.png
swag_regnety_16gf_in1k,1,63,NaN,airplane,bicycle,8-3-10,0063_eid_dnn_8-3-10_bicycle_10_n02835271_11921.png
swag_regnety_16gf_in1k,1,64,NaN,dog,chair,32-3-10,0064_eid_dnn_32-3-10_chair_10_n03376595_6115.png
swag_regnety_16gf_in1k,1,65,NaN,dog,bear,16-3-10,0065_eid_dnn_16-3-10_bear_10_n02133161_79.png
swag_regnety_16gf_in1k,1,66,NaN,boat,boat,1-3-10,0066_eid_dnn_1-3-10_boat_10_n03662601_34796.png
swag_regnety_16gf_in1k,1,67,NaN,bird,bird,4-3-10,0067_eid_dnn_4-3-10_bird_10_n02051845_8976.png
swag_regnety_16gf_in1k,1,68,NaN,boat,boat,4-3-10,0068_eid_dnn_4-3-10_boat_10_n03344393_7362.png
swag_regnety_16gf_in1k,1,69,NaN,dog,car,32-3-10,0069_eid_dnn_32-3-10_car_10_n02814533_34289.png
swag_regnety_16gf_in1k,1,70,NaN,dog,keyboard,16-3-10,0070_eid_dnn_16-3-10_keyboard_10_n03085013_2166.png
swag_regnety_16gf_in1k,1,71,NaN,bear,bear,2-3-10,0071_eid_dnn_2-3-10_bear_10_n02133161_10167.png
swag_regnety_16gf_in1k,1,72,NaN,dog,keyboard,16-3-10,0072_eid_dnn_16-3-10_keyboard_10_n04505470_430.png
swag_regnety_16gf_in1k,1,73,NaN,keyboard,boat,128-3-10,0073_eid_dnn_128-3-10_boat_10_n03662601_17001.png
swag_regnety_16gf_in1k,1,74,NaN,dog,bear,128-3-10,0074_eid_dnn_128-3-10_bear_10_n02133161_5157.png
swag_regnety_16gf_in1k,1,75,NaN,boat,boat,2-3-10,0075_eid_dnn_2-3-10_boat_10_n02951358_17870.png
swag_regnety_16gf_in1k,1,76,NaN,dog,cat,64-3-10,0076_eid_dnn_64-3-10_cat_10_n02123159_1102.png
swag_regnety_16gf_in1k,1,77,NaN,dog,cat,32-3-10,0077_eid_dnn_32-3-10_cat_10_n02123045_4252.png
swag_regnety_16gf_in1k,1,78,NaN,keyboard,keyboard,2-3-10,0078_eid_dnn_2-3-10_keyboard_10_n04505470_4294.png
swag_regnety_16gf_in1k,1,79,NaN,truck,truck,2-3-10,0079_eid_dnn_2-3-10_truck_10_n04467665_1101.png
swag_regnety_16gf_in1k,1,80,NaN,dog,airplane,64-3-10,0080_eid_dnn_64-3-10_airplane_10_n02690373_2078.png
swag_regnety_16gf_in1k,1,81,NaN,dog,boat,64-3-10,0081_eid_dnn_64-3-10_boat_10_n04612504_5535.png
swag_regnety_16gf_in1k,1,82,NaN,airplane,cat,16-3-10,0082_eid_dnn_16-3-10_cat_10_n02125311_15099.png
swag_regnety_16gf_in1k,1,83,NaN,dog,airplane,64-3-10,0083_eid_dnn_64-3-10_airplane_10_n02690373_4671.png
swag_regnety_16gf_in1k,1,84,NaN,truck,truck,1-3-10,0084_eid_dnn_1-3-10_truck_10_n03417042_9062.png
swag_regnety_16gf_in1k,1,85,NaN,cat,cat,4-3-10,0085_eid_dnn_4-3-10_cat_10_n02123394_283.png
swag_regnety_16gf_in1k,1,86,NaN,car,car,1-3-10,0086_eid_dnn_1-3-10_car_10_n02814533_3375.png
swag_regnety_16gf_in1k,1,87,NaN,cat,cat,2-3-10,0087_eid_dnn_2-3-10_cat_10_n02124075_9706.png
swag_regnety_16gf_in1k,1,88,NaN,car,car,2-3-10,0088_eid_dnn_2-3-10_car_10_n04285008_10563.png
swag_regnety_16gf_in1k,1,89,NaN,dog,clock,64-3-10,0089_eid_dnn_64-3-10_clock_10_n03196217_3283.png
swag_regnety_16gf_in1k,1,90,NaN,dog,oven,128-3-10,0090_eid_dnn_128-3-10_oven_10_n04111531_21120.png
swag_regnety_16gf_in1k,1,91,NaN,bird,bird,1-3-10,0091_eid_dnn_1-3-10_bird_10_n01824575_6186.png
swag_regnety_16gf_in1k,1,92,NaN,dog,dog,4-3-10,0092_eid_dnn_4-3-10_dog_10_n02102318_11155.png
swag_regnety_16gf_in1k,1,93,NaN,cat,clock,16-3-10,0093_eid_dnn_16-3-10_clock_10_n04548280_2283.png
swag_regnety_16gf_in1k,1,94,NaN,dog,chair,128-3-10,0094_eid_dnn_128-3-10_chair_10_n03376595_18787.png
swag_regnety_16gf_in1k,1,95,NaN,keyboard,keyboard,8-3-10,0095_eid_dnn_8-3-10_keyboard_10_n04505470_1903.png
swag_regnety_16gf_in1k,1,96,NaN,airplane,clock,16-3-10,0096_eid_dnn_16-3-10_clock_10_n03196217_6185.png
swag_regnety_16gf_in1k,1,97,NaN,clock,clock,2-3-10,0097_eid_dnn_2-3-10_clock_10_n03196217_10424.png
swag_regnety_16gf_in1k,1,98,NaN,knife,knife,2-3-10,0098_eid_dnn_2-3-10_knife_10_n03041632_43436.png
swag_regnety_16gf_in1k,1,99,NaN,dog,dog,1-3-10,0099_eid_dnn_1-3-10_dog_10_n02093647_5955.png
swag_regnety_16gf_in1k,1,100,NaN,dog,boat,32-3-10,0100_eid_dnn_32-3-10_boat_10_n03662601_5423.png
swag_regnety_16gf_in1k,1,101,NaN,dog,keyboard,128-3-10,0101_eid_dnn_128-3-10_keyboard_10_n04505470_9457.png
swag_regnety_16gf_in1k,1,102,NaN,dog,knife,128-3-10,0102_eid_dnn_128-3-10_knife_10_n03041632_38535.png
swag_regnety_16gf_in1k,1,103,NaN,dog,elephant,8-3-10,0103_eid_dnn_8-3-10_elephant_10_n02504458_8141.png
swag_regnety_16gf_in1k,1,104,NaN,airplane,airplane,4-3-10,0104_eid_dnn_4-3-10_airplane_10_n02690373_9086.png
swag_regnety_16gf_in1k,1,105,NaN,bear,bicycle,16-3-10,0105_eid_dnn_16-3-10_bicycle_10_n03792782_19116.png
swag_regnety_16gf_in1k,1,106,NaN,elephant,elephant,4-3-10,0106_eid_dnn_4-3-10_elephant_10_n02504458_2343.png
swag_regnety_16gf_in1k,1,107,NaN,airplane,airplane,16-3-10,0107_eid_dnn_16-3-10_airplane_10_n02690373_7093.png
swag_regnety_16gf_in1k,1,108,NaN,dog,car,32-3-10,0108_eid_dnn_32-3-10_car_10_n03100240_7935.png
swag_regnety_16gf_in1k,1,109,NaN,dog,airplane,16-3-10,0109_eid_dnn_16-3-10_airplane_10_n02690373_8611.png
swag_regnety_16gf_in1k,1,110,NaN,bear,bear,2-3-10,0110_eid_dnn_2-3-10_bear_10_n02133161_7332.png
swag_regnety_16gf_in1k,1,111,NaN,car,car,2-3-10,0111_eid_dnn_2-3-10_car_10_n03100240_9387.png
swag_regnety_16gf_in1k,1,112,NaN,cat,cat,4-3-10,0112_eid_dnn_4-3-10_cat_10_n02124075_521.png
swag_regnety_16gf_in1k,1,113,NaN,dog,bottle,128-3-10,0113_eid_dnn_128-3-10_bottle_10_n04560804_3746.png
swag_regnety_16gf_in1k,1,114,NaN,bear,elephant,16-3-10,0114_eid_dnn_16-3-10_elephant_10_n02504458_1127.png
swag_regnety_16gf_in1k,1,115,NaN,knife,knife,8-3-10,0115_eid_dnn_8-3-10_knife_10_n03041632_14132.png
swag_regnety_16gf_in1k,1,116,NaN,oven,oven,1-3-10,0116_eid_dnn_1-3-10_oven_10_n04111531_18916.png
swag_regnety_16gf_in1k,1,117,NaN,knife,oven,1-3-10,0117_eid_dnn_1-3-10_oven_10_n04111531_19274.png
swag_regnety_16gf_in1k,1,118,NaN,bird,bird,2-3-10,0118_eid_dnn_2-3-10_bird_10_n01843383_277.png
swag_regnety_16gf_in1k,1,119,NaN,dog,boat,64-3-10,0119_eid_dnn_64-3-10_boat_10_n03344393_6799.png
swag_regnety_16gf_in1k,1,120,NaN,dog,dog,2-3-10,0120_eid_dnn_2-3-10_dog_10_n02093428_16887.png
swag_regnety_16gf_in1k,1,121,NaN,bear,elephant,64-3-10,0121_eid_dnn_64-3-10_elephant_10_n02504458_6163.png
swag_regnety_16gf_in1k,1,122,NaN,dog,bottle,64-3-10,0122_eid_dnn_64-3-10_bottle_10_n04591713_2826.png
swag_regnety_16gf_in1k,1,123,NaN,dog,bottle,64-3-10,0123_eid_dnn_64-3-10_bottle_10_n04557648_3598.png
swag_regnety_16gf_in1k,1,124,NaN,airplane,truck,8-3-10,0124_eid_dnn_8-3-10_truck_10_n04467665_80629.png
swag_regnety_16gf_in1k,1,125,NaN,bear,bear,4-3-10,0125_eid_dnn_4-3-10_bear_10_n02134084_6869.png
swag_regnety_16gf_in1k,1,126,NaN,bird,bird,1-3-10,0126_eid_dnn_1-3-10_bird_10_n01820546_4457.png
swag_regnety_16gf_in1k,1,127,NaN,dog,clock,64-3-10,0127_eid_dnn_64-3-10_clock_10_n04548280_7565.png
swag_regnety_16gf_in1k,1,128,NaN,bear,elephant,16-3-10,0128_eid_dnn_16-3-10_elephant_10_n02504458_98.png
swag_regnety_16gf_in1k,1,129,NaN,dog,bicycle,64-3-10,0129_eid_dnn_64-3-10_bicycle_10_n03792782_7143.png
swag_regnety_16gf_in1k,1,130,NaN,dog,dog,16-3-10,0130_eid_dnn_16-3-10_dog_10_n02096051_5524.png
swag_regnety_16gf_in1k,1,131,NaN,dog,cat,16-3-10,0131_eid_dnn_16-3-10_cat_10_n02123045_9465.png
swag_regnety_16gf_in1k,1,132,NaN,dog,cat,64-3-10,0132_eid_dnn_64-3-10_cat_10_n02123159_9450.png
swag_regnety_16gf_in1k,1,133,NaN,clock,clock,4-3-10,0133_eid_dnn_4-3-10_clock_10_n02708093_8204.png
swag_regnety_16gf_in1k,1,134,NaN,airplane,airplane,32-3-10,0134_eid_dnn_32-3-10_airplane_10_n02690373_2619.png
swag_regnety_16gf_in1k,1,135,NaN,car,car,2-3-10,0135_eid_dnn_2-3-10_car_10_n04285008_11295.png
swag_regnety_16gf_in1k,1,136,NaN,bear,bear,8-3-10,0136_eid_dnn_8-3-10_bear_10_n02133161_15481.png
swag_regnety_16gf_in1k,1,137,NaN,dog,truck,64-3-10,0137_eid_dnn_64-3-10_truck_10_n03417042_8139.png
swag_regnety_16gf_in1k,1,138,NaN,dog,bottle,16-3-10,0138_eid_dnn_16-3-10_bottle_10_n04557648_4490.png
swag_regnety_16gf_in1k,1,139,NaN,clock,clock,1-3-10,0139_eid_dnn_1-3-10_clock_10_n03196217_5399.png
swag_regnety_16gf_in1k,1,140,NaN,boat,boat,1-3-10,0140_eid_dnn_1-3-10_boat_10_n04273569_4136.png
swag_regnety_16gf_in1k,1,141,NaN,clock,clock,4-3-10,0141_eid_dnn_4-3-10_clock_10_n04548280_2127.png
swag_regnety_16gf_in1k,1,142,NaN,boat,boat,2-3-10,0142_eid_dnn_2-3-10_boat_10_n03344393_10038.png
swag_regnety_16gf_in1k,1,143,NaN,elephant,elephant,2-3-10,0143_eid_dnn_2-3-10_elephant_10_n02504013_10793.png
swag_regnety_16gf_in1k,1,144,NaN,dog,oven,128-3-10,0144_eid_dnn_128-3-10_oven_10_n04111531_6590.png
swag_regnety_16gf_in1k,1,145,NaN,dog,keyboard,16-3-10,0145_eid_dnn_16-3-10_keyboard_10_n03085013_10984.png
swag_regnety_16gf_in1k,1,146,NaN,bicycle,bicycle,2-3-10,0146_eid_dnn_2-3-10_bicycle_10_n02835271_14879.png
swag_regnety_16gf_in1k,1,147,NaN,dog,knife,64-3-10,0147_eid_dnn_64-3-10_knife_10_n03041632_22241.png
swag_regnety_16gf_in1k,1,148,NaN,dog,oven,64-3-10,0148_eid_dnn_64-3-10_oven_10_n04111531_892.png
swag_regnety_16gf_in1k,1,149,NaN,dog,bear,64-3-10,0149_eid_dnn_64-3-10_bear_10_n02134418_14850.png
swag_regnety_16gf_in1k,1,150,NaN,dog,knife,64-3-10,0150_eid_dnn_64-3-10_knife_10_n03041632_48071.png
swag_regnety_16gf_in1k,1,151,NaN,dog,clock,16-3-10,0151_eid_dnn_16-3-10_clock_10_n04548280_64.png
swag_regnety_16gf_in1k,1,152,NaN,dog,truck,64-3-10,0152_eid_dnn_64-3-10_truck_10_n03796401_6285.png
swag_regnety_16gf_in1k,1,153,NaN,airplane,airplane,4-3-10,0153_eid_dnn_4-3-10_airplane_10_n02690373_6682.png
swag_regnety_16gf_in1k,1,154,NaN,dog,knife,64-3-10,0154_eid_dnn_64-3-10_knife_10_n03041632_17285.png
swag_regnety_16gf_in1k,1,155,NaN,boat,boat,2-3-10,0155_eid_dnn_2-3-10_boat_10_n02951358_8184.png
swag_regnety_16gf_in1k,1,156,NaN,bear,bear,1-3-10,0156_eid_dnn_1-3-10_bear_10_n02132136_2346.png
swag_regnety_16gf_in1k,1,157,NaN,bear,bear,8-3-10,0157_eid_dnn_8-3-10_bear_10_n02134418_2187.png
swag_regnety_16gf_in1k,1,158,NaN,dog,cat,32-3-10,0158_eid_dnn_32-3-10_cat_10_n02124075_10162.png
swag_regnety_16gf_in1k,1,159,NaN,dog,truck,128-3-10,0159_eid_dnn_128-3-10_truck_10_n03417042_8998.png
swag_regnety_16gf_in1k,1,160,NaN,dog,cat,64-3-10,0160_eid_dnn_64-3-10_cat_10_n02123597_13835.png
swag_regnety_16gf_in1k,1,161,NaN,clock,clock,1-3-10,0161_eid_dnn_1-3-10_clock_10_n04548280_18914.png
swag_regnety_16gf_in1k,1,162,NaN,keyboard,keyboard,2-3-10,0162_eid_dnn_2-3-10_keyboard_10_n03085013_2676.png
swag_regnety_16gf_in1k,1,163,NaN,bear,airplane,16-3-10,0163_eid_dnn_16-3-10_airplane_10_n02690373_7600.png
swag_regnety_16gf_in1k,1,164,NaN,dog,chair,16-3-10,0164_eid_dnn_16-3-10_chair_10_n04429376_17917.png
swag_regnety_16gf_in1k,1,165,NaN,keyboard,keyboard,4-3-10,0165_eid_dnn_4-3-10_keyboard_10_n04505470_4492.png
swag_regnety_16gf_in1k,1,166,NaN,bear,bear,1-3-10,0166_eid_dnn_1-3-10_bear_10_n02134418_3148.png
swag_regnety_16gf_in1k,1,167,NaN,elephant,cat,4-3-10,0167_eid_dnn_4-3-10_cat_10_n02125311_20388.png
swag_regnety_16gf_in1k,1,168,NaN,dog,cat,64-3-10,0168_eid_dnn_64-3-10_cat_10_n02123394_2153.png
swag_regnety_16gf_in1k,1,169,NaN,clock,clock,1-3-10,0169_eid_dnn_1-3-10_clock_10_n04548280_5327.png
swag_regnety_16gf_in1k,1,170,NaN,cat,bicycle,8-3-10,0170_eid_dnn_8-3-10_bicycle_10_n03792782_63054.png
swag_regnety_16gf_in1k,1,171,NaN,bear,chair,32-3-10,0171_eid_dnn_32-3-10_chair_10_n03376595_14138.png
swag_regnety_16gf_in1k,1,172,NaN,elephant,elephant,2-3-10,0172_eid_dnn_2-3-10_elephant_10_n02504458_4849.png
swag_regnety_16gf_in1k,1,173,NaN,dog,dog,128-3-10,0173_eid_dnn_128-3-10_dog_10_n02113624_4844.png
swag_regnety_16gf_in1k,1,174,NaN,elephant,elephant,2-3-10,0174_eid_dnn_2-3-10_elephant_10_n02504013_2549.png
swag_regnety_16gf_in1k,1,175,NaN,airplane,bear,8-3-10,0175_eid_dnn_8-3-10_bear_10_n02134084_4593.png
swag_regnety_16gf_in1k,1,176,NaN,dog,bicycle,64-3-10,0176_eid_dnn_64-3-10_bicycle_10_n02835271_75.png
swag_regnety_16gf_in1k,1,177,NaN,truck,truck,4-3-10,0177_eid_dnn_4-3-10_truck_10_n03796401_20943.png
swag_regnety_16gf_in1k,1,178,NaN,knife,knife,2-3-10,0178_eid_dnn_2-3-10_knife_10_n03041632_32048.png
swag_regnety_16gf_in1k,1,179,NaN,cat,cat,1-3-10,0179_eid_dnn_1-3-10_cat_10_n02123159_3536.png
swag_regnety_16gf_in1k,1,180,NaN,bicycle,bicycle,1-3-10,0180_eid_dnn_1-3-10_bicycle_10_n03792782_6716.png
swag_regnety_16gf_in1k,1,181,NaN,clock,clock,2-3-10,0181_eid_dnn_2-3-10_clock_10_n03196217_1754.png
swag_regnety_16gf_in1k,1,182,NaN,bicycle,bicycle,1-3-10,0182_eid_dnn_1-3-10_bicycle_10_n03792782_5404.png
swag_regnety_16gf_in1k,1,183,NaN,clock,dog,64-3-10,0183_eid_dnn_64-3-10_dog_10_n02096294_3014.png
swag_regnety_16gf_in1k,1,184,NaN,bear,bear,4-3-10,0184_eid_dnn_4-3-10_bear_10_n02134084_23382.png
swag_regnety_16gf_in1k,1,185,NaN,car,car,4-3-10,0185_eid_dnn_4-3-10_car_10_n03100240_310.png
swag_regnety_16gf_in1k,1,186,NaN,dog,dog,4-3-10,0186_eid_dnn_4-3-10_dog_10_n02093256_1653.png
swag_regnety_16gf_in1k,1,187,NaN,elephant,elephant,4-3-10,0187_eid_dnn_4-3-10_elephant_10_n02504013_1740.png
swag_regnety_16gf_in1k,1,188,NaN,dog,bear,64-3-10,0188_eid_dnn_64-3-10_bear_10_n02134084_34375.png
swag_regnety_16gf_in1k,1,189,NaN,airplane,keyboard,8-3-10,0189_eid_dnn_8-3-10_keyboard_10_n03085013_23254.png
swag_regnety_16gf_in1k,1,190,NaN,knife,elephant,32-3-10,0190_eid_dnn_32-3-10_elephant_10_n02504013_1512.png
swag_regnety_16gf_in1k,1,191,NaN,airplane,car,8-3-10,0191_eid_dnn_8-3-10_car_10_n04285008_6454.png
swag_regnety_16gf_in1k,1,192,NaN,keyboard,keyboard,4-3-10,0192_eid_dnn_4-3-10_keyboard_10_n04505470_7721.png
swag_regnety_16gf_in1k,1,193,NaN,dog,keyboard,16-3-10,0193_eid_dnn_16-3-10_keyboard_10_n04505470_3388.png
swag_regnety_16gf_in1k,1,194,NaN,boat,boat,2-3-10,0194_eid_dnn_2-3-10_boat_10_n03344393_4221.png
swag_regnety_16gf_in1k,1,195,NaN,dog,cat,128-3-10,0195_eid_dnn_128-3-10_cat_10_n02123597_14361.png
swag_regnety_16gf_in1k,1,196,NaN,dog,bird,128-3-10,0196_eid_dnn_128-3-10_bird_10_n02006656_10058.png
swag_regnety_16gf_in1k,1,197,NaN,oven,clock,32-3-10,0197_eid_dnn_32-3-10_clock_10_n02708093_8104.png
swag_regnety_16gf_in1k,1,198,NaN,truck,truck,1-3-10,0198_eid_dnn_1-3-10_truck_10_n03417042_3845.png
swag_regnety_16gf_in1k,1,199,NaN,dog,boat,64-3-10,0199_eid_dnn_64-3-10_boat_10_n03662601_36741.png
swag_regnety_16gf_in1k,1,200,NaN,knife,knife,1-3-10,0200_eid_dnn_1-3-10_knife_10_n03041632_22570.png
swag_regnety_16gf_in1k,1,201,NaN,keyboard,keyboard,1-3-10,0201_eid_dnn_1-3-10_keyboard_10_n04505470_4109.png
swag_regnety_16gf_in1k,1,202,NaN,airplane,airplane,1-3-10,0202_eid_dnn_1-3-10_airplane_10_n02690373_10404.png
swag_regnety_16gf_in1k,1,203,NaN,elephant,elephant,4-3-10,0203_eid_dnn_4-3-10_elephant_10_n02504458_4725.png
swag_regnety_16gf_in1k,1,204,NaN,airplane,airplane,1-3-10,0204_eid_dnn_1-3-10_airplane_10_n02690373_1325.png
swag_regnety_16gf_in1k,1,205,NaN,dog,bicycle,8-3-10,0205_eid_dnn_8-3-10_bicycle_10_n03792782_6841.png
swag_regnety_16gf_in1k,1,206,NaN,chair,chair,2-3-10,0206_eid_dnn_2-3-10_chair_10_n04099969_1669.png
swag_regnety_16gf_in1k,1,207,NaN,bottle,bottle,32-3-10,0207_eid_dnn_32-3-10_bottle_10_n03937543_5324.png
swag_regnety_16gf_in1k,1,208,NaN,bottle,bottle,4-3-10,0208_eid_dnn_4-3-10_bottle_10_n03937543_2143.png
swag_regnety_16gf_in1k,1,209,NaN,bottle,bottle,2-3-10,0209_eid_dnn_2-3-10_bottle_10_n04557648_2575.png
swag_regnety_16gf_in1k,1,210,NaN,knife,knife,8-3-10,0210_eid_dnn_8-3-10_knife_10_n03041632_9671.png
swag_regnety_16gf_in1k,1,211,NaN,dog,bottle,16-3-10,0211_eid_dnn_16-3-10_bottle_10_n04560804_4145.png
swag_regnety_16gf_in1k,1,212,NaN,dog,clock,64-3-10,0212_eid_dnn_64-3-10_clock_10_n03196217_1187.png
swag_regnety_16gf_in1k,1,213,NaN,clock,clock,4-3-10,0213_eid_dnn_4-3-10_clock_10_n04548280_2111.png
swag_regnety_16gf_in1k,1,214,NaN,cat,dog,128-3-10,0214_eid_dnn_128-3-10_dog_10_n02086079_6578.png
swag_regnety_16gf_in1k,1,215,NaN,airplane,car,16-3-10,0215_eid_dnn_16-3-10_car_10_n03100240_14045.png
swag_regnety_16gf_in1k,1,216,NaN,boat,boat,8-3-10,0216_eid_dnn_8-3-10_boat_10_n02951358_30908.png
swag_regnety_16gf_in1k,1,217,NaN,elephant,oven,4-3-10,0217_eid_dnn_4-3-10_oven_10_n04111531_2199.png
swag_regnety_16gf_in1k,1,218,NaN,dog,elephant,8-3-10,0218_eid_dnn_8-3-10_elephant_10_n02504013_5641.png
swag_regnety_16gf_in1k,1,219,NaN,keyboard,keyboard,2-3-10,0219_eid_dnn_2-3-10_keyboard_10_n03085013_6740.png
swag_regnety_16gf_in1k,1,220,NaN,clock,clock,2-3-10,0220_eid_dnn_2-3-10_clock_10_n04548280_319.png
swag_regnety_16gf_in1k,1,221,NaN,dog,knife,32-3-10,0221_eid_dnn_32-3-10_knife_10_n03041632_43506.png
swag_regnety_16gf_in1k,1,222,NaN,airplane,boat,16-3-10,0222_eid_dnn_16-3-10_boat_10_n03344393_9712.png
swag_regnety_16gf_in1k,1,223,NaN,knife,knife,1-3-10,0223_eid_dnn_1-3-10_knife_10_n03041632_9963.png
swag_regnety_16gf_in1k,1,224,NaN,bicycle,bird,1-3-10,0224_eid_dnn_1-3-10_bird_10_n02002556_18595.png
swag_regnety_16gf_in1k,1,225,NaN,dog,bird,4-3-10,0225_eid_dnn_4-3-10_bird_10_n01860187_20777.png
swag_regnety_16gf_in1k,1,226,NaN,dog,keyboard,32-3-10,0226_eid_dnn_32-3-10_keyboard_10_n03085013_24626.png
swag_regnety_16gf_in1k,1,227,NaN,dog,oven,16-3-10,0227_eid_dnn_16-3-10_oven_10_n04111531_7097.png
swag_regnety_16gf_in1k,1,228,NaN,dog,chair,16-3-10,0228_eid_dnn_16-3-10_chair_10_n02791124_12486.png
swag_regnety_16gf_in1k,1,229,NaN,dog,cat,128-3-10,0229_eid_dnn_128-3-10_cat_10_n02123045_6629.png
swag_regnety_16gf_in1k,1,230,NaN,dog,bird,16-3-10,0230_eid_dnn_16-3-10_bird_10_n01819313_5388.png
swag_regnety_16gf_in1k,1,231,NaN,dog,truck,32-3-10,0231_eid_dnn_32-3-10_truck_10_n04467665_4940.png
swag_regnety_16gf_in1k,1,232,NaN,knife,knife,8-3-10,0232_eid_dnn_8-3-10_knife_10_n03041632_20433.png
swag_regnety_16gf_in1k,1,233,NaN,clock,clock,2-3-10,0233_eid_dnn_2-3-10_clock_10_n04548280_6792.png
swag_regnety_16gf_in1k,1,234,NaN,bicycle,bicycle,4-3-10,0234_eid_dnn_4-3-10_bicycle_10_n02835271_5413.png
swag_regnety_16gf_in1k,1,235,NaN,car,car,2-3-10,0235_eid_dnn_2-3-10_car_10_n04285008_5005.png
swag_regnety_16gf_in1k,1,236,NaN,car,car,2-3-10,0236_eid_dnn_2-3-10_car_10_n02814533_88088.png
swag_regnety_16gf_in1k,1,237,NaN,dog,elephant,64-3-10,0237_eid_dnn_64-3-10_elephant_10_n02504458_11345.png
swag_regnety_16gf_in1k,1,238,NaN,bear,elephant,16-3-10,0238_eid_dnn_16-3-10_elephant_10_n02504013_1900.png
swag_regnety_16gf_in1k,1,239,NaN,dog,bear,128-3-10,0239_eid_dnn_128-3-10_bear_10_n02133161_5708.png
swag_regnety_16gf_in1k,1,240,NaN,dog,cat,8-3-10,0240_eid_dnn_8-3-10_cat_10_n02124075_5828.png
swag_regnety_16gf_in1k,1,241,NaN,dog,bird,64-3-10,0241_eid_dnn_64-3-10_bird_10_n01582220_9392.png
swag_regnety_16gf_in1k,1,242,NaN,clock,clock,1-3-10,0242_eid_dnn_1-3-10_clock_10_n02708093_4597.png
swag_regnety_16gf_in1k,1,243,NaN,dog,bicycle,128-3-10,0243_eid_dnn_128-3-10_bicycle_10_n03792782_26306.png
swag_regnety_16gf_in1k,1,244,NaN,dog,bear,32-3-10,0244_eid_dnn_32-3-10_bear_10_n02132136_1795.png
swag_regnety_16gf_in1k,1,245,NaN,dog,clock,128-3-10,0245_eid_dnn_128-3-10_clock_10_n02708093_3638.png
swag_regnety_16gf_in1k,1,246,NaN,keyboard,keyboard,4-3-10,0246_eid_dnn_4-3-10_keyboard_10_n03085013_21272.png
swag_regnety_16gf_in1k,1,247,NaN,knife,chair,8-3-10,0247_eid_dnn_8-3-10_chair_10_n02791124_16926.png
swag_regnety_16gf_in1k,1,248,NaN,dog,knife,8-3-10,0248_eid_dnn_8-3-10_knife_10_n03041632_84048.png
swag_regnety_16gf_in1k,1,249,NaN,oven,oven,2-3-10,0249_eid_dnn_2-3-10_oven_10_n04111531_550.png
swag_regnety_16gf_in1k,1,250,NaN,dog,boat,128-3-10,0250_eid_dnn_128-3-10_boat_10_n03662601_21992.png
swag_regnety_16gf_in1k,1,251,NaN,dog,bear,32-3-10,0251_eid_dnn_32-3-10_bear_10_n02134418_280.png
swag_regnety_16gf_in1k,1,252,NaN,bottle,bottle,8-3-10,0252_eid_dnn_8-3-10_bottle_10_n04560804_8385.png
swag_regnety_16gf_in1k,1,253,NaN,dog,elephant,64-3-10,0253_eid_dnn_64-3-10_elephant_10_n02504013_4183.png
swag_regnety_16gf_in1k,1,254,NaN,bird,bird,1-3-10,0254_eid_dnn_1-3-10_bird_10_n01560419_19608.png
swag_regnety_16gf_in1k,1,255,NaN,bird,bird,4-3-10,0255_eid_dnn_4-3-10_bird_10_n02056570_8865.png
swag_regnety_16gf_in1k,1,256,NaN,cat,cat,2-3-10,0256_eid_dnn_2-3-10_cat_10_n02123394_2553.png
swag_regnety_16gf_in1k,1,257,NaN,dog,bear,128-3-10,0257_eid_dnn_128-3-10_bear_10_n02132136_10113.png
swag_regnety_16gf_in1k,1,258,NaN,bear,oven,8-3-10,0258_eid_dnn_8-3-10_oven_10_n04111531_2758.png
swag_regnety_16gf_in1k,1,259,NaN,dog,keyboard,64-3-10,0259_eid_dnn_64-3-10_keyboard_10_n04505470_4824.png
swag_regnety_16gf_in1k,1,260,NaN,bicycle,bicycle,2-3-10,0260_eid_dnn_2-3-10_bicycle_10_n02835271_8654.png
swag_regnety_16gf_in1k,1,261,NaN,dog,keyboard,128-3-10,0261_eid_dnn_128-3-10_keyboard_10_n03085013_34973.png
swag_regnety_16gf_in1k,1,262,NaN,cat,cat,4-3-10,0262_eid_dnn_4-3-10_cat_10_n02123394_4228.png
swag_regnety_16gf_in1k,1,263,NaN,dog,keyboard,32-3-10,0263_eid_dnn_32-3-10_keyboard_10_n03085013_24416.png
swag_regnety_16gf_in1k,1,264,NaN,dog,cat,8-3-10,0264_eid_dnn_8-3-10_cat_10_n02124075_5729.png
swag_regnety_16gf_in1k,1,265,NaN,dog,clock,32-3-10,0265_eid_dnn_32-3-10_clock_10_n03196217_6357.png
swag_regnety_16gf_in1k,1,266,NaN,dog,truck,128-3-10,0266_eid_dnn_128-3-10_truck_10_n03417042_29478.png
swag_regnety_16gf_in1k,1,267,NaN,dog,chair,128-3-10,0267_eid_dnn_128-3-10_chair_10_n04099969_18678.png
swag_regnety_16gf_in1k,1,268,NaN,bear,clock,32-3-10,0268_eid_dnn_32-3-10_clock_10_n02708093_4286.png
swag_regnety_16gf_in1k,1,269,NaN,dog,car,128-3-10,0269_eid_dnn_128-3-10_car_10_n03100240_21971.png
swag_regnety_16gf_in1k,1,270,NaN,car,car,1-3-10,0270_eid_dnn_1-3-10_car_10_n03100240_84.png
swag_regnety_16gf_in1k,1,271,NaN,dog,dog,1-3-10,0271_eid_dnn_1-3-10_dog_10_n02094433_3186.png
swag_regnety_16gf_in1k,1,272,NaN,dog,dog,4-3-10,0272_eid_dnn_4-3-10_dog_10_n02088364_10195.png
swag_regnety_16gf_in1k,1,273,NaN,dog,knife,16-3-10,0273_eid_dnn_16-3-10_knife_10_n03041632_11358.png
swag_regnety_16gf_in1k,1,274,NaN,dog,bird,64-3-10,0274_eid_dnn_64-3-10_bird_10_n01531178_10630.png
swag_regnety_16gf_in1k,1,275,NaN,elephant,elephant,1-3-10,0275_eid_dnn_1-3-10_elephant_10_n02504458_4058.png
swag_regnety_16gf_in1k,1,276,NaN,dog,keyboard,32-3-10,0276_eid_dnn_32-3-10_keyboard_10_n03085013_24336.png
swag_regnety_16gf_in1k,1,277,NaN,clock,clock,4-3-10,0277_eid_dnn_4-3-10_clock_10_n02708093_386.png
swag_regnety_16gf_in1k,1,278,NaN,chair,chair,4-3-10,0278_eid_dnn_4-3-10_chair_10_n04429376_16370.png
swag_regnety_16gf_in1k,1,279,NaN,bottle,bottle,1-3-10,0279_eid_dnn_1-3-10_bottle_10_n04557648_10167.png
swag_regnety_16gf_in1k,1,280,NaN,bicycle,bicycle,1-3-10,0280_eid_dnn_1-3-10_bicycle_10_n02835271_15717.png
swag_regnety_16gf_in1k,1,281,NaN,dog,car,128-3-10,0281_eid_dnn_128-3-10_car_10_n03100240_22593.png
swag_regnety_16gf_in1k,1,282,NaN,car,car,1-3-10,0282_eid_dnn_1-3-10_car_10_n04285008_11240.png
swag_regnety_16gf_in1k,1,283,NaN,boat,boat,1-3-10,0283_eid_dnn_1-3-10_boat_10_n03344393_3337.png
swag_regnety_16gf_in1k,1,284,NaN,dog,bottle,128-3-10,0284_eid_dnn_128-3-10_bottle_10_n04579145_1660.png
swag_regnety_16gf_in1k,1,285,NaN,dog,dog,64-3-10,0285_eid_dnn_64-3-10_dog_10_n02091244_9305.png
swag_regnety_16gf_in1k,1,286,NaN,dog,chair,32-3-10,0286_eid_dnn_32-3-10_chair_10_n03376595_3912.png
swag_regnety_16gf_in1k,1,287,NaN,dog,bottle,64-3-10,0287_eid_dnn_64-3-10_bottle_10_n02823428_6793.png
swag_regnety_16gf_in1k,1,288,NaN,airplane,dog,32-3-10,0288_eid_dnn_32-3-10_dog_10_n02093754_4949.png
swag_regnety_16gf_in1k,1,289,NaN,dog,dog,128-3-10,0289_eid_dnn_128-3-10_dog_10_n02105855_10394.png
swag_regnety_16gf_in1k,1,290,NaN,clock,clock,2-3-10,0290_eid_dnn_2-3-10_clock_10_n04548280_9533.png
swag_regnety_16gf_in1k,1,291,NaN,bear,cat,1-3-10,0291_eid_dnn_1-3-10_cat_10_n02125311_7527.png
swag_regnety_16gf_in1k,1,292,NaN,car,car,4-3-10,0292_eid_dnn_4-3-10_car_10_n03100240_4537.png
swag_regnety_16gf_in1k,1,293,NaN,dog,bicycle,8-3-10,0293_eid_dnn_8-3-10_bicycle_10_n03792782_11609.png
swag_regnety_16gf_in1k,1,294,NaN,dog,oven,128-3-10,0294_eid_dnn_128-3-10_oven_10_n04111531_6134.png
swag_regnety_16gf_in1k,1,295,NaN,dog,bottle,8-3-10,0295_eid_dnn_8-3-10_bottle_10_n04591713_715.png
swag_regnety_16gf_in1k,1,296,NaN,airplane,elephant,32-3-10,0296_eid_dnn_32-3-10_elephant_10_n02504458_7818.png
swag_regnety_16gf_in1k,1,297,NaN,dog,airplane,64-3-10,0297_eid_dnn_64-3-10_airplane_10_n02690373_7107.png
swag_regnety_16gf_in1k,1,298,NaN,dog,car,32-3-10,0298_eid_dnn_32-3-10_car_10_n04285008_8363.png
swag_regnety_16gf_in1k,1,299,NaN,clock,clock,4-3-10,0299_eid_dnn_4-3-10_clock_10_n04548280_4249.png
swag_regnety_16gf_in1k,1,300,NaN,dog,cat,128-3-10,0300_eid_dnn_128-3-10_cat_10_n02123597_7269.png
swag_regnety_16gf_in1k,1,301,NaN,bicycle,bicycle,1-3-10,0301_eid_dnn_1-3-10_bicycle_10_n03792782_4864.png
swag_regnety_16gf_in1k,1,302,NaN,bear,bear,2-3-10,0302_eid_dnn_2-3-10_bear_10_n02132136_8011.png
swag_regnety_16gf_in1k,1,303,NaN,dog,boat,128-3-10,0303_eid_dnn_128-3-10_boat_10_n02951358_4810.png
swag_regnety_16gf_in1k,1,304,NaN,dog,clock,128-3-10,0304_eid_dnn_128-3-10_clock_10_n03196217_5137.png
swag_regnety_16gf_in1k,1,305,NaN,bicycle,bicycle,2-3-10,0305_eid_dnn_2-3-10_bicycle_10_n02835271_158.png
swag_regnety_16gf_in1k,1,306,NaN,dog,bear,64-3-10,0306_eid_dnn_64-3-10_bear_10_n02132136_11217.png
swag_regnety_16gf_in1k,1,307,NaN,dog,dog,64-3-10,0307_eid_dnn_64-3-10_dog_10_n02092002_6122.png
swag_regnety_16gf_in1k,1,308,NaN,dog,chair,32-3-10,0308_eid_dnn_32-3-10_chair_10_n04429376_29223.png
swag_regnety_16gf_in1k,1,309,NaN,dog,bear,128-3-10,0309_eid_dnn_128-3-10_bear_10_n02133161_5723.png
swag_regnety_16gf_in1k,1,310,NaN,dog,dog,128-3-10,0310_eid_dnn_128-3-10_dog_10_n02100583_1343.png
swag_regnety_16gf_in1k,1,311,NaN,bottle,boat,128-3-10,0311_eid_dnn_128-3-10_boat_10_n03344393_6352.png
swag_regnety_16gf_in1k,1,312,NaN,bird,bird,4-3-10,0312_eid_dnn_4-3-10_bird_10_n01560419_8247.png
swag_regnety_16gf_in1k,1,313,NaN,dog,dog,4-3-10,0313_eid_dnn_4-3-10_dog_10_n02105251_8210.png
swag_regnety_16gf_in1k,1,314,NaN,dog,oven,128-3-10,0314_eid_dnn_128-3-10_oven_10_n04111531_9702.png
swag_regnety_16gf_in1k,1,315,NaN,dog,bear,8-3-10,0315_eid_dnn_8-3-10_bear_10_n02133161_12161.png
swag_regnety_16gf_in1k,1,316,NaN,bear,bear,8-3-10,0316_eid_dnn_8-3-10_bear_10_n02133161_13556.png
swag_regnety_16gf_in1k,1,317,NaN,dog,bear,128-3-10,0317_eid_dnn_128-3-10_bear_10_n02134084_635.png
swag_regnety_16gf_in1k,1,318,NaN,dog,chair,128-3-10,0318_eid_dnn_128-3-10_chair_10_n02791124_6956.png
swag_regnety_16gf_in1k,1,319,NaN,car,car,4-3-10,0319_eid_dnn_4-3-10_car_10_n02814533_18077.png
swag_regnety_16gf_in1k,1,320,NaN,dog,dog,2-3-10,0320_eid_dnn_2-3-10_dog_10_n02088364_11105.png
swag_regnety_16gf_in1k,1,321,NaN,dog,airplane,64-3-10,0321_eid_dnn_64-3-10_airplane_10_n02690373_1053.png
swag_regnety_16gf_in1k,1,322,NaN,bear,car,16-3-10,0322_eid_dnn_16-3-10_car_10_n02814533_96407.png
swag_regnety_16gf_in1k,1,323,NaN,chair,chair,4-3-10,0323_eid_dnn_4-3-10_chair_10_n04099969_31891.png
swag_regnety_16gf_in1k,1,324,NaN,airplane,bottle,16-3-10,0324_eid_dnn_16-3-10_bottle_10_n04557648_4470.png
swag_regnety_16gf_in1k,1,325,NaN,oven,clock,8-3-10,0325_eid_dnn_8-3-10_clock_10_n02708093_2588.png
swag_regnety_16gf_in1k,1,326,NaN,dog,elephant,128-3-10,0326_eid_dnn_128-3-10_elephant_10_n02504458_6696.png
swag_regnety_16gf_in1k,1,327,NaN,dog,elephant,32-3-10,0327_eid_dnn_32-3-10_elephant_10_n02504013_4071.png
swag_regnety_16gf_in1k,1,328,NaN,knife,keyboard,8-3-10,0328_eid_dnn_8-3-10_keyboard_10_n03085013_8339.png
swag_regnety_16gf_in1k,1,329,NaN,dog,elephant,64-3-10,0329_eid_dnn_64-3-10_elephant_10_n02504013_6976.png
swag_regnety_16gf_in1k,1,330,NaN,boat,boat,4-3-10,0330_eid_dnn_4-3-10_boat_10_n02951358_9146.png
swag_regnety_16gf_in1k,1,331,NaN,knife,boat,32-3-10,0331_eid_dnn_32-3-10_boat_10_n04273569_4087.png
swag_regnety_16gf_in1k,1,332,NaN,dog,oven,64-3-10,0332_eid_dnn_64-3-10_oven_10_n04111531_2922.png
swag_regnety_16gf_in1k,1,333,NaN,bear,bear,4-3-10,0333_eid_dnn_4-3-10_bear_10_n02133161_5325.png
swag_regnety_16gf_in1k,1,334,NaN,knife,bottle,64-3-10,0334_eid_dnn_64-3-10_bottle_10_n04557648_3109.png
swag_regnety_16gf_in1k,1,335,NaN,oven,oven,1-3-10,0335_eid_dnn_1-3-10_oven_10_n04111531_15912.png
swag_regnety_16gf_in1k,1,336,NaN,dog,truck,16-3-10,0336_eid_dnn_16-3-10_truck_10_n03417042_17099.png
swag_regnety_16gf_in1k,1,337,NaN,car,car,2-3-10,0337_eid_dnn_2-3-10_car_10_n04285008_8641.png
swag_regnety_16gf_in1k,1,338,NaN,dog,keyboard,32-3-10,0338_eid_dnn_32-3-10_keyboard_10_n04505470_524.png
swag_regnety_16gf_in1k,1,339,NaN,dog,bottle,8-3-10,0339_eid_dnn_8-3-10_bottle_10_n04557648_5935.png
swag_regnety_16gf_in1k,1,340,NaN,bottle,bottle,1-3-10,0340_eid_dnn_1-3-10_bottle_10_n04591713_3776.png
swag_regnety_16gf_in1k,1,341,NaN,truck,truck,2-3-10,0341_eid_dnn_2-3-10_truck_10_n03796401_3651.png
swag_regnety_16gf_in1k,1,342,NaN,dog,bicycle,128-3-10,0342_eid_dnn_128-3-10_bicycle_10_n03792782_15757.png
swag_regnety_16gf_in1k,1,343,NaN,dog,cat,32-3-10,0343_eid_dnn_32-3-10_cat_10_n02123597_8698.png
swag_regnety_16gf_in1k,1,344,NaN,boat,boat,1-3-10,0344_eid_dnn_1-3-10_boat_10_n03662601_273.png
swag_regnety_16gf_in1k,1,345,NaN,knife,knife,1-3-10,0345_eid_dnn_1-3-10_knife_10_n03041632_24376.png
swag_regnety_16gf_in1k,1,346,NaN,keyboard,keyboard,1-3-10,0346_eid_dnn_1-3-10_keyboard_10_n04505470_2608.png
swag_regnety_16gf_in1k,1,347,NaN,airplane,boat,16-3-10,0347_eid_dnn_16-3-10_boat_10_n04273569_10665.png
swag_regnety_16gf_in1k,1,348,NaN,dog,bear,64-3-10,0348_eid_dnn_64-3-10_bear_10_n02133161_5267.png
swag_regnety_16gf_in1k,1,349,NaN,cat,bear,128-3-10,0349_eid_dnn_128-3-10_bear_10_n02133161_5020.png
swag_regnety_16gf_in1k,1,350,NaN,dog,knife,128-3-10,0350_eid_dnn_128-3-10_knife_10_n03041632_21723.png
swag_regnety_16gf_in1k,1,351,NaN,bear,boat,32-3-10,0351_eid_dnn_32-3-10_boat_10_n02951358_31101.png
swag_regnety_16gf_in1k,1,352,NaN,dog,dog,128-3-10,0352_eid_dnn_128-3-10_dog_10_n02102177_4180.png
swag_regnety_16gf_in1k,1,353,NaN,bottle,bottle,4-3-10,0353_eid_dnn_4-3-10_bottle_10_n04579145_4186.png
swag_regnety_16gf_in1k,1,354,NaN,dog,bicycle,64-3-10,0354_eid_dnn_64-3-10_bicycle_10_n03792782_2246.png
swag_regnety_16gf_in1k,1,355,NaN,dog,dog,1-3-10,0355_eid_dnn_1-3-10_dog_10_n02110958_1526.png
swag_regnety_16gf_in1k,1,356,NaN,dog,keyboard,128-3-10,0356_eid_dnn_128-3-10_keyboard_10_n04505470_255.png
swag_regnety_16gf_in1k,1,357,NaN,bear,elephant,4-3-10,0357_eid_dnn_4-3-10_elephant_10_n02504458_1933.png
swag_regnety_16gf_in1k,1,358,NaN,cat,cat,2-3-10,0358_eid_dnn_2-3-10_cat_10_n02123159_5749.png
swag_regnety_16gf_in1k,1,359,NaN,keyboard,airplane,128-3-10,0359_eid_dnn_128-3-10_airplane_10_n02690373_2967.png
swag_regnety_16gf_in1k,1,360,NaN,dog,chair,8-3-10,0360_eid_dnn_8-3-10_chair_10_n04099969_72.png
swag_regnety_16gf_in1k,1,361,NaN,dog,cat,32-3-10,0361_eid_dnn_32-3-10_cat_10_n02123045_4089.png
swag_regnety_16gf_in1k,1,362,NaN,dog,bird,128-3-10,0362_eid_dnn_128-3-10_bird_10_n01616318_13293.png
swag_regnety_16gf_in1k,1,363,NaN,cat,cat,4-3-10,0363_eid_dnn_4-3-10_cat_10_n02124075_13719.png
swag_regnety_16gf_in1k,1,364,NaN,dog,oven,32-3-10,0364_eid_dnn_32-3-10_oven_10_n04111531_22466.png
swag_regnety_16gf_in1k,1,365,NaN,dog,airplane,128-3-10,0365_eid_dnn_128-3-10_airplane_10_n02690373_2525.png
swag_regnety_16gf_in1k,1,366,NaN,cat,cat,1-3-10,0366_eid_dnn_1-3-10_cat_10_n02124075_5369.png
swag_regnety_16gf_in1k,1,367,NaN,dog,bird,64-3-10,0367_eid_dnn_64-3-10_bird_10_n01843065_4182.png
swag_regnety_16gf_in1k,1,368,NaN,truck,truck,2-3-10,0368_eid_dnn_2-3-10_truck_10_n03796401_6472.png
swag_regnety_16gf_in1k,1,369,NaN,dog,airplane,64-3-10,0369_eid_dnn_64-3-10_airplane_10_n02690373_3090.png
swag_regnety_16gf_in1k,1,370,NaN,dog,bear,64-3-10,0370_eid_dnn_64-3-10_bear_10_n02134418_2964.png
swag_regnety_16gf_in1k,1,371,NaN,dog,elephant,16-3-10,0371_eid_dnn_16-3-10_elephant_10_n02504013_6904.png
swag_regnety_16gf_in1k,1,372,NaN,dog,bottle,32-3-10,0372_eid_dnn_32-3-10_bottle_10_n02823428_13488.png
swag_regnety_16gf_in1k,1,373,NaN,car,car,1-3-10,0373_eid_dnn_1-3-10_car_10_n02814533_49499.png
swag_regnety_16gf_in1k,1,374,NaN,dog,clock,64-3-10,0374_eid_dnn_64-3-10_clock_10_n03196217_1000.png
swag_regnety_16gf_in1k,1,375,NaN,airplane,boat,16-3-10,0375_eid_dnn_16-3-10_boat_10_n04612504_13446.png
swag_regnety_16gf_in1k,1,376,NaN,airplane,cat,8-3-10,0376_eid_dnn_8-3-10_cat_10_n02123159_7239.png
swag_regnety_16gf_in1k,1,377,NaN,airplane,airplane,8-3-10,0377_eid_dnn_8-3-10_airplane_10_n02690373_7499.png
swag_regnety_16gf_in1k,1,378,NaN,dog,dog,64-3-10,0378_eid_dnn_64-3-10_dog_10_n02100877_8862.png
swag_regnety_16gf_in1k,1,379,NaN,keyboard,keyboard,2-3-10,0379_eid_dnn_2-3-10_keyboard_10_n03085013_7152.png
swag_regnety_16gf_in1k,1,380,NaN,dog,bottle,32-3-10,0380_eid_dnn_32-3-10_bottle_10_n03937543_3344.png
swag_regnety_16gf_in1k,1,381,NaN,dog,bicycle,64-3-10,0381_eid_dnn_64-3-10_bicycle_10_n02835271_1721.png
swag_regnety_16gf_in1k,1,382,NaN,boat,boat,2-3-10,0382_eid_dnn_2-3-10_boat_10_n04273569_7039.png
swag_regnety_16gf_in1k,1,383,NaN,airplane,airplane,1-3-10,0383_eid_dnn_1-3-10_airplane_10_n02690373_5790.png
swag_regnety_16gf_in1k,1,384,NaN,bird,bird,2-3-10,0384_eid_dnn_2-3-10_bird_10_n02007558_4629.png
swag_regnety_16gf_in1k,1,385,NaN,airplane,airplane,8-3-10,0385_eid_dnn_8-3-10_airplane_10_n02690373_2313.png
swag_regnety_16gf_in1k,1,386,NaN,car,car,2-3-10,0386_eid_dnn_2-3-10_car_10_n02814533_65093.png
swag_regnety_16gf_in1k,1,387,NaN,bicycle,bicycle,2-3-10,0387_eid_dnn_2-3-10_bicycle_10_n03792782_4559.png
swag_regnety_16gf_in1k,1,388,NaN,oven,oven,2-3-10,0388_eid_dnn_2-3-10_oven_10_n04111531_16696.png
swag_regnety_16gf_in1k,1,389,NaN,bear,boat,32-3-10,0389_eid_dnn_32-3-10_boat_10_n04273569_5593.png
swag_regnety_16gf_in1k,1,390,NaN,dog,bottle,128-3-10,0390_eid_dnn_128-3-10_bottle_10_n03937543_6624.png
swag_regnety_16gf_in1k,1,391,NaN,airplane,airplane,1-3-10,0391_eid_dnn_1-3-10_airplane_10_n02690373_12436.png
swag_regnety_16gf_in1k,1,392,NaN,bird,bird,2-3-10,0392_eid_dnn_2-3-10_bird_10_n01828970_6924.png
swag_regnety_16gf_in1k,1,393,NaN,airplane,airplane,4-3-10,0393_eid_dnn_4-3-10_airplane_10_n02690373_9605.png
swag_regnety_16gf_in1k,1,394,NaN,dog,truck,128-3-10,0394_eid_dnn_128-3-10_truck_10_n03796401_1335.png
swag_regnety_16gf_in1k,1,395,NaN,dog,chair,64-3-10,0395_eid_dnn_64-3-10_chair_10_n04429376_10476.png
swag_regnety_16gf_in1k,1,396,NaN,bottle,bottle,1-3-10,0396_eid_dnn_1-3-10_bottle_10_n04560804_32760.png
swag_regnety_16gf_in1k,1,397,NaN,keyboard,airplane,32-3-10,0397_eid_dnn_32-3-10_airplane_10_n02690373_10817.png
swag_regnety_16gf_in1k,1,398,NaN,dog,car,32-3-10,0398_eid_dnn_32-3-10_car_10_n03100240_5946.png
swag_regnety_16gf_in1k,1,399,NaN,dog,clock,64-3-10,0399_eid_dnn_64-3-10_clock_10_n02708093_2875.png
swag_regnety_16gf_in1k,1,400,NaN,bear,bear,2-3-10,0400_eid_dnn_2-3-10_bear_10_n02133161_2456.png
swag_regnety_16gf_in1k,1,401,NaN,elephant,bird,8-3-10,0401_eid_dnn_8-3-10_bird_10_n01855672_15317.png
swag_regnety_16gf_in1k,1,402,NaN,dog,dog,8-3-10,0402_eid_dnn_8-3-10_dog_10_n02098286_2242.png
swag_regnety_16gf_in1k,1,403,NaN,knife,knife,2-3-10,0403_eid_dnn_2-3-10_knife_10_n03041632_43289.png
swag_regnety_16gf_in1k,1,404,NaN,bottle,bottle,4-3-10,0404_eid_dnn_4-3-10_bottle_10_n02823428_4387.png
swag_regnety_16gf_in1k,1,405,NaN,dog,knife,64-3-10,0405_eid_dnn_64-3-10_knife_10_n03041632_13194.png
swag_regnety_16gf_in1k,1,406,NaN,airplane,airplane,8-3-10,0406_eid_dnn_8-3-10_airplane_10_n02690373_7465.png
swag_regnety_16gf_in1k,1,407,NaN,bird,bird,4-3-10,0407_eid_dnn_4-3-10_bird_10_n02018207_2282.png
swag_regnety_16gf_in1k,1,408,NaN,dog,chair,64-3-10,0408_eid_dnn_64-3-10_chair_10_n04099969_34351.png
swag_regnety_16gf_in1k,1,409,NaN,dog,bottle,64-3-10,0409_eid_dnn_64-3-10_bottle_10_n03937543_49.png
swag_regnety_16gf_in1k,1,410,NaN,airplane,bicycle,8-3-10,0410_eid_dnn_8-3-10_bicycle_10_n03792782_9833.png
swag_regnety_16gf_in1k,1,411,NaN,bottle,clock,4-3-10,0411_eid_dnn_4-3-10_clock_10_n03196217_10384.png
swag_regnety_16gf_in1k,1,412,NaN,dog,truck,64-3-10,0412_eid_dnn_64-3-10_truck_10_n04467665_4492.png
swag_regnety_16gf_in1k,1,413,NaN,dog,bottle,128-3-10,0413_eid_dnn_128-3-10_bottle_10_n03983396_5148.png
swag_regnety_16gf_in1k,1,414,NaN,dog,clock,128-3-10,0414_eid_dnn_128-3-10_clock_10_n04548280_4364.png
swag_regnety_16gf_in1k,1,415,NaN,cat,cat,1-3-10,0415_eid_dnn_1-3-10_cat_10_n02123394_6792.png
swag_regnety_16gf_in1k,1,416,NaN,bear,oven,16-3-10,0416_eid_dnn_16-3-10_oven_10_n04111531_1298.png
swag_regnety_16gf_in1k,1,417,NaN,bottle,clock,8-3-10,0417_eid_dnn_8-3-10_clock_10_n04548280_2334.png
swag_regnety_16gf_in1k,1,418,NaN,dog,car,32-3-10,0418_eid_dnn_32-3-10_car_10_n04285008_15570.png
swag_regnety_16gf_in1k,1,419,NaN,knife,dog,32-3-10,0419_eid_dnn_32-3-10_dog_10_n02087394_7569.png
swag_regnety_16gf_in1k,1,420,NaN,oven,clock,32-3-10,0420_eid_dnn_32-3-10_clock_10_n03196217_11445.png
swag_regnety_16gf_in1k,1,421,NaN,dog,chair,32-3-10,0421_eid_dnn_32-3-10_chair_10_n04099969_3095.png
swag_regnety_16gf_in1k,1,422,NaN,dog,bird,64-3-10,0422_eid_dnn_64-3-10_bird_10_n01601694_935.png
swag_regnety_16gf_in1k,1,423,NaN,bird,bird,2-3-10,0423_eid_dnn_2-3-10_bird_10_n01592084_3570.png
swag_regnety_16gf_in1k,1,424,NaN,dog,dog,64-3-10,0424_eid_dnn_64-3-10_dog_10_n02090379_605.png
swag_regnety_16gf_in1k,1,425,NaN,airplane,airplane,1-3-10,0425_eid_dnn_1-3-10_airplane_10_n02690373_3912.png
swag_regnety_16gf_in1k,1,426,NaN,dog,oven,128-3-10,0426_eid_dnn_128-3-10_oven_10_n04111531_986.png
swag_regnety_16gf_in1k,1,427,NaN,dog,knife,32-3-10,0427_eid_dnn_32-3-10_knife_10_n03041632_23736.png
swag_regnety_16gf_in1k,1,428,NaN,clock,clock,4-3-10,0428_eid_dnn_4-3-10_clock_10_n04548280_10686.png
swag_regnety_16gf_in1k,1,429,NaN,dog,oven,32-3-10,0429_eid_dnn_32-3-10_oven_10_n04111531_21460.png
swag_regnety_16gf_in1k,1,430,NaN,dog,bottle,32-3-10,0430_eid_dnn_32-3-10_bottle_10_n04557648_3675.png
swag_regnety_16gf_in1k,1,431,NaN,clock,chair,8-3-10,0431_eid_dnn_8-3-10_chair_10_n02791124_495.png
swag_regnety_16gf_in1k,1,432,NaN,dog,chair,128-3-10,0432_eid_dnn_128-3-10_chair_10_n04429376_9165.png
swag_regnety_16gf_in1k,1,433,NaN,clock,clock,1-3-10,0433_eid_dnn_1-3-10_clock_10_n04548280_2937.png
swag_regnety_16gf_in1k,1,434,NaN,dog,bear,32-3-10,0434_eid_dnn_32-3-10_bear_10_n02134418_5849.png
swag_regnety_16gf_in1k,1,435,NaN,dog,bottle,128-3-10,0435_eid_dnn_128-3-10_bottle_10_n04560804_2521.png
swag_regnety_16gf_in1k,1,436,NaN,bear,car,8-3-10,0436_eid_dnn_8-3-10_car_10_n04285008_11600.png
swag_regnety_16gf_in1k,1,437,NaN,knife,knife,2-3-10,0437_eid_dnn_2-3-10_knife_10_n03041632_79317.png
swag_regnety_16gf_in1k,1,438,NaN,airplane,truck,32-3-10,0438_eid_dnn_32-3-10_truck_10_n03417042_6467.png
swag_regnety_16gf_in1k,1,439,NaN,bottle,airplane,64-3-10,0439_eid_dnn_64-3-10_airplane_10_n02690373_303.png
swag_regnety_16gf_in1k,1,440,NaN,dog,chair,64-3-10,0440_eid_dnn_64-3-10_chair_10_n04099969_2354.png
swag_regnety_16gf_in1k,1,441,NaN,dog,clock,128-3-10,0441_eid_dnn_128-3-10_clock_10_n04548280_377.png
swag_regnety_16gf_in1k,1,442,NaN,knife,bicycle,32-3-10,0442_eid_dnn_32-3-10_bicycle_10_n03792782_11597.png
swag_regnety_16gf_in1k,1,443,NaN,bottle,bottle,2-3-10,0443_eid_dnn_2-3-10_bottle_10_n04579145_215.png
swag_regnety_16gf_in1k,1,444,NaN,car,car,4-3-10,0444_eid_dnn_4-3-10_car_10_n02814533_95669.png
swag_regnety_16gf_in1k,1,445,NaN,bear,chair,32-3-10,0445_eid_dnn_32-3-10_chair_10_n04429376_51025.png
swag_regnety_16gf_in1k,1,446,NaN,cat,cat,4-3-10,0446_eid_dnn_4-3-10_cat_10_n02123045_2757.png
swag_regnety_16gf_in1k,1,447,NaN,bottle,bottle,4-3-10,0447_eid_dnn_4-3-10_bottle_10_n03937543_2135.png
swag_regnety_16gf_in1k,1,448,NaN,bird,bird,2-3-10,0448_eid_dnn_2-3-10_bird_10_n01855032_7457.png
swag_regnety_16gf_in1k,1,449,NaN,dog,car,16-3-10,0449_eid_dnn_16-3-10_car_10_n02814533_24935.png
swag_regnety_16gf_in1k,1,450,NaN,keyboard,keyboard,4-3-10,0450_eid_dnn_4-3-10_keyboard_10_n04505470_1371.png
swag_regnety_16gf_in1k,1,451,NaN,dog,dog,16-3-10,0451_eid_dnn_16-3-10_dog_10_n02099267_2379.png
swag_regnety_16gf_in1k,1,452,NaN,cat,cat,8-3-10,0452_eid_dnn_8-3-10_cat_10_n02123394_8009.png
swag_regnety_16gf_in1k,1,453,NaN,keyboard,keyboard,2-3-10,0453_eid_dnn_2-3-10_keyboard_10_n03085013_29042.png
swag_regnety_16gf_in1k,1,454,NaN,dog,airplane,128-3-10,0454_eid_dnn_128-3-10_airplane_10_n02690373_2131.png
swag_regnety_16gf_in1k,1,455,NaN,bear,car,8-3-10,0455_eid_dnn_8-3-10_car_10_n03100240_327.png
swag_regnety_16gf_in1k,1,456,NaN,elephant,elephant,2-3-10,0456_eid_dnn_2-3-10_elephant_10_n02504458_4163.png
swag_regnety_16gf_in1k,1,457,NaN,airplane,knife,1-3-10,0457_eid_dnn_1-3-10_knife_10_n03041632_9635.png
swag_regnety_16gf_in1k,1,458,NaN,airplane,airplane,16-3-10,0458_eid_dnn_16-3-10_airplane_10_n02690373_1044.png
swag_regnety_16gf_in1k,1,459,NaN,dog,bottle,16-3-10,0459_eid_dnn_16-3-10_bottle_10_n04560804_5441.png
swag_regnety_16gf_in1k,1,460,NaN,cat,cat,8-3-10,0460_eid_dnn_8-3-10_cat_10_n02123159_988.png
swag_regnety_16gf_in1k,1,461,NaN,dog,bird,64-3-10,0461_eid_dnn_64-3-10_bird_10_n01843383_4667.png
swag_regnety_16gf_in1k,1,462,NaN,airplane,airplane,2-3-10,0462_eid_dnn_2-3-10_airplane_10_n02690373_6978.png
swag_regnety_16gf_in1k,1,463,NaN,dog,chair,128-3-10,0463_eid_dnn_128-3-10_chair_10_n04099969_5901.png
swag_regnety_16gf_in1k,1,464,NaN,truck,truck,8-3-10,0464_eid_dnn_8-3-10_truck_10_n03417042_29849.png
swag_regnety_16gf_in1k,1,465,NaN,airplane,airplane,1-3-10,0465_eid_dnn_1-3-10_airplane_10_n02690373_427.png
swag_regnety_16gf_in1k,1,466,NaN,bottle,bottle,4-3-10,0466_eid_dnn_4-3-10_bottle_10_n03983396_2305.png
swag_regnety_16gf_in1k,1,467,NaN,dog,oven,64-3-10,0467_eid_dnn_64-3-10_oven_10_n04111531_15296.png
swag_regnety_16gf_in1k,1,468,NaN,cat,cat,4-3-10,0468_eid_dnn_4-3-10_cat_10_n02123159_6728.png
swag_regnety_16gf_in1k,1,469,NaN,elephant,elephant,4-3-10,0469_eid_dnn_4-3-10_elephant_10_n02504458_12449.png
swag_regnety_16gf_in1k,1,470,NaN,dog,elephant,128-3-10,0470_eid_dnn_128-3-10_elephant_10_n02504458_12165.png
swag_regnety_16gf_in1k,1,471,NaN,airplane,airplane,8-3-10,0471_eid_dnn_8-3-10_airplane_10_n02690373_5010.png
swag_regnety_16gf_in1k,1,472,NaN,dog,dog,64-3-10,0472_eid_dnn_64-3-10_dog_10_n02100236_4549.png
swag_regnety_16gf_in1k,1,473,NaN,boat,boat,4-3-10,0473_eid_dnn_4-3-10_boat_10_n03344393_4289.png
swag_regnety_16gf_in1k,1,474,NaN,dog,chair,64-3-10,0474_eid_dnn_64-3-10_chair_10_n04099969_48169.png
swag_regnety_16gf_in1k,1,475,NaN,airplane,airplane,4-3-10,0475_eid_dnn_4-3-10_airplane_10_n02690373_1996.png
swag_regnety_16gf_in1k,1,476,NaN,dog,truck,128-3-10,0476_eid_dnn_128-3-10_truck_10_n03417042_28078.png
swag_regnety_16gf_in1k,1,477,NaN,bear,truck,8-3-10,0477_eid_dnn_8-3-10_truck_10_n04467665_3098.png
swag_regnety_16gf_in1k,1,478,NaN,elephant,elephant,4-3-10,0478_eid_dnn_4-3-10_elephant_10_n02504458_847.png
swag_regnety_16gf_in1k,1,479,NaN,dog,bicycle,8-3-10,0479_eid_dnn_8-3-10_bicycle_10_n03792782_5880.png
swag_regnety_16gf_in1k,1,480,NaN,dog,bear,128-3-10,0480_eid_dnn_128-3-10_bear_10_n02132136_30976.png
swag_regnety_16gf_in1k,1,481,NaN,dog,chair,64-3-10,0481_eid_dnn_64-3-10_chair_10_n02791124_2057.png
swag_regnety_16gf_in1k,1,482,NaN,dog,keyboard,128-3-10,0482_eid_dnn_128-3-10_keyboard_10_n03085013_7286.png
swag_regnety_16gf_in1k,1,483,NaN,dog,clock,32-3-10,0483_eid_dnn_32-3-10_clock_10_n04548280_1323.png
swag_regnety_16gf_in1k,1,484,NaN,dog,bottle,128-3-10,0484_eid_dnn_128-3-10_bottle_10_n03983396_18508.png
swag_regnety_16gf_in1k,1,485,NaN,dog,bottle,8-3-10,0485_eid_dnn_8-3-10_bottle_10_n03983396_3880.png
swag_regnety_16gf_in1k,1,486,NaN,dog,dog,128-3-10,0486_eid_dnn_128-3-10_dog_10_n02095570_601.png
swag_regnety_16gf_in1k,1,487,NaN,dog,bird,32-3-10,0487_eid_dnn_32-3-10_bird_10_n01797886_21510.png
swag_regnety_16gf_in1k,1,488,NaN,chair,chair,1-3-10,0488_eid_dnn_1-3-10_chair_10_n04099969_9425.png
swag_regnety_16gf_in1k,1,489,NaN,bear,keyboard,8-3-10,0489_eid_dnn_8-3-10_keyboard_10_n04505470_4228.png
swag_regnety_16gf_in1k,1,490,NaN,dog,elephant,32-3-10,0490_eid_dnn_32-3-10_elephant_10_n02504013_7553.png
swag_regnety_16gf_in1k,1,491,NaN,dog,cat,64-3-10,0491_eid_dnn_64-3-10_cat_10_n02125311_8090.png
swag_regnety_16gf_in1k,1,492,NaN,chair,keyboard,8-3-10,0492_eid_dnn_8-3-10_keyboard_10_n04505470_10041.png
swag_regnety_16gf_in1k,1,493,NaN,bicycle,bicycle,4-3-10,0493_eid_dnn_4-3-10_bicycle_10_n03792782_1833.png
swag_regnety_16gf_in1k,1,494,NaN,bottle,bottle,4-3-10,0494_eid_dnn_4-3-10_bottle_10_n04557648_11642.png
swag_regnety_16gf_in1k,1,495,NaN,dog,car,128-3-10,0495_eid_dnn_128-3-10_car_10_n03100240_7219.png
swag_regnety_16gf_in1k,1,496,NaN,truck,truck,1-3-10,0496_eid_dnn_1-3-10_truck_10_n03796401_9642.png
swag_regnety_16gf_in1k,1,497,NaN,cat,cat,1-3-10,0497_eid_dnn_1-3-10_cat_10_n02125311_13348.png
swag_regnety_16gf_in1k,1,498,NaN,dog,bottle,128-3-10,0498_eid_dnn_128-3-10_bottle_10_n04560804_5540.png
swag_regnety_16gf_in1k,1,499,NaN,bottle,bottle,4-3-10,0499_eid_dnn_4-3-10_bottle_10_n03983396_9604.png
swag_regnety_16gf_in1k,1,500,NaN,oven,truck,32-3-10,0500_eid_dnn_32-3-10_truck_10_n03417042_5180.png
swag_regnety_16gf_in1k,1,501,NaN,dog,dog,16-3-10,0501_eid_dnn_16-3-10_dog_10_n02109525_3364.png
swag_regnety_16gf_in1k,1,502,NaN,clock,clock,2-3-10,0502_eid_dnn_2-3-10_clock_10_n04548280_353.png
swag_regnety_16gf_in1k,1,503,NaN,dog,dog,1-3-10,0503_eid_dnn_1-3-10_dog_10_n02111129_4423.png
swag_regnety_16gf_in1k,1,504,NaN,dog,dog,16-3-10,0504_eid_dnn_16-3-10_dog_10_n02108000_1538.png
swag_regnety_16gf_in1k,1,505,NaN,clock,keyboard,16-3-10,0505_eid_dnn_16-3-10_keyboard_10_n03085013_3439.png
swag_regnety_16gf_in1k,1,506,NaN,truck,truck,8-3-10,0506_eid_dnn_8-3-10_truck_10_n03417042_4016.png
swag_regnety_16gf_in1k,1,507,NaN,oven,knife,32-3-10,0507_eid_dnn_32-3-10_knife_10_n03041632_39883.png
swag_regnety_16gf_in1k,1,508,NaN,airplane,bear,16-3-10,0508_eid_dnn_16-3-10_bear_10_n02132136_21181.png
swag_regnety_16gf_in1k,1,509,NaN,elephant,elephant,8-3-10,0509_eid_dnn_8-3-10_elephant_10_n02504013_718.png
swag_regnety_16gf_in1k,1,510,NaN,oven,oven,2-3-10,0510_eid_dnn_2-3-10_oven_10_n04111531_4146.png
swag_regnety_16gf_in1k,1,511,NaN,boat,airplane,8-3-10,0511_eid_dnn_8-3-10_airplane_10_n02690373_10769.png
swag_regnety_16gf_in1k,1,512,NaN,dog,dog,16-3-10,0512_eid_dnn_16-3-10_dog_10_n02109525_4516.png
swag_regnety_16gf_in1k,1,513,NaN,boat,boat,4-3-10,0513_eid_dnn_4-3-10_boat_10_n02951358_12333.png
swag_regnety_16gf_in1k,1,514,NaN,dog,chair,8-3-10,0514_eid_dnn_8-3-10_chair_10_n04099969_20421.png
swag_regnety_16gf_in1k,1,515,NaN,chair,knife,4-3-10,0515_eid_dnn_4-3-10_knife_10_n03041632_21165.png
swag_regnety_16gf_in1k,1,516,NaN,bicycle,bicycle,1-3-10,0516_eid_dnn_1-3-10_bicycle_10_n02835271_21439.png
swag_regnety_16gf_in1k,1,517,NaN,boat,boat,1-3-10,0517_eid_dnn_1-3-10_boat_10_n04273569_24526.png
swag_regnety_16gf_in1k,1,518,NaN,dog,bottle,32-3-10,0518_eid_dnn_32-3-10_bottle_10_n04579145_2276.png
swag_regnety_16gf_in1k,1,519,NaN,bear,bear,8-3-10,0519_eid_dnn_8-3-10_bear_10_n02134418_1642.png
swag_regnety_16gf_in1k,1,520,NaN,bicycle,bicycle,1-3-10,0520_eid_dnn_1-3-10_bicycle_10_n02835271_15468.png
swag_regnety_16gf_in1k,1,521,NaN,knife,keyboard,64-3-10,0521_eid_dnn_64-3-10_keyboard_10_n03085013_26532.png
swag_regnety_16gf_in1k,1,522,NaN,oven,clock,64-3-10,0522_eid_dnn_64-3-10_clock_10_n03196217_6809.png
swag_regnety_16gf_in1k,1,523,NaN,airplane,bear,64-3-10,0523_eid_dnn_64-3-10_bear_10_n02134418_4384.png
swag_regnety_16gf_in1k,1,524,NaN,dog,dog,4-3-10,0524_eid_dnn_4-3-10_dog_10_n02086240_1183.png
swag_regnety_16gf_in1k,1,525,NaN,chair,chair,1-3-10,0525_eid_dnn_1-3-10_chair_10_n04429376_294.png
swag_regnety_16gf_in1k,1,526,NaN,dog,clock,64-3-10,0526_eid_dnn_64-3-10_clock_10_n02708093_4893.png
swag_regnety_16gf_in1k,1,527,NaN,dog,keyboard,64-3-10,0527_eid_dnn_64-3-10_keyboard_10_n03085013_3098.png
swag_regnety_16gf_in1k,1,528,NaN,bear,cat,16-3-10,0528_eid_dnn_16-3-10_cat_10_n02125311_22073.png
swag_regnety_16gf_in1k,1,529,NaN,chair,bird,2-3-10,0529_eid_dnn_2-3-10_bird_10_n01558993_869.png
swag_regnety_16gf_in1k,1,530,NaN,bird,bird,1-3-10,0530_eid_dnn_1-3-10_bird_10_n01817953_8025.png
swag_regnety_16gf_in1k,1,531,NaN,chair,chair,2-3-10,0531_eid_dnn_2-3-10_chair_10_n04099969_24235.png
swag_regnety_16gf_in1k,1,532,NaN,dog,knife,128-3-10,0532_eid_dnn_128-3-10_knife_10_n03041632_1201.png
swag_regnety_16gf_in1k,1,533,NaN,bicycle,bicycle,4-3-10,0533_eid_dnn_4-3-10_bicycle_10_n03792782_16212.png
swag_regnety_16gf_in1k,1,534,NaN,oven,oven,4-3-10,0534_eid_dnn_4-3-10_oven_10_n04111531_11655.png
swag_regnety_16gf_in1k,1,535,NaN,dog,bicycle,16-3-10,0535_eid_dnn_16-3-10_bicycle_10_n02835271_5152.png
swag_regnety_16gf_in1k,1,536,NaN,knife,bear,16-3-10,0536_eid_dnn_16-3-10_bear_10_n02132136_19290.png
swag_regnety_16gf_in1k,1,537,NaN,dog,car,32-3-10,0537_eid_dnn_32-3-10_car_10_n03100240_6103.png
swag_regnety_16gf_in1k,1,538,NaN,airplane,airplane,16-3-10,0538_eid_dnn_16-3-10_airplane_10_n02690373_5714.png
swag_regnety_16gf_in1k,1,539,NaN,chair,chair,1-3-10,0539_eid_dnn_1-3-10_chair_10_n04429376_2915.png
swag_regnety_16gf_in1k,1,540,NaN,dog,clock,64-3-10,0540_eid_dnn_64-3-10_clock_10_n02708093_7827.png
swag_regnety_16gf_in1k,1,541,NaN,truck,truck,2-3-10,0541_eid_dnn_2-3-10_truck_10_n03417042_6247.png
swag_regnety_16gf_in1k,1,542,NaN,cat,elephant,32-3-10,0542_eid_dnn_32-3-10_elephant_10_n02504013_947.png
swag_regnety_16gf_in1k,1,543,NaN,truck,truck,1-3-10,0543_eid_dnn_1-3-10_truck_10_n03417042_2074.png
swag_regnety_16gf_in1k,1,544,NaN,airplane,airplane,8-3-10,0544_eid_dnn_8-3-10_airplane_10_n02690373_5221.png
swag_regnety_16gf_in1k,1,545,NaN,knife,oven,4-3-10,0545_eid_dnn_4-3-10_oven_10_n04111531_6629.png
swag_regnety_16gf_in1k,1,546,NaN,knife,knife,1-3-10,0546_eid_dnn_1-3-10_knife_10_n03041632_36277.png
swag_regnety_16gf_in1k,1,547,NaN,dog,cat,64-3-10,0547_eid_dnn_64-3-10_cat_10_n02123597_4700.png
swag_regnety_16gf_in1k,1,548,NaN,airplane,airplane,16-3-10,0548_eid_dnn_16-3-10_airplane_10_n02690373_20042.png
swag_regnety_16gf_in1k,1,549,NaN,dog,chair,32-3-10,0549_eid_dnn_32-3-10_chair_10_n02791124_15539.png
swag_regnety_16gf_in1k,1,550,NaN,cat,cat,1-3-10,0550_eid_dnn_1-3-10_cat_10_n02123394_5700.png
swag_regnety_16gf_in1k,1,551,NaN,car,car,4-3-10,0551_eid_dnn_4-3-10_car_10_n04285008_13595.png
swag_regnety_16gf_in1k,1,552,NaN,chair,chair,8-3-10,0552_eid_dnn_8-3-10_chair_10_n02791124_2282.png
swag_regnety_16gf_in1k,1,553,NaN,dog,dog,2-3-10,0553_eid_dnn_2-3-10_dog_10_n02100877_3973.png
swag_regnety_16gf_in1k,1,554,NaN,dog,truck,64-3-10,0554_eid_dnn_64-3-10_truck_10_n03417042_12297.png
swag_regnety_16gf_in1k,1,555,NaN,elephant,elephant,8-3-10,0555_eid_dnn_8-3-10_elephant_10_n02504013_6303.png
swag_regnety_16gf_in1k,1,556,NaN,airplane,car,8-3-10,0556_eid_dnn_8-3-10_car_10_n02814533_43990.png
swag_regnety_16gf_in1k,1,557,NaN,dog,truck,16-3-10,0557_eid_dnn_16-3-10_truck_10_n04467665_58456.png
swag_regnety_16gf_in1k,1,558,NaN,dog,dog,4-3-10,0558_eid_dnn_4-3-10_dog_10_n02098105_526.png
swag_regnety_16gf_in1k,1,559,NaN,bird,bird,2-3-10,0559_eid_dnn_2-3-10_bird_10_n02037110_27907.png
swag_regnety_16gf_in1k,1,560,NaN,dog,keyboard,64-3-10,0560_eid_dnn_64-3-10_keyboard_10_n03085013_20849.png
swag_regnety_16gf_in1k,1,561,NaN,chair,chair,1-3-10,0561_eid_dnn_1-3-10_chair_10_n03376595_12524.png
swag_regnety_16gf_in1k,1,562,NaN,dog,bird,64-3-10,0562_eid_dnn_64-3-10_bird_10_n02056570_27055.png
swag_regnety_16gf_in1k,1,563,NaN,dog,truck,64-3-10,0563_eid_dnn_64-3-10_truck_10_n03417042_4934.png
swag_regnety_16gf_in1k,1,564,NaN,bear,knife,16-3-10,0564_eid_dnn_16-3-10_knife_10_n03041632_3210.png
swag_regnety_16gf_in1k,1,565,NaN,dog,dog,8-3-10,0565_eid_dnn_8-3-10_dog_10_n02096585_2118.png
swag_regnety_16gf_in1k,1,566,NaN,keyboard,keyboard,1-3-10,0566_eid_dnn_1-3-10_keyboard_10_n03085013_3539.png
swag_regnety_16gf_in1k,1,567,NaN,truck,truck,4-3-10,0567_eid_dnn_4-3-10_truck_10_n03417042_17215.png
swag_regnety_16gf_in1k,1,568,NaN,dog,cat,8-3-10,0568_eid_dnn_8-3-10_cat_10_n02123045_12657.png
swag_regnety_16gf_in1k,1,569,NaN,bottle,knife,64-3-10,0569_eid_dnn_64-3-10_knife_10_n03041632_20576.png
swag_regnety_16gf_in1k,1,570,NaN,airplane,truck,8-3-10,0570_eid_dnn_8-3-10_truck_10_n04467665_23905.png
swag_regnety_16gf_in1k,1,571,NaN,dog,oven,128-3-10,0571_eid_dnn_128-3-10_oven_10_n04111531_9427.png
swag_regnety_16gf_in1k,1,572,NaN,airplane,oven,16-3-10,0572_eid_dnn_16-3-10_oven_10_n04111531_14329.png
swag_regnety_16gf_in1k,1,573,NaN,dog,bird,64-3-10,0573_eid_dnn_64-3-10_bird_10_n01614925_19422.png
swag_regnety_16gf_in1k,1,574,NaN,dog,bottle,128-3-10,0574_eid_dnn_128-3-10_bottle_10_n02823428_1154.png
swag_regnety_16gf_in1k,1,575,NaN,dog,dog,4-3-10,0575_eid_dnn_4-3-10_dog_10_n02093859_4797.png
swag_regnety_16gf_in1k,1,576,NaN,airplane,airplane,1-3-10,0576_eid_dnn_1-3-10_airplane_10_n02690373_2632.png
swag_regnety_16gf_in1k,1,577,NaN,dog,keyboard,32-3-10,0577_eid_dnn_32-3-10_keyboard_10_n03085013_15825.png
swag_regnety_16gf_in1k,1,578,NaN,truck,car,4-3-10,0578_eid_dnn_4-3-10_car_10_n02814533_52674.png
swag_regnety_16gf_in1k,1,579,NaN,airplane,truck,32-3-10,0579_eid_dnn_32-3-10_truck_10_n04467665_32937.png
swag_regnety_16gf_in1k,1,580,NaN,bear,bird,4-3-10,0580_eid_dnn_4-3-10_bird_10_n01537544_20.png
swag_regnety_16gf_in1k,1,581,NaN,airplane,clock,8-3-10,0581_eid_dnn_8-3-10_clock_10_n03196217_564.png
swag_regnety_16gf_in1k,1,582,NaN,knife,knife,1-3-10,0582_eid_dnn_1-3-10_knife_10_n03041632_76163.png
swag_regnety_16gf_in1k,1,583,NaN,bear,airplane,32-3-10,0583_eid_dnn_32-3-10_airplane_10_n02690373_8559.png
swag_regnety_16gf_in1k,1,584,NaN,keyboard,keyboard,2-3-10,0584_eid_dnn_2-3-10_keyboard_10_n04505470_3941.png
swag_regnety_16gf_in1k,1,585,NaN,dog,oven,64-3-10,0585_eid_dnn_64-3-10_oven_10_n04111531_9910.png
swag_regnety_16gf_in1k,1,586,NaN,dog,bottle,128-3-10,0586_eid_dnn_128-3-10_bottle_10_n03937543_7191.png
swag_regnety_16gf_in1k,1,587,NaN,boat,boat,4-3-10,0587_eid_dnn_4-3-10_boat_10_n03662601_14818.png
swag_regnety_16gf_in1k,1,588,NaN,dog,boat,128-3-10,0588_eid_dnn_128-3-10_boat_10_n02951358_588.png
swag_regnety_16gf_in1k,1,589,NaN,bear,bear,1-3-10,0589_eid_dnn_1-3-10_bear_10_n02133161_2851.png
swag_regnety_16gf_in1k,1,590,NaN,chair,chair,2-3-10,0590_eid_dnn_2-3-10_chair_10_n03376595_16212.png
swag_regnety_16gf_in1k,1,591,NaN,boat,boat,8-3-10,0591_eid_dnn_8-3-10_boat_10_n04612504_1613.png
swag_regnety_16gf_in1k,1,592,NaN,dog,chair,128-3-10,0592_eid_dnn_128-3-10_chair_10_n02791124_3198.png
swag_regnety_16gf_in1k,1,593,NaN,airplane,knife,16-3-10,0593_eid_dnn_16-3-10_knife_10_n03041632_32785.png
swag_regnety_16gf_in1k,1,594,NaN,dog,oven,32-3-10,0594_eid_dnn_32-3-10_oven_10_n04111531_22797.png
swag_regnety_16gf_in1k,1,595,NaN,dog,oven,128-3-10,0595_eid_dnn_128-3-10_oven_10_n04111531_5077.png
swag_regnety_16gf_in1k,1,596,NaN,bear,bear,1-3-10,0596_eid_dnn_1-3-10_bear_10_n02134418_2569.png
swag_regnety_16gf_in1k,1,597,NaN,car,car,1-3-10,0597_eid_dnn_1-3-10_car_10_n03100240_15284.png
swag_regnety_16gf_in1k,1,598,NaN,keyboard,keyboard,2-3-10,0598_eid_dnn_2-3-10_keyboard_10_n04505470_4791.png
swag_regnety_16gf_in1k,1,599,NaN,dog,bicycle,64-3-10,0599_eid_dnn_64-3-10_bicycle_10_n03792782_551.png
swag_regnety_16gf_in1k,1,600,NaN,bottle,bottle,1-3-10,0600_eid_dnn_1-3-10_bottle_10_n03937543_2999.png
swag_regnety_16gf_in1k,1,601,NaN,airplane,airplane,16-3-10,0601_eid_dnn_16-3-10_airplane_10_n02690373_7279.png
swag_regnety_16gf_in1k,1,602,NaN,dog,airplane,128-3-10,0602_eid_dnn_128-3-10_airplane_10_n02690373_9312.png
swag_regnety_16gf_in1k,1,603,NaN,dog,chair,8-3-10,0603_eid_dnn_8-3-10_chair_10_n04429376_2591.png
swag_regnety_16gf_in1k,1,604,NaN,dog,dog,32-3-10,0604_eid_dnn_32-3-10_dog_10_n02109525_175.png
swag_regnety_16gf_in1k,1,605,NaN,dog,dog,1-3-10,0605_eid_dnn_1-3-10_dog_10_n02106166_476.png
swag_regnety_16gf_in1k,1,606,NaN,boat,boat,1-3-10,0606_eid_dnn_1-3-10_boat_10_n02951358_1136.png
swag_regnety_16gf_in1k,1,607,NaN,boat,knife,2-3-10,0607_eid_dnn_2-3-10_knife_10_n03041632_3079.png
swag_regnety_16gf_in1k,1,608,NaN,dog,truck,128-3-10,0608_eid_dnn_128-3-10_truck_10_n03417042_18603.png
swag_regnety_16gf_in1k,1,609,NaN,dog,cat,128-3-10,0609_eid_dnn_128-3-10_cat_10_n02123045_9492.png
swag_regnety_16gf_in1k,1,610,NaN,dog,boat,64-3-10,0610_eid_dnn_64-3-10_boat_10_n03344393_8642.png
swag_regnety_16gf_in1k,1,611,NaN,dog,bird,32-3-10,0611_eid_dnn_32-3-10_bird_10_n02009229_6228.png
swag_regnety_16gf_in1k,1,612,NaN,dog,chair,8-3-10,0612_eid_dnn_8-3-10_chair_10_n02791124_13704.png
swag_regnety_16gf_in1k,1,613,NaN,dog,knife,64-3-10,0613_eid_dnn_64-3-10_knife_10_n03041632_28129.png
swag_regnety_16gf_in1k,1,614,NaN,dog,keyboard,32-3-10,0614_eid_dnn_32-3-10_keyboard_10_n04505470_8244.png
swag_regnety_16gf_in1k,1,615,NaN,knife,knife,4-3-10,0615_eid_dnn_4-3-10_knife_10_n03041632_30196.png
swag_regnety_16gf_in1k,1,616,NaN,dog,keyboard,32-3-10,0616_eid_dnn_32-3-10_keyboard_10_n04505470_5109.png
swag_regnety_16gf_in1k,1,617,NaN,knife,knife,8-3-10,0617_eid_dnn_8-3-10_knife_10_n03041632_44738.png
swag_regnety_16gf_in1k,1,618,NaN,car,car,1-3-10,0618_eid_dnn_1-3-10_car_10_n02814533_4726.png
swag_regnety_16gf_in1k,1,619,NaN,elephant,elephant,2-3-10,0619_eid_dnn_2-3-10_elephant_10_n02504458_13583.png
swag_regnety_16gf_in1k,1,620,NaN,boat,boat,1-3-10,0620_eid_dnn_1-3-10_boat_10_n03662601_26396.png
swag_regnety_16gf_in1k,1,621,NaN,boat,boat,4-3-10,0621_eid_dnn_4-3-10_boat_10_n04273569_4518.png
swag_regnety_16gf_in1k,1,622,NaN,dog,bird,16-3-10,0622_eid_dnn_16-3-10_bird_10_n01843383_3274.png
swag_regnety_16gf_in1k,1,623,NaN,dog,clock,16-3-10,0623_eid_dnn_16-3-10_clock_10_n02708093_3621.png
swag_regnety_16gf_in1k,1,624,NaN,airplane,boat,16-3-10,0624_eid_dnn_16-3-10_boat_10_n02951358_1360.png
swag_regnety_16gf_in1k,1,625,NaN,keyboard,keyboard,4-3-10,0625_eid_dnn_4-3-10_keyboard_10_n03085013_5819.png
swag_regnety_16gf_in1k,1,626,NaN,dog,dog,64-3-10,0626_eid_dnn_64-3-10_dog_10_n02087046_15420.png
swag_regnety_16gf_in1k,1,627,NaN,bottle,bottle,1-3-10,0627_eid_dnn_1-3-10_bottle_10_n03937543_1358.png
swag_regnety_16gf_in1k,1,628,NaN,dog,bottle,16-3-10,0628_eid_dnn_16-3-10_bottle_10_n02823428_12643.png
swag_regnety_16gf_in1k,1,629,NaN,keyboard,keyboard,1-3-10,0629_eid_dnn_1-3-10_keyboard_10_n04505470_1245.png
swag_regnety_16gf_in1k,1,630,NaN,airplane,car,16-3-10,0630_eid_dnn_16-3-10_car_10_n02814533_47325.png
swag_regnety_16gf_in1k,1,631,NaN,dog,car,32-3-10,0631_eid_dnn_32-3-10_car_10_n04285008_4331.png
swag_regnety_16gf_in1k,1,632,NaN,elephant,elephant,1-3-10,0632_eid_dnn_1-3-10_elephant_10_n02504013_2984.png
swag_regnety_16gf_in1k,1,633,NaN,cat,cat,2-3-10,0633_eid_dnn_2-3-10_cat_10_n02124075_13278.png
swag_regnety_16gf_in1k,1,634,NaN,bear,truck,16-3-10,0634_eid_dnn_16-3-10_truck_10_n04467665_8189.png
swag_regnety_16gf_in1k,1,635,NaN,bottle,bottle,2-3-10,0635_eid_dnn_2-3-10_bottle_10_n02823428_13931.png
swag_regnety_16gf_in1k,1,636,NaN,dog,cat,128-3-10,0636_eid_dnn_128-3-10_cat_10_n02124075_12350.png
swag_regnety_16gf_in1k,1,637,NaN,dog,elephant,16-3-10,0637_eid_dnn_16-3-10_elephant_10_n02504013_4590.png
swag_regnety_16gf_in1k,1,638,NaN,bear,bird,32-3-10,0638_eid_dnn_32-3-10_bird_10_n01855672_6144.png
swag_regnety_16gf_in1k,1,639,NaN,airplane,bear,128-3-10,0639_eid_dnn_128-3-10_bear_10_n02132136_15262.png
swag_regnety_16gf_in1k,1,640,NaN,cat,cat,2-3-10,0640_eid_dnn_2-3-10_cat_10_n02125311_15293.png
swag_regnety_16gf_in1k,1,641,NaN,bicycle,bicycle,4-3-10,0641_eid_dnn_4-3-10_bicycle_10_n02835271_1487.png
swag_regnety_16gf_in1k,1,642,NaN,dog,dog,4-3-10,0642_eid_dnn_4-3-10_dog_10_n02107574_5896.png
swag_regnety_16gf_in1k,1,643,NaN,keyboard,keyboard,4-3-10,0643_eid_dnn_4-3-10_keyboard_10_n03085013_15365.png
swag_regnety_16gf_in1k,1,644,NaN,dog,truck,32-3-10,0644_eid_dnn_32-3-10_truck_10_n04467665_67927.png
swag_regnety_16gf_in1k,1,645,NaN,bottle,bottle,2-3-10,0645_eid_dnn_2-3-10_bottle_10_n04591713_3085.png
swag_regnety_16gf_in1k,1,646,NaN,clock,clock,4-3-10,0646_eid_dnn_4-3-10_clock_10_n04548280_5096.png
swag_regnety_16gf_in1k,1,647,NaN,dog,cat,16-3-10,0647_eid_dnn_16-3-10_cat_10_n02123159_13611.png
swag_regnety_16gf_in1k,1,648,NaN,dog,oven,128-3-10,0648_eid_dnn_128-3-10_oven_10_n04111531_15568.png
swag_regnety_16gf_in1k,1,649,NaN,dog,knife,32-3-10,0649_eid_dnn_32-3-10_knife_10_n03041632_8618.png
swag_regnety_16gf_in1k,1,650,NaN,oven,oven,4-3-10,0650_eid_dnn_4-3-10_oven_10_n04111531_6445.png
swag_regnety_16gf_in1k,1,651,NaN,knife,bicycle,128-3-10,0651_eid_dnn_128-3-10_bicycle_10_n03792782_70724.png
swag_regnety_16gf_in1k,1,652,NaN,knife,knife,32-3-10,0652_eid_dnn_32-3-10_knife_10_n03041632_45326.png
swag_regnety_16gf_in1k,1,653,NaN,dog,oven,32-3-10,0653_eid_dnn_32-3-10_oven_10_n04111531_7134.png
swag_regnety_16gf_in1k,1,654,NaN,dog,keyboard,64-3-10,0654_eid_dnn_64-3-10_keyboard_10_n03085013_23828.png
swag_regnety_16gf_in1k,1,655,NaN,bear,bear,2-3-10,0655_eid_dnn_2-3-10_bear_10_n02134084_7193.png
swag_regnety_16gf_in1k,1,656,NaN,knife,clock,8-3-10,0656_eid_dnn_8-3-10_clock_10_n02708093_1431.png
swag_regnety_16gf_in1k,1,657,NaN,dog,airplane,64-3-10,0657_eid_dnn_64-3-10_airplane_10_n02690373_4364.png
swag_regnety_16gf_in1k,1,658,NaN,dog,bottle,64-3-10,0658_eid_dnn_64-3-10_bottle_10_n02823428_12997.png
swag_regnety_16gf_in1k,1,659,NaN,bear,boat,8-3-10,0659_eid_dnn_8-3-10_boat_10_n02951358_9837.png
swag_regnety_16gf_in1k,1,660,NaN,dog,elephant,64-3-10,0660_eid_dnn_64-3-10_elephant_10_n02504013_7746.png
swag_regnety_16gf_in1k,1,661,NaN,oven,cat,32-3-10,0661_eid_dnn_32-3-10_cat_10_n02123597_6548.png
swag_regnety_16gf_in1k,1,662,NaN,oven,knife,32-3-10,0662_eid_dnn_32-3-10_knife_10_n03041632_30286.png
swag_regnety_16gf_in1k,1,663,NaN,airplane,bear,16-3-10,0663_eid_dnn_16-3-10_bear_10_n02132136_33437.png
swag_regnety_16gf_in1k,1,664,NaN,bear,bear,2-3-10,0664_eid_dnn_2-3-10_bear_10_n02134084_14360.png
swag_regnety_16gf_in1k,1,665,NaN,dog,bottle,32-3-10,0665_eid_dnn_32-3-10_bottle_10_n02823428_13280.png
swag_regnety_16gf_in1k,1,666,NaN,dog,boat,32-3-10,0666_eid_dnn_32-3-10_boat_10_n03344393_2142.png
swag_regnety_16gf_in1k,1,667,NaN,bear,bottle,16-3-10,0667_eid_dnn_16-3-10_bottle_10_n04557648_9415.png
swag_regnety_16gf_in1k,1,668,NaN,airplane,airplane,32-3-10,0668_eid_dnn_32-3-10_airplane_10_n02690373_2564.png
swag_regnety_16gf_in1k,1,669,NaN,dog,dog,128-3-10,0669_eid_dnn_128-3-10_dog_10_n02095889_1087.png
swag_regnety_16gf_in1k,1,670,NaN,dog,dog,2-3-10,0670_eid_dnn_2-3-10_dog_10_n02092339_3615.png
swag_regnety_16gf_in1k,1,671,NaN,truck,truck,2-3-10,0671_eid_dnn_2-3-10_truck_10_n03417042_2978.png
swag_regnety_16gf_in1k,1,672,NaN,bear,bottle,32-3-10,0672_eid_dnn_32-3-10_bottle_10_n04557648_3768.png
swag_regnety_16gf_in1k,1,673,NaN,dog,boat,64-3-10,0673_eid_dnn_64-3-10_boat_10_n04273569_5901.png
swag_regnety_16gf_in1k,1,674,NaN,car,car,8-3-10,0674_eid_dnn_8-3-10_car_10_n02814533_3573.png
swag_regnety_16gf_in1k,1,675,NaN,truck,truck,4-3-10,0675_eid_dnn_4-3-10_truck_10_n04467665_1840.png
swag_regnety_16gf_in1k,1,676,NaN,bird,bird,8-3-10,0676_eid_dnn_8-3-10_bird_10_n02028035_7406.png
swag_regnety_16gf_in1k,1,677,NaN,airplane,clock,16-3-10,0677_eid_dnn_16-3-10_clock_10_n04548280_575.png
swag_regnety_16gf_in1k,1,678,NaN,bottle,bottle,1-3-10,0678_eid_dnn_1-3-10_bottle_10_n04560804_9169.png
swag_regnety_16gf_in1k,1,679,NaN,cat,cat,2-3-10,0679_eid_dnn_2-3-10_cat_10_n02125311_22949.png
swag_regnety_16gf_in1k,1,680,NaN,bear,elephant,8-3-10,0680_eid_dnn_8-3-10_elephant_10_n02504013_848.png
swag_regnety_16gf_in1k,1,681,NaN,bear,bicycle,16-3-10,0681_eid_dnn_16-3-10_bicycle_10_n02835271_1974.png
swag_regnety_16gf_in1k,1,682,NaN,bottle,oven,4-3-10,0682_eid_dnn_4-3-10_oven_10_n04111531_6217.png
swag_regnety_16gf_in1k,1,683,NaN,elephant,elephant,2-3-10,0683_eid_dnn_2-3-10_elephant_10_n02504458_5882.png
swag_regnety_16gf_in1k,1,684,NaN,bird,bird,1-3-10,0684_eid_dnn_1-3-10_bird_10_n02011460_6726.png
swag_regnety_16gf_in1k,1,685,NaN,dog,bear,128-3-10,0685_eid_dnn_128-3-10_bear_10_n02133161_13089.png
swag_regnety_16gf_in1k,1,686,NaN,airplane,bird,32-3-10,0686_eid_dnn_32-3-10_bird_10_n01795545_17639.png
swag_regnety_16gf_in1k,1,687,NaN,dog,car,128-3-10,0687_eid_dnn_128-3-10_car_10_n02814533_83588.png
swag_regnety_16gf_in1k,1,688,NaN,clock,oven,16-3-10,0688_eid_dnn_16-3-10_oven_10_n04111531_10064.png
swag_regnety_16gf_in1k,1,689,NaN,dog,dog,2-3-10,0689_eid_dnn_2-3-10_dog_10_n02113712_5246.png
swag_regnety_16gf_in1k,1,690,NaN,dog,cat,16-3-10,0690_eid_dnn_16-3-10_cat_10_n02125311_46738.png
swag_regnety_16gf_in1k,1,691,NaN,dog,dog,1-3-10,0691_eid_dnn_1-3-10_dog_10_n02100236_9311.png
swag_regnety_16gf_in1k,1,692,NaN,dog,elephant,128-3-10,0692_eid_dnn_128-3-10_elephant_10_n02504458_5844.png
swag_regnety_16gf_in1k,1,693,NaN,dog,bear,32-3-10,0693_eid_dnn_32-3-10_bear_10_n02132136_3378.png
swag_regnety_16gf_in1k,1,694,NaN,truck,truck,1-3-10,0694_eid_dnn_1-3-10_truck_10_n03417042_1263.png
swag_regnety_16gf_in1k,1,695,NaN,truck,truck,1-3-10,0695_eid_dnn_1-3-10_truck_10_n03417042_19596.png
swag_regnety_16gf_in1k,1,696,NaN,keyboard,keyboard,1-3-10,0696_eid_dnn_1-3-10_keyboard_10_n04505470_1351.png
swag_regnety_16gf_in1k,1,697,NaN,oven,oven,2-3-10,0697_eid_dnn_2-3-10_oven_10_n04111531_3902.png
swag_regnety_16gf_in1k,1,698,NaN,airplane,airplane,2-3-10,0698_eid_dnn_2-3-10_airplane_10_n02690373_19345.png
swag_regnety_16gf_in1k,1,699,NaN,dog,bottle,64-3-10,0699_eid_dnn_64-3-10_bottle_10_n03937543_4523.png
swag_regnety_16gf_in1k,1,700,NaN,knife,bicycle,64-3-10,0700_eid_dnn_64-3-10_bicycle_10_n02835271_22448.png
swag_regnety_16gf_in1k,1,701,NaN,bear,bear,1-3-10,0701_eid_dnn_1-3-10_bear_10_n02132136_11198.png
swag_regnety_16gf_in1k,1,702,NaN,bear,bird,8-3-10,0702_eid_dnn_8-3-10_bird_10_n01798484_3266.png
swag_regnety_16gf_in1k,1,703,NaN,knife,bird,128-3-10,0703_eid_dnn_128-3-10_bird_10_n02017213_15742.png
swag_regnety_16gf_in1k,1,704,NaN,knife,knife,4-3-10,0704_eid_dnn_4-3-10_knife_10_n03041632_15431.png
swag_regnety_16gf_in1k,1,705,NaN,oven,oven,1-3-10,0705_eid_dnn_1-3-10_oven_10_n04111531_5093.png
swag_regnety_16gf_in1k,1,706,NaN,dog,truck,32-3-10,0706_eid_dnn_32-3-10_truck_10_n03417042_11062.png
swag_regnety_16gf_in1k,1,707,NaN,dog,dog,2-3-10,0707_eid_dnn_2-3-10_dog_10_n02090721_2242.png
swag_regnety_16gf_in1k,1,708,NaN,dog,knife,64-3-10,0708_eid_dnn_64-3-10_knife_10_n03041632_18304.png
swag_regnety_16gf_in1k,1,709,NaN,boat,cat,8-3-10,0709_eid_dnn_8-3-10_cat_10_n02123597_10945.png
swag_regnety_16gf_in1k,1,710,NaN,dog,car,128-3-10,0710_eid_dnn_128-3-10_car_10_n03100240_6552.png
swag_regnety_16gf_in1k,1,711,NaN,bottle,airplane,64-3-10,0711_eid_dnn_64-3-10_airplane_10_n02690373_2109.png
swag_regnety_16gf_in1k,1,712,NaN,chair,chair,2-3-10,0712_eid_dnn_2-3-10_chair_10_n03376595_2512.png
swag_regnety_16gf_in1k,1,713,NaN,bottle,bottle,2-3-10,0713_eid_dnn_2-3-10_bottle_10_n03937543_4964.png
swag_regnety_16gf_in1k,1,714,NaN,keyboard,keyboard,2-3-10,0714_eid_dnn_2-3-10_keyboard_10_n03085013_19416.png
swag_regnety_16gf_in1k,1,715,NaN,dog,truck,64-3-10,0715_eid_dnn_64-3-10_truck_10_n04467665_64792.png
swag_regnety_16gf_in1k,1,716,NaN,knife,knife,2-3-10,0716_eid_dnn_2-3-10_knife_10_n03041632_3781.png
swag_regnety_16gf_in1k,1,717,NaN,dog,keyboard,64-3-10,0717_eid_dnn_64-3-10_keyboard_10_n03085013_16057.png
swag_regnety_16gf_in1k,1,718,NaN,dog,elephant,64-3-10,0718_eid_dnn_64-3-10_elephant_10_n02504013_6823.png
swag_regnety_16gf_in1k,1,719,NaN,dog,bird,128-3-10,0719_eid_dnn_128-3-10_bird_10_n02056570_1441.png
swag_regnety_16gf_in1k,1,720,NaN,knife,knife,2-3-10,0720_eid_dnn_2-3-10_knife_10_n03041632_91582.png
swag_regnety_16gf_in1k,1,721,NaN,bicycle,boat,8-3-10,0721_eid_dnn_8-3-10_boat_10_n02951358_4650.png
swag_regnety_16gf_in1k,1,722,NaN,chair,chair,1-3-10,0722_eid_dnn_1-3-10_chair_10_n02791124_8788.png
swag_regnety_16gf_in1k,1,723,NaN,truck,truck,4-3-10,0723_eid_dnn_4-3-10_truck_10_n03417042_21758.png
swag_regnety_16gf_in1k,1,724,NaN,knife,elephant,64-3-10,0724_eid_dnn_64-3-10_elephant_10_n02504458_6132.png
swag_regnety_16gf_in1k,1,725,NaN,dog,keyboard,64-3-10,0725_eid_dnn_64-3-10_keyboard_10_n03085013_24668.png
swag_regnety_16gf_in1k,1,726,NaN,bird,bird,1-3-10,0726_eid_dnn_1-3-10_bird_10_n01616318_6098.png
swag_regnety_16gf_in1k,1,727,NaN,dog,chair,128-3-10,0727_eid_dnn_128-3-10_chair_10_n03376595_4033.png
swag_regnety_16gf_in1k,1,728,NaN,truck,truck,2-3-10,0728_eid_dnn_2-3-10_truck_10_n04467665_71055.png
swag_regnety_16gf_in1k,1,729,NaN,elephant,elephant,4-3-10,0729_eid_dnn_4-3-10_elephant_10_n02504013_7271.png
swag_regnety_16gf_in1k,1,730,NaN,knife,knife,2-3-10,0730_eid_dnn_2-3-10_knife_10_n03041632_50648.png
swag_regnety_16gf_in1k,1,731,NaN,dog,clock,128-3-10,0731_eid_dnn_128-3-10_clock_10_n03196217_7795.png
swag_regnety_16gf_in1k,1,732,NaN,cat,cat,1-3-10,0732_eid_dnn_1-3-10_cat_10_n02123045_5387.png
swag_regnety_16gf_in1k,1,733,NaN,chair,chair,1-3-10,0733_eid_dnn_1-3-10_chair_10_n04099969_755.png
swag_regnety_16gf_in1k,1,734,NaN,dog,elephant,32-3-10,0734_eid_dnn_32-3-10_elephant_10_n02504458_6398.png
swag_regnety_16gf_in1k,1,735,NaN,keyboard,keyboard,4-3-10,0735_eid_dnn_4-3-10_keyboard_10_n03085013_9209.png
swag_regnety_16gf_in1k,1,736,NaN,bear,boat,16-3-10,0736_eid_dnn_16-3-10_boat_10_n04612504_673.png
swag_regnety_16gf_in1k,1,737,NaN,bottle,bottle,2-3-10,0737_eid_dnn_2-3-10_bottle_10_n04591713_2485.png
swag_regnety_16gf_in1k,1,738,NaN,truck,truck,4-3-10,0738_eid_dnn_4-3-10_truck_10_n03417042_6654.png
swag_regnety_16gf_in1k,1,739,NaN,airplane,bicycle,16-3-10,0739_eid_dnn_16-3-10_bicycle_10_n02835271_1499.png
swag_regnety_16gf_in1k,1,740,NaN,dog,chair,128-3-10,0740_eid_dnn_128-3-10_chair_10_n02791124_2600.png
swag_regnety_16gf_in1k,1,741,NaN,dog,bird,32-3-10,0741_eid_dnn_32-3-10_bird_10_n01622779_12117.png
swag_regnety_16gf_in1k,1,742,NaN,dog,dog,4-3-10,0742_eid_dnn_4-3-10_dog_10_n02098105_2333.png
swag_regnety_16gf_in1k,1,743,NaN,cat,bird,16-3-10,0743_eid_dnn_16-3-10_bird_10_n01833805_3242.png
swag_regnety_16gf_in1k,1,744,NaN,bird,bird,4-3-10,0744_eid_dnn_4-3-10_bird_10_n02056570_4807.png
swag_regnety_16gf_in1k,1,745,NaN,dog,keyboard,128-3-10,0745_eid_dnn_128-3-10_keyboard_10_n04505470_4467.png
swag_regnety_16gf_in1k,1,746,NaN,knife,oven,32-3-10,0746_eid_dnn_32-3-10_oven_10_n04111531_2027.png
swag_regnety_16gf_in1k,1,747,NaN,clock,clock,32-3-10,0747_eid_dnn_32-3-10_clock_10_n02708093_3790.png
swag_regnety_16gf_in1k,1,748,NaN,dog,cat,32-3-10,0748_eid_dnn_32-3-10_cat_10_n02123045_7240.png
swag_regnety_16gf_in1k,1,749,NaN,bear,dog,8-3-10,0749_eid_dnn_8-3-10_dog_10_n02087394_239.png
swag_regnety_16gf_in1k,1,750,NaN,dog,oven,128-3-10,0750_eid_dnn_128-3-10_oven_10_n04111531_14848.png
swag_regnety_16gf_in1k,1,751,NaN,clock,clock,1-3-10,0751_eid_dnn_1-3-10_clock_10_n03196217_6707.png
swag_regnety_16gf_in1k,1,752,NaN,dog,cat,8-3-10,0752_eid_dnn_8-3-10_cat_10_n02123394_3329.png
swag_regnety_16gf_in1k,1,753,NaN,dog,dog,32-3-10,0753_eid_dnn_32-3-10_dog_10_n02093428_3667.png
swag_regnety_16gf_in1k,1,754,NaN,car,car,1-3-10,0754_eid_dnn_1-3-10_car_10_n02814533_37110.png
swag_regnety_16gf_in1k,1,755,NaN,dog,car,32-3-10,0755_eid_dnn_32-3-10_car_10_n02814533_32802.png
swag_regnety_16gf_in1k,1,756,NaN,dog,truck,32-3-10,0756_eid_dnn_32-3-10_truck_10_n03796401_4454.png
swag_regnety_16gf_in1k,1,757,NaN,car,car,1-3-10,0757_eid_dnn_1-3-10_car_10_n04285008_11291.png
swag_regnety_16gf_in1k,1,758,NaN,knife,bicycle,128-3-10,0758_eid_dnn_128-3-10_bicycle_10_n02835271_14544.png
swag_regnety_16gf_in1k,1,759,NaN,truck,truck,8-3-10,0759_eid_dnn_8-3-10_truck_10_n04467665_28301.png
swag_regnety_16gf_in1k,1,760,NaN,bottle,bottle,2-3-10,0760_eid_dnn_2-3-10_bottle_10_n02823428_4068.png
swag_regnety_16gf_in1k,1,761,NaN,truck,truck,4-3-10,0761_eid_dnn_4-3-10_truck_10_n03417042_13013.png
swag_regnety_16gf_in1k,1,762,NaN,airplane,truck,16-3-10,0762_eid_dnn_16-3-10_truck_10_n03417042_2767.png
swag_regnety_16gf_in1k,1,763,NaN,airplane,airplane,1-3-10,0763_eid_dnn_1-3-10_airplane_10_n02690373_6332.png
swag_regnety_16gf_in1k,1,764,NaN,elephant,elephant,4-3-10,0764_eid_dnn_4-3-10_elephant_10_n02504458_3951.png
swag_regnety_16gf_in1k,1,765,NaN,bicycle,bicycle,4-3-10,0765_eid_dnn_4-3-10_bicycle_10_n02835271_8180.png
swag_regnety_16gf_in1k,1,766,NaN,elephant,elephant,1-3-10,0766_eid_dnn_1-3-10_elephant_10_n02504458_6888.png
swag_regnety_16gf_in1k,1,767,NaN,dog,car,128-3-10,0767_eid_dnn_128-3-10_car_10_n03100240_5489.png
swag_regnety_16gf_in1k,1,768,NaN,oven,oven,4-3-10,0768_eid_dnn_4-3-10_oven_10_n04111531_13520.png
swag_regnety_16gf_in1k,1,769,NaN,dog,bicycle,16-3-10,0769_eid_dnn_16-3-10_bicycle_10_n02835271_1426.png
swag_regnety_16gf_in1k,1,770,NaN,airplane,car,8-3-10,0770_eid_dnn_8-3-10_car_10_n02814533_31384.png
swag_regnety_16gf_in1k,1,771,NaN,cat,oven,16-3-10,0771_eid_dnn_16-3-10_oven_10_n04111531_2091.png
swag_regnety_16gf_in1k,1,772,NaN,dog,oven,64-3-10,0772_eid_dnn_64-3-10_oven_10_n04111531_17507.png
swag_regnety_16gf_in1k,1,773,NaN,boat,oven,4-3-10,0773_eid_dnn_4-3-10_oven_10_n04111531_6851.png
swag_regnety_16gf_in1k,1,774,NaN,bear,bear,4-3-10,0774_eid_dnn_4-3-10_bear_10_n02134084_10112.png
swag_regnety_16gf_in1k,1,775,NaN,boat,boat,2-3-10,0775_eid_dnn_2-3-10_boat_10_n02951358_34051.png
swag_regnety_16gf_in1k,1,776,NaN,bear,chair,16-3-10,0776_eid_dnn_16-3-10_chair_10_n03376595_6864.png
swag_regnety_16gf_in1k,1,777,NaN,dog,oven,32-3-10,0777_eid_dnn_32-3-10_oven_10_n04111531_7469.png
swag_regnety_16gf_in1k,1,778,NaN,boat,airplane,8-3-10,0778_eid_dnn_8-3-10_airplane_10_n02690373_7535.png
swag_regnety_16gf_in1k,1,779,NaN,dog,bottle,32-3-10,0779_eid_dnn_32-3-10_bottle_10_n02823428_8300.png
swag_regnety_16gf_in1k,1,780,NaN,dog,car,64-3-10,0780_eid_dnn_64-3-10_car_10_n03100240_7626.png
swag_regnety_16gf_in1k,1,781,NaN,knife,elephant,128-3-10,0781_eid_dnn_128-3-10_elephant_10_n02504458_2068.png
swag_regnety_16gf_in1k,1,782,NaN,knife,knife,2-3-10,0782_eid_dnn_2-3-10_knife_10_n03041632_30666.png
swag_regnety_16gf_in1k,1,783,NaN,dog,cat,16-3-10,0783_eid_dnn_16-3-10_cat_10_n02123597_3921.png
swag_regnety_16gf_in1k,1,784,NaN,car,car,4-3-10,0784_eid_dnn_4-3-10_car_10_n03100240_12560.png
swag_regnety_16gf_in1k,1,785,NaN,dog,knife,32-3-10,0785_eid_dnn_32-3-10_knife_10_n03041632_43634.png
swag_regnety_16gf_in1k,1,786,NaN,cat,cat,128-3-10,0786_eid_dnn_128-3-10_cat_10_n02125311_3438.png
swag_regnety_16gf_in1k,1,787,NaN,dog,bird,8-3-10,0787_eid_dnn_8-3-10_bird_10_n02025239_9177.png
swag_regnety_16gf_in1k,1,788,NaN,dog,airplane,64-3-10,0788_eid_dnn_64-3-10_airplane_10_n02690373_2162.png
swag_regnety_16gf_in1k,1,789,NaN,airplane,boat,16-3-10,0789_eid_dnn_16-3-10_boat_10_n02951358_9103.png
swag_regnety_16gf_in1k,1,790,NaN,cat,cat,2-3-10,0790_eid_dnn_2-3-10_cat_10_n02123045_2721.png
swag_regnety_16gf_in1k,1,791,NaN,airplane,airplane,2-3-10,0791_eid_dnn_2-3-10_airplane_10_n02690373_9762.png
swag_regnety_16gf_in1k,1,792,NaN,dog,keyboard,32-3-10,0792_eid_dnn_32-3-10_keyboard_10_n03085013_20284.png
swag_regnety_16gf_in1k,1,793,NaN,bear,bear,2-3-10,0793_eid_dnn_2-3-10_bear_10_n02134418_2254.png
swag_regnety_16gf_in1k,1,794,NaN,dog,oven,8-3-10,0794_eid_dnn_8-3-10_oven_10_n04111531_5802.png
swag_regnety_16gf_in1k,1,795,NaN,bear,boat,64-3-10,0795_eid_dnn_64-3-10_boat_10_n02951358_35073.png
swag_regnety_16gf_in1k,1,796,NaN,dog,elephant,64-3-10,0796_eid_dnn_64-3-10_elephant_10_n02504458_6130.png
swag_regnety_16gf_in1k,1,797,NaN,dog,bicycle,32-3-10,0797_eid_dnn_32-3-10_bicycle_10_n02835271_15601.png
swag_regnety_16gf_in1k,1,798,NaN,dog,bicycle,64-3-10,0798_eid_dnn_64-3-10_bicycle_10_n03792782_20007.png
swag_regnety_16gf_in1k,1,799,NaN,dog,boat,64-3-10,0799_eid_dnn_64-3-10_boat_10_n02951358_4544.png
swag_regnety_16gf_in1k,1,800,NaN,dog,bicycle,32-3-10,0800_eid_dnn_32-3-10_bicycle_10_n02835271_4160.png
swag_regnety_16gf_in1k,1,801,NaN,bear,bird,8-3-10,0801_eid_dnn_8-3-10_bird_10_n01622779_6459.png
swag_regnety_16gf_in1k,1,802,NaN,bottle,bottle,1-3-10,0802_eid_dnn_1-3-10_bottle_10_n03937543_2677.png
swag_regnety_16gf_in1k,1,803,NaN,dog,keyboard,64-3-10,0803_eid_dnn_64-3-10_keyboard_10_n03085013_20852.png
swag_regnety_16gf_in1k,1,804,NaN,knife,knife,4-3-10,0804_eid_dnn_4-3-10_knife_10_n03041632_19971.png
swag_regnety_16gf_in1k,1,805,NaN,airplane,car,16-3-10,0805_eid_dnn_16-3-10_car_10_n02814533_8025.png
swag_regnety_16gf_in1k,1,806,NaN,dog,bear,16-3-10,0806_eid_dnn_16-3-10_bear_10_n02133161_3850.png
swag_regnety_16gf_in1k,1,807,NaN,cat,clock,16-3-10,0807_eid_dnn_16-3-10_clock_10_n04548280_1041.png
swag_regnety_16gf_in1k,1,808,NaN,dog,chair,8-3-10,0808_eid_dnn_8-3-10_chair_10_n02791124_2035.png
swag_regnety_16gf_in1k,1,809,NaN,oven,oven,1-3-10,0809_eid_dnn_1-3-10_oven_10_n04111531_22834.png
swag_regnety_16gf_in1k,1,810,NaN,bear,bear,8-3-10,0810_eid_dnn_8-3-10_bear_10_n02132136_1694.png
swag_regnety_16gf_in1k,1,811,NaN,dog,airplane,128-3-10,0811_eid_dnn_128-3-10_airplane_10_n02690373_4943.png
swag_regnety_16gf_in1k,1,812,NaN,oven,chair,16-3-10,0812_eid_dnn_16-3-10_chair_10_n02791124_206.png
swag_regnety_16gf_in1k,1,813,NaN,clock,clock,2-3-10,0813_eid_dnn_2-3-10_clock_10_n03196217_7759.png
swag_regnety_16gf_in1k,1,814,NaN,oven,oven,2-3-10,0814_eid_dnn_2-3-10_oven_10_n04111531_20591.png
swag_regnety_16gf_in1k,1,815,NaN,dog,knife,128-3-10,0815_eid_dnn_128-3-10_knife_10_n03041632_7119.png
swag_regnety_16gf_in1k,1,816,NaN,dog,boat,64-3-10,0816_eid_dnn_64-3-10_boat_10_n04612504_5489.png
swag_regnety_16gf_in1k,1,817,NaN,dog,knife,8-3-10,0817_eid_dnn_8-3-10_knife_10_n03041632_94620.png
swag_regnety_16gf_in1k,1,818,NaN,elephant,elephant,2-3-10,0818_eid_dnn_2-3-10_elephant_10_n02504013_3433.png
swag_regnety_16gf_in1k,1,819,NaN,dog,airplane,128-3-10,0819_eid_dnn_128-3-10_airplane_10_n02690373_845.png
swag_regnety_16gf_in1k,1,820,NaN,chair,chair,4-3-10,0820_eid_dnn_4-3-10_chair_10_n04429376_11383.png
swag_regnety_16gf_in1k,1,821,NaN,dog,chair,32-3-10,0821_eid_dnn_32-3-10_chair_10_n02791124_2611.png
swag_regnety_16gf_in1k,1,822,NaN,dog,bear,16-3-10,0822_eid_dnn_16-3-10_bear_10_n02134084_9307.png
swag_regnety_16gf_in1k,1,823,NaN,knife,boat,128-3-10,0823_eid_dnn_128-3-10_boat_10_n02951358_34418.png
swag_regnety_16gf_in1k,1,824,NaN,dog,keyboard,32-3-10,0824_eid_dnn_32-3-10_keyboard_10_n03085013_15484.png
swag_regnety_16gf_in1k,1,825,NaN,elephant,elephant,4-3-10,0825_eid_dnn_4-3-10_elephant_10_n02504013_8270.png
swag_regnety_16gf_in1k,1,826,NaN,dog,elephant,16-3-10,0826_eid_dnn_16-3-10_elephant_10_n02504013_2431.png
swag_regnety_16gf_in1k,1,827,NaN,dog,clock,16-3-10,0827_eid_dnn_16-3-10_clock_10_n04548280_6134.png
swag_regnety_16gf_in1k,1,828,NaN,keyboard,keyboard,2-3-10,0828_eid_dnn_2-3-10_keyboard_10_n03085013_7858.png
swag_regnety_16gf_in1k,1,829,NaN,dog,bear,32-3-10,0829_eid_dnn_32-3-10_bear_10_n02134084_3479.png
swag_regnety_16gf_in1k,1,830,NaN,dog,bicycle,32-3-10,0830_eid_dnn_32-3-10_bicycle_10_n03792782_63201.png
swag_regnety_16gf_in1k,1,831,NaN,airplane,airplane,1-3-10,0831_eid_dnn_1-3-10_airplane_10_n02690373_1235.png
swag_regnety_16gf_in1k,1,832,NaN,dog,keyboard,128-3-10,0832_eid_dnn_128-3-10_keyboard_10_n03085013_20837.png
swag_regnety_16gf_in1k,1,833,NaN,dog,dog,16-3-10,0833_eid_dnn_16-3-10_dog_10_n02111129_1065.png
swag_regnety_16gf_in1k,1,834,NaN,airplane,knife,16-3-10,0834_eid_dnn_16-3-10_knife_10_n03041632_52371.png
swag_regnety_16gf_in1k,1,835,NaN,airplane,airplane,2-3-10,0835_eid_dnn_2-3-10_airplane_10_n02690373_4024.png
swag_regnety_16gf_in1k,1,836,NaN,car,car,4-3-10,0836_eid_dnn_4-3-10_car_10_n02814533_45150.png
swag_regnety_16gf_in1k,1,837,NaN,truck,truck,1-3-10,0837_eid_dnn_1-3-10_truck_10_n03417042_4761.png
swag_regnety_16gf_in1k,1,838,NaN,bear,cat,8-3-10,0838_eid_dnn_8-3-10_cat_10_n02123597_9901.png
swag_regnety_16gf_in1k,1,839,NaN,bear,bicycle,16-3-10,0839_eid_dnn_16-3-10_bicycle_10_n02835271_4246.png
swag_regnety_16gf_in1k,1,840,NaN,airplane,airplane,4-3-10,0840_eid_dnn_4-3-10_airplane_10_n02690373_744.png
swag_regnety_16gf_in1k,1,841,NaN,chair,chair,4-3-10,0841_eid_dnn_4-3-10_chair_10_n04099969_195.png
swag_regnety_16gf_in1k,1,842,NaN,knife,bird,128-3-10,0842_eid_dnn_128-3-10_bird_10_n01560419_5447.png
swag_regnety_16gf_in1k,1,843,NaN,dog,clock,128-3-10,0843_eid_dnn_128-3-10_clock_10_n03196217_1079.png
swag_regnety_16gf_in1k,1,844,NaN,bear,clock,8-3-10,0844_eid_dnn_8-3-10_clock_10_n02708093_2717.png
swag_regnety_16gf_in1k,1,845,NaN,cat,cat,1-3-10,0845_eid_dnn_1-3-10_cat_10_n02123159_4519.png
swag_regnety_16gf_in1k,1,846,NaN,dog,elephant,8-3-10,0846_eid_dnn_8-3-10_elephant_10_n02504013_812.png
swag_regnety_16gf_in1k,1,847,NaN,keyboard,keyboard,1-3-10,0847_eid_dnn_1-3-10_keyboard_10_n03085013_2594.png
swag_regnety_16gf_in1k,1,848,NaN,keyboard,keyboard,1-3-10,0848_eid_dnn_1-3-10_keyboard_10_n03085013_20709.png
swag_regnety_16gf_in1k,1,849,NaN,dog,cat,64-3-10,0849_eid_dnn_64-3-10_cat_10_n02125311_17933.png
swag_regnety_16gf_in1k,1,850,NaN,bear,bear,1-3-10,0850_eid_dnn_1-3-10_bear_10_n02133161_1656.png
swag_regnety_16gf_in1k,1,851,NaN,truck,truck,2-3-10,0851_eid_dnn_2-3-10_truck_10_n03417042_94.png
swag_regnety_16gf_in1k,1,852,NaN,dog,bicycle,64-3-10,0852_eid_dnn_64-3-10_bicycle_10_n02835271_262.png
swag_regnety_16gf_in1k,1,853,NaN,dog,chair,64-3-10,0853_eid_dnn_64-3-10_chair_10_n02791124_15756.png
swag_regnety_16gf_in1k,1,854,NaN,dog,elephant,128-3-10,0854_eid_dnn_128-3-10_elephant_10_n02504013_13223.png
swag_regnety_16gf_in1k,1,855,NaN,keyboard,keyboard,4-3-10,0855_eid_dnn_4-3-10_keyboard_10_n04505470_2378.png
swag_regnety_16gf_in1k,1,856,NaN,dog,bottle,16-3-10,0856_eid_dnn_16-3-10_bottle_10_n04560804_15967.png
swag_regnety_16gf_in1k,1,857,NaN,dog,clock,16-3-10,0857_eid_dnn_16-3-10_clock_10_n02708093_6857.png
swag_regnety_16gf_in1k,1,858,NaN,airplane,airplane,2-3-10,0858_eid_dnn_2-3-10_airplane_10_n02690373_6665.png
swag_regnety_16gf_in1k,1,859,NaN,dog,bottle,64-3-10,0859_eid_dnn_64-3-10_bottle_10_n04591713_6164.png
swag_regnety_16gf_in1k,1,860,NaN,bear,bear,1-3-10,0860_eid_dnn_1-3-10_bear_10_n02133161_4223.png
swag_regnety_16gf_in1k,1,861,NaN,dog,bicycle,4-3-10,0861_eid_dnn_4-3-10_bicycle_10_n03792782_6152.png
swag_regnety_16gf_in1k,1,862,NaN,oven,oven,2-3-10,0862_eid_dnn_2-3-10_oven_10_n04111531_8269.png
swag_regnety_16gf_in1k,1,863,NaN,dog,cat,128-3-10,0863_eid_dnn_128-3-10_cat_10_n02123394_6505.png
swag_regnety_16gf_in1k,1,864,NaN,car,car,1-3-10,0864_eid_dnn_1-3-10_car_10_n04285008_16856.png
swag_regnety_16gf_in1k,1,865,NaN,knife,knife,4-3-10,0865_eid_dnn_4-3-10_knife_10_n03041632_4443.png
swag_regnety_16gf_in1k,1,866,NaN,boat,boat,2-3-10,0866_eid_dnn_2-3-10_boat_10_n02951358_3556.png
swag_regnety_16gf_in1k,1,867,NaN,cat,oven,8-3-10,0867_eid_dnn_8-3-10_oven_10_n04111531_1002.png
swag_regnety_16gf_in1k,1,868,NaN,cat,cat,1-3-10,0868_eid_dnn_1-3-10_cat_10_n02123159_4157.png
swag_regnety_16gf_in1k,1,869,NaN,dog,bird,32-3-10,0869_eid_dnn_32-3-10_bird_10_n01824575_1765.png
swag_regnety_16gf_in1k,1,870,NaN,dog,truck,64-3-10,0870_eid_dnn_64-3-10_truck_10_n03417042_25947.png
swag_regnety_16gf_in1k,1,871,NaN,dog,car,128-3-10,0871_eid_dnn_128-3-10_car_10_n03100240_688.png
swag_regnety_16gf_in1k,1,872,NaN,dog,chair,128-3-10,0872_eid_dnn_128-3-10_chair_10_n04099969_44784.png
swag_regnety_16gf_in1k,1,873,NaN,airplane,knife,16-3-10,0873_eid_dnn_16-3-10_knife_10_n03041632_47234.png
swag_regnety_16gf_in1k,1,874,NaN,dog,dog,8-3-10,0874_eid_dnn_8-3-10_dog_10_n02099267_15002.png
swag_regnety_16gf_in1k,1,875,NaN,bear,bird,64-3-10,0875_eid_dnn_64-3-10_bird_10_n01796340_1230.png
swag_regnety_16gf_in1k,1,876,NaN,oven,oven,1-3-10,0876_eid_dnn_1-3-10_oven_10_n04111531_9308.png
swag_regnety_16gf_in1k,1,877,NaN,chair,oven,2-3-10,0877_eid_dnn_2-3-10_oven_10_n04111531_15367.png
swag_regnety_16gf_in1k,1,878,NaN,knife,knife,1-3-10,0878_eid_dnn_1-3-10_knife_10_n03041632_36247.png
swag_regnety_16gf_in1k,1,879,NaN,chair,chair,1-3-10,0879_eid_dnn_1-3-10_chair_10_n02791124_1788.png
swag_regnety_16gf_in1k,1,880,NaN,bottle,bottle,2-3-10,0880_eid_dnn_2-3-10_bottle_10_n03937543_6003.png
swag_regnety_16gf_in1k,1,881,NaN,chair,chair,4-3-10,0881_eid_dnn_4-3-10_chair_10_n04429376_12617.png
swag_regnety_16gf_in1k,1,882,NaN,dog,knife,128-3-10,0882_eid_dnn_128-3-10_knife_10_n03041632_18468.png
swag_regnety_16gf_in1k,1,883,NaN,dog,chair,32-3-10,0883_eid_dnn_32-3-10_chair_10_n02791124_9216.png
swag_regnety_16gf_in1k,1,884,NaN,clock,clock,8-3-10,0884_eid_dnn_8-3-10_clock_10_n04548280_6477.png
swag_regnety_16gf_in1k,1,885,NaN,truck,truck,1-3-10,0885_eid_dnn_1-3-10_truck_10_n03417042_7869.png
swag_regnety_16gf_in1k,1,886,NaN,airplane,airplane,16-3-10,0886_eid_dnn_16-3-10_airplane_10_n02690373_3753.png
swag_regnety_16gf_in1k,1,887,NaN,dog,knife,32-3-10,0887_eid_dnn_32-3-10_knife_10_n03041632_27963.png
swag_regnety_16gf_in1k,1,888,NaN,oven,dog,32-3-10,0888_eid_dnn_32-3-10_dog_10_n02108422_577.png
swag_regnety_16gf_in1k,1,889,NaN,elephant,elephant,1-3-10,0889_eid_dnn_1-3-10_elephant_10_n02504013_6615.png
swag_regnety_16gf_in1k,1,890,NaN,cat,cat,4-3-10,0890_eid_dnn_4-3-10_cat_10_n02124075_2113.png
swag_regnety_16gf_in1k,1,891,NaN,cat,cat,8-3-10,0891_eid_dnn_8-3-10_cat_10_n02123045_8636.png
swag_regnety_16gf_in1k,1,892,NaN,bear,bear,16-3-10,0892_eid_dnn_16-3-10_bear_10_n02132136_1211.png
swag_regnety_16gf_in1k,1,893,NaN,dog,dog,1-3-10,0893_eid_dnn_1-3-10_dog_10_n02097658_816.png
swag_regnety_16gf_in1k,1,894,NaN,dog,bird,16-3-10,0894_eid_dnn_16-3-10_bird_10_n02006656_6688.png
swag_regnety_16gf_in1k,1,895,NaN,cat,cat,2-3-10,0895_eid_dnn_2-3-10_cat_10_n02124075_7932.png
swag_regnety_16gf_in1k,1,896,NaN,dog,elephant,64-3-10,0896_eid_dnn_64-3-10_elephant_10_n02504013_3418.png
swag_regnety_16gf_in1k,1,897,NaN,bicycle,bicycle,2-3-10,0897_eid_dnn_2-3-10_bicycle_10_n02835271_6641.png
swag_regnety_16gf_in1k,1,898,NaN,dog,keyboard,128-3-10,0898_eid_dnn_128-3-10_keyboard_10_n03085013_24399.png
swag_regnety_16gf_in1k,1,899,NaN,clock,clock,1-3-10,0899_eid_dnn_1-3-10_clock_10_n03196217_3022.png
swag_regnety_16gf_in1k,1,900,NaN,dog,bicycle,32-3-10,0900_eid_dnn_32-3-10_bicycle_10_n02835271_12025.png
swag_regnety_16gf_in1k,1,901,NaN,airplane,elephant,32-3-10,0901_eid_dnn_32-3-10_elephant_10_n02504458_1211.png
swag_regnety_16gf_in1k,1,902,NaN,dog,keyboard,128-3-10,0902_eid_dnn_128-3-10_keyboard_10_n03085013_7879.png
swag_regnety_16gf_in1k,1,903,NaN,dog,clock,128-3-10,0903_eid_dnn_128-3-10_clock_10_n04548280_1535.png
swag_regnety_16gf_in1k,1,904,NaN,dog,bird,128-3-10,0904_eid_dnn_128-3-10_bird_10_n01798484_7213.png
swag_regnety_16gf_in1k,1,905,NaN,cat,elephant,16-3-10,0905_eid_dnn_16-3-10_elephant_10_n02504458_3172.png
swag_regnety_16gf_in1k,1,906,NaN,bear,bird,16-3-10,0906_eid_dnn_16-3-10_bird_10_n02028035_2478.png
swag_regnety_16gf_in1k,1,907,NaN,clock,clock,2-3-10,0907_eid_dnn_2-3-10_clock_10_n04548280_4583.png
swag_regnety_16gf_in1k,1,908,NaN,chair,chair,2-3-10,0908_eid_dnn_2-3-10_chair_10_n02791124_2649.png
swag_regnety_16gf_in1k,1,909,NaN,dog,bird,32-3-10,0909_eid_dnn_32-3-10_bird_10_n02002724_1235.png
swag_regnety_16gf_in1k,1,910,NaN,dog,truck,128-3-10,0910_eid_dnn_128-3-10_truck_10_n03796401_6977.png
swag_regnety_16gf_in1k,1,911,NaN,truck,oven,1-3-10,0911_eid_dnn_1-3-10_oven_10_n04111531_8350.png
swag_regnety_16gf_in1k,1,912,NaN,bear,dog,8-3-10,0912_eid_dnn_8-3-10_dog_10_n02113624_8833.png
swag_regnety_16gf_in1k,1,913,NaN,knife,keyboard,8-3-10,0913_eid_dnn_8-3-10_keyboard_10_n03085013_19512.png
swag_regnety_16gf_in1k,1,914,NaN,airplane,truck,16-3-10,0914_eid_dnn_16-3-10_truck_10_n03796401_4311.png
swag_regnety_16gf_in1k,1,915,NaN,dog,oven,16-3-10,0915_eid_dnn_16-3-10_oven_10_n04111531_23668.png
swag_regnety_16gf_in1k,1,916,NaN,dog,oven,64-3-10,0916_eid_dnn_64-3-10_oven_10_n04111531_807.png
swag_regnety_16gf_in1k,1,917,NaN,bicycle,bicycle,2-3-10,0917_eid_dnn_2-3-10_bicycle_10_n02835271_3956.png
swag_regnety_16gf_in1k,1,918,NaN,dog,cat,64-3-10,0918_eid_dnn_64-3-10_cat_10_n02125311_2869.png
swag_regnety_16gf_in1k,1,919,NaN,dog,elephant,128-3-10,0919_eid_dnn_128-3-10_elephant_10_n02504013_6141.png
swag_regnety_16gf_in1k,1,920,NaN,dog,cat,32-3-10,0920_eid_dnn_32-3-10_cat_10_n02123045_7248.png
swag_regnety_16gf_in1k,1,921,NaN,oven,elephant,32-3-10,0921_eid_dnn_32-3-10_elephant_10_n02504013_4295.png
swag_regnety_16gf_in1k,1,922,NaN,dog,dog,32-3-10,0922_eid_dnn_32-3-10_dog_10_n02107574_5583.png
swag_regnety_16gf_in1k,1,923,NaN,dog,oven,32-3-10,0923_eid_dnn_32-3-10_oven_10_n04111531_14325.png
swag_regnety_16gf_in1k,1,924,NaN,airplane,dog,16-3-10,0924_eid_dnn_16-3-10_dog_10_n02089867_6106.png
swag_regnety_16gf_in1k,1,925,NaN,dog,keyboard,16-3-10,0925_eid_dnn_16-3-10_keyboard_10_n04505470_2737.png
swag_regnety_16gf_in1k,1,926,NaN,dog,bird,16-3-10,0926_eid_dnn_16-3-10_bird_10_n02011460_23755.png
swag_regnety_16gf_in1k,1,927,NaN,airplane,bear,32-3-10,0927_eid_dnn_32-3-10_bear_10_n02134084_22032.png
swag_regnety_16gf_in1k,1,928,NaN,bird,bird,2-3-10,0928_eid_dnn_2-3-10_bird_10_n01855672_19945.png
swag_regnety_16gf_in1k,1,929,NaN,dog,dog,16-3-10,0929_eid_dnn_16-3-10_dog_10_n02101388_2177.png
swag_regnety_16gf_in1k,1,930,NaN,cat,knife,32-3-10,0930_eid_dnn_32-3-10_knife_10_n03041632_23667.png
swag_regnety_16gf_in1k,1,931,NaN,car,car,2-3-10,0931_eid_dnn_2-3-10_car_10_n02814533_61501.png
swag_regnety_16gf_in1k,1,932,NaN,knife,knife,2-3-10,0932_eid_dnn_2-3-10_knife_10_n03041632_8321.png
swag_regnety_16gf_in1k,1,933,NaN,knife,knife,4-3-10,0933_eid_dnn_4-3-10_knife_10_n03041632_126.png
swag_regnety_16gf_in1k,1,934,NaN,dog,chair,64-3-10,0934_eid_dnn_64-3-10_chair_10_n04429376_22670.png
swag_regnety_16gf_in1k,1,935,NaN,oven,oven,2-3-10,0935_eid_dnn_2-3-10_oven_10_n04111531_6958.png
swag_regnety_16gf_in1k,1,936,NaN,dog,dog,32-3-10,0936_eid_dnn_32-3-10_dog_10_n02109961_53644.png
swag_regnety_16gf_in1k,1,937,NaN,boat,airplane,16-3-10,0937_eid_dnn_16-3-10_airplane_10_n02690373_1038.png
swag_regnety_16gf_in1k,1,938,NaN,bear,airplane,32-3-10,0938_eid_dnn_32-3-10_airplane_10_n02690373_8815.png
swag_regnety_16gf_in1k,1,939,NaN,knife,bird,128-3-10,0939_eid_dnn_128-3-10_bird_10_n02002556_5393.png
swag_regnety_16gf_in1k,1,940,NaN,dog,oven,16-3-10,0940_eid_dnn_16-3-10_oven_10_n04111531_8537.png
swag_regnety_16gf_in1k,1,941,NaN,boat,boat,2-3-10,0941_eid_dnn_2-3-10_boat_10_n03344393_3219.png
swag_regnety_16gf_in1k,1,942,NaN,dog,dog,16-3-10,0942_eid_dnn_16-3-10_dog_10_n02112350_4795.png
swag_regnety_16gf_in1k,1,943,NaN,oven,bird,32-3-10,0943_eid_dnn_32-3-10_bird_10_n01531178_24471.png
swag_regnety_16gf_in1k,1,944,NaN,bear,car,16-3-10,0944_eid_dnn_16-3-10_car_10_n02814533_12310.png
swag_regnety_16gf_in1k,1,945,NaN,airplane,boat,16-3-10,0945_eid_dnn_16-3-10_boat_10_n03344393_7308.png
swag_regnety_16gf_in1k,1,946,NaN,bottle,car,8-3-10,0946_eid_dnn_8-3-10_car_10_n04285008_2395.png
swag_regnety_16gf_in1k,1,947,NaN,truck,truck,4-3-10,0947_eid_dnn_4-3-10_truck_10_n04467665_10122.png
swag_regnety_16gf_in1k,1,948,NaN,airplane,airplane,16-3-10,0948_eid_dnn_16-3-10_airplane_10_n02690373_848.png
swag_regnety_16gf_in1k,1,949,NaN,dog,boat,32-3-10,0949_eid_dnn_32-3-10_boat_10_n04273569_9604.png
swag_regnety_16gf_in1k,1,950,NaN,dog,knife,64-3-10,0950_eid_dnn_64-3-10_knife_10_n03041632_19571.png
swag_regnety_16gf_in1k,1,951,NaN,airplane,knife,8-3-10,0951_eid_dnn_8-3-10_knife_10_n03041632_30958.png
swag_regnety_16gf_in1k,1,952,NaN,airplane,airplane,8-3-10,0952_eid_dnn_8-3-10_airplane_10_n02690373_945.png
swag_regnety_16gf_in1k,1,953,NaN,dog,clock,16-3-10,0953_eid_dnn_16-3-10_clock_10_n04548280_8171.png
swag_regnety_16gf_in1k,1,954,NaN,dog,boat,128-3-10,0954_eid_dnn_128-3-10_boat_10_n04273569_229.png
swag_regnety_16gf_in1k,1,955,NaN,bicycle,bicycle,4-3-10,0955_eid_dnn_4-3-10_bicycle_10_n02835271_8618.png
swag_regnety_16gf_in1k,1,956,NaN,dog,boat,64-3-10,0956_eid_dnn_64-3-10_boat_10_n04612504_3379.png
swag_regnety_16gf_in1k,1,957,NaN,elephant,elephant,1-3-10,0957_eid_dnn_1-3-10_elephant_10_n02504458_7506.png
swag_regnety_16gf_in1k,1,958,NaN,knife,airplane,32-3-10,0958_eid_dnn_32-3-10_airplane_10_n02690373_5130.png
swag_regnety_16gf_in1k,1,959,NaN,dog,boat,8-3-10,0959_eid_dnn_8-3-10_boat_10_n03662601_17352.png
swag_regnety_16gf_in1k,1,960,NaN,knife,boat,32-3-10,0960_eid_dnn_32-3-10_boat_10_n02951358_15413.png
swag_regnety_16gf_in1k,1,961,NaN,airplane,airplane,8-3-10,0961_eid_dnn_8-3-10_airplane_10_n02690373_2851.png
swag_regnety_16gf_in1k,1,962,NaN,dog,bicycle,32-3-10,0962_eid_dnn_32-3-10_bicycle_10_n03792782_11804.png
swag_regnety_16gf_in1k,1,963,NaN,bear,truck,16-3-10,0963_eid_dnn_16-3-10_truck_10_n04467665_67726.png
swag_regnety_16gf_in1k,1,964,NaN,boat,boat,4-3-10,0964_eid_dnn_4-3-10_boat_10_n03344393_3518.png
swag_regnety_16gf_in1k,1,965,NaN,cat,cat,2-3-10,0965_eid_dnn_2-3-10_cat_10_n02123394_3339.png
swag_regnety_16gf_in1k,1,966,NaN,dog,bicycle,128-3-10,0966_eid_dnn_128-3-10_bicycle_10_n02835271_3941.png
swag_regnety_16gf_in1k,1,967,NaN,dog,airplane,32-3-10,0967_eid_dnn_32-3-10_airplane_10_n02690373_629.png
swag_regnety_16gf_in1k,1,968,NaN,dog,oven,64-3-10,0968_eid_dnn_64-3-10_oven_10_n04111531_14178.png
swag_regnety_16gf_in1k,1,969,NaN,bicycle,bicycle,1-3-10,0969_eid_dnn_1-3-10_bicycle_10_n03792782_32379.png
swag_regnety_16gf_in1k,1,970,NaN,cat,cat,2-3-10,0970_eid_dnn_2-3-10_cat_10_n02123597_13839.png
swag_regnety_16gf_in1k,1,971,NaN,dog,bear,16-3-10,0971_eid_dnn_16-3-10_bear_10_n02134418_2604.png
swag_regnety_16gf_in1k,1,972,NaN,dog,elephant,128-3-10,0972_eid_dnn_128-3-10_elephant_10_n02504013_420.png
swag_regnety_16gf_in1k,1,973,NaN,cat,chair,16-3-10,0973_eid_dnn_16-3-10_chair_10_n03376595_6986.png
swag_regnety_16gf_in1k,1,974,NaN,boat,boat,2-3-10,0974_eid_dnn_2-3-10_boat_10_n04612504_27320.png
swag_regnety_16gf_in1k,1,975,NaN,dog,dog,8-3-10,0975_eid_dnn_8-3-10_dog_10_n02105056_1381.png
swag_regnety_16gf_in1k,1,976,NaN,airplane,chair,16-3-10,0976_eid_dnn_16-3-10_chair_10_n04099969_28601.png
swag_regnety_16gf_in1k,1,977,NaN,dog,car,16-3-10,0977_eid_dnn_16-3-10_car_10_n03100240_8012.png
swag_regnety_16gf_in1k,1,978,NaN,dog,elephant,128-3-10,0978_eid_dnn_128-3-10_elephant_10_n02504013_7701.png
swag_regnety_16gf_in1k,1,979,NaN,dog,bird,8-3-10,0979_eid_dnn_8-3-10_bird_10_n02011460_3761.png
