subj,Session,trial,rt,object_response,category,condition,imagename
subject-01,1,1,0.969465970993042,oven,car,64-3-10,0001_eid_s01_64-3-10_car_10_n04285008_8113.png
subject-01,1,2,1.02163815498352,clock,oven,8-3-10,0002_eid_s01_8-3-10_oven_10_n04111531_11848.png
subject-01,1,3,1.31108498573303,oven,truck,8-3-10,0003_eid_s01_8-3-10_truck_10_n03417042_25458.png
subject-01,1,4,0.993062973022461,boat,chair,16-3-10,0004_eid_s01_16-3-10_chair_10_n03376595_6208.png
subject-01,1,5,1.15084004402161,keyboard,cat,32-3-10,0005_eid_s01_32-3-10_cat_10_n02123045_12084.png
subject-01,1,6,0.642765998840332,keyboard,keyboard,8-3-10,0006_eid_s01_8-3-10_keyboard_10_n03085013_20884.png
subject-01,1,7,0.706542015075684,airplane,airplane,4-3-10,0007_eid_s01_4-3-10_airplane_10_n02690373_5992.png
subject-01,1,8,1.36637806892395,cat,bear,32-3-10,0008_eid_s01_32-3-10_bear_10_n02132136_6641.png
subject-01,1,9,1.32648801803589,oven,oven,2-3-10,0009_eid_s01_2-3-10_oven_10_n04111531_2797.png
subject-01,1,10,0.795953035354614,airplane,airplane,2-3-10,0010_eid_s01_2-3-10_airplane_10_n02690373_7457.png
subject-01,1,11,1.10976004600525,knife,truck,16-3-10,0011_eid_s01_16-3-10_truck_10_n03796401_2751.png
subject-01,1,12,1.10542702674866,airplane,bear,2-3-10,0012_eid_s01_2-3-10_bear_10_n02134418_860.png
subject-01,1,13,0.773406982421875,knife,knife,4-3-10,0013_eid_s01_4-3-10_knife_10_n03041632_2058.png
subject-01,1,14,1.44719004631042,bird,airplane,32-3-10,0014_eid_s01_32-3-10_airplane_10_n02690373_10510.png
subject-01,1,15,0.848866939544678,bear,keyboard,64-3-10,0015_eid_s01_64-3-10_keyboard_10_n03085013_6313.png
subject-01,1,16,1.14264607429504,keyboard,bicycle,4-3-10,0016_eid_s01_4-3-10_bicycle_10_n02835271_6278.png
subject-01,1,17,0.948709011077881,keyboard,keyboard,2-3-10,0017_eid_s01_2-3-10_keyboard_10_n03085013_24192.png
subject-01,1,18,0.83831787109375,car,car,2-3-10,0018_eid_s01_2-3-10_car_10_n04285008_8255.png
subject-01,1,19,0.702194929122925,airplane,airplane,2-3-10,0019_eid_s01_2-3-10_airplane_10_n02690373_4591.png
subject-01,1,20,0.835878133773804,airplane,airplane,4-3-10,0020_eid_s01_4-3-10_airplane_10_n02690373_7075.png
subject-01,1,21,1.17592096328735,bird,bicycle,4-3-10,0021_eid_s01_4-3-10_bicycle_10_n02835271_21464.png
subject-01,1,22,1.0758740901947,bear,car,64-3-10,0022_eid_s01_64-3-10_car_10_n03100240_362.png
subject-01,1,23,0.98130989074707,chair,truck,32-3-10,0023_eid_s01_32-3-10_truck_10_n04467665_50927.png
subject-01,1,24,0.945299863815308,car,car,16-3-10,0024_eid_s01_16-3-10_car_10_n04285008_3651.png
subject-01,1,25,0.791057109832764,bottle,bottle,8-3-10,0025_eid_s01_8-3-10_bottle_10_n04557648_4974.png
subject-01,1,26,1.28702092170715,bear,bird,16-3-10,0026_eid_s01_16-3-10_bird_10_n01537544_23499.png
subject-01,1,27,1.28264307975769,boat,boat,1-3-10,0027_eid_s01_1-3-10_boat_10_n04612504_11387.png
subject-01,1,28,0.706719160079956,bottle,bottle,4-3-10,0028_eid_s01_4-3-10_bottle_10_n03983396_4300.png
subject-01,1,29,1.06650495529175,truck,bottle,64-3-10,0029_eid_s01_64-3-10_bottle_10_n04591713_6961.png
subject-01,1,30,0.960025072097778,elephant,clock,128-3-10,0030_eid_s01_128-3-10_clock_10_n02708093_3361.png
subject-01,1,31,0.901949882507324,car,truck,32-3-10,0031_eid_s01_32-3-10_truck_10_n03417042_18374.png
subject-01,1,32,0.86794900894165,clock,knife,64-3-10,0032_eid_s01_64-3-10_knife_10_n03041632_36280.png
subject-01,1,33,0.955527067184448,bird,bird,8-3-10,0033_eid_s01_8-3-10_bird_10_n01614925_47.png
subject-01,1,34,0.737431049346924,bicycle,bicycle,8-3-10,0034_eid_s01_8-3-10_bicycle_10_n02835271_20099.png
subject-01,1,35,0.825315952301025,bear,bear,4-3-10,0035_eid_s01_4-3-10_bear_10_n02134084_12070.png
subject-01,1,36,0.644933938980103,bottle,bottle,8-3-10,0036_eid_s01_8-3-10_bottle_10_n02823428_8525.png
subject-01,1,37,0.858722925186157,cat,truck,32-3-10,0037_eid_s01_32-3-10_truck_10_n04467665_37953.png
subject-01,1,38,0.902606010437012,bicycle,oven,128-3-10,0038_eid_s01_128-3-10_oven_10_n04111531_4868.png
subject-01,1,39,1.26033115386963,bicycle,boat,32-3-10,0039_eid_s01_32-3-10_boat_10_n03662601_19840.png
subject-01,1,40,0.826239824295044,truck,truck,8-3-10,0040_eid_s01_8-3-10_truck_10_n04467665_9331.png
subject-01,1,41,1.07016491889954,airplane,dog,64-3-10,0041_eid_s01_64-3-10_dog_10_n02111277_16090.png
subject-01,1,42,0.684137105941772,bottle,bottle,4-3-10,0042_eid_s01_4-3-10_bottle_10_n02823428_6731.png
subject-01,1,43,0.917824029922485,bear,elephant,8-3-10,0043_eid_s01_8-3-10_elephant_10_n02504013_8930.png
subject-01,1,44,0.699545860290527,car,car,4-3-10,0044_eid_s01_4-3-10_car_10_n03100240_13673.png
subject-01,1,45,1.21151399612427,knife,bird,128-3-10,0045_eid_s01_128-3-10_bird_10_n02018207_6819.png
subject-01,1,46,0.939225912094116,elephant,elephant,4-3-10,0046_eid_s01_4-3-10_elephant_10_n02504013_6065.png
subject-01,1,47,0.762886047363281,cat,cat,1-3-10,0047_eid_s01_1-3-10_cat_10_n02123394_384.png
subject-01,1,48,1.20676302909851,bear,bicycle,16-3-10,0048_eid_s01_16-3-10_bicycle_10_n02835271_12608.png
subject-01,1,49,1.11258292198181,oven,chair,2-3-10,0049_eid_s01_2-3-10_chair_10_n03376595_13949.png
subject-01,1,50,1.36471199989319,bird,airplane,128-3-10,0050_eid_s01_128-3-10_airplane_10_n02690373_3561.png
subject-01,1,51,1.33423590660095,dog,bicycle,32-3-10,0051_eid_s01_32-3-10_bicycle_10_n02835271_8203.png
subject-01,1,52,0.596174001693726,bicycle,bicycle,2-3-10,0052_eid_s01_2-3-10_bicycle_10_n03792782_5665.png
subject-01,1,53,1.15574789047241,oven,bicycle,128-3-10,0053_eid_s01_128-3-10_bicycle_10_n02835271_15028.png
subject-01,1,54,0.669616937637329,clock,clock,1-3-10,0054_eid_s01_1-3-10_clock_10_n04548280_3318.png
subject-01,1,55,0.987776041030884,car,cat,128-3-10,0055_eid_s01_128-3-10_cat_10_n02123045_8784.png
subject-01,1,56,0.951311826705933,bicycle,knife,128-3-10,0056_eid_s01_128-3-10_knife_10_n03041632_3247.png
subject-01,1,57,0.923056125640869,dog,dog,8-3-10,0057_eid_s01_8-3-10_dog_10_n02110185_11414.png
subject-01,1,58,1.21481895446777,bear,dog,32-3-10,0058_eid_s01_32-3-10_dog_10_n02113712_2715.png
subject-01,1,59,1.07683682441711,bird,elephant,2-3-10,0059_eid_s01_2-3-10_elephant_10_n02504458_1210.png
subject-01,1,60,1.08250021934509,bear,car,16-3-10,0060_eid_s01_16-3-10_car_10_n02814533_32337.png
subject-01,1,61,0.658529043197632,car,car,4-3-10,0061_eid_s01_4-3-10_car_10_n02814533_55326.png
subject-01,1,62,0.868140935897827,bicycle,knife,64-3-10,0062_eid_s01_64-3-10_knife_10_n03041632_32774.png
subject-01,1,63,1.07634806632996,elephant,bicycle,8-3-10,0063_eid_s01_8-3-10_bicycle_10_n02835271_11921.png
subject-01,1,64,0.80207896232605,chair,chair,32-3-10,0064_eid_s01_32-3-10_chair_10_n03376595_6115.png
subject-01,1,65,0.857503890991211,bottle,bear,16-3-10,0065_eid_s01_16-3-10_bear_10_n02133161_79.png
subject-01,1,66,0.773398160934448,boat,boat,1-3-10,0066_eid_s01_1-3-10_boat_10_n03662601_34796.png
subject-01,1,67,0.743175983428955,bird,bird,4-3-10,0067_eid_s01_4-3-10_bird_10_n02051845_8976.png
subject-01,1,68,0.745001792907715,boat,boat,4-3-10,0068_eid_s01_4-3-10_boat_10_n03344393_7362.png
subject-01,1,69,0.912757873535156,car,car,32-3-10,0069_eid_s01_32-3-10_car_10_n02814533_34289.png
subject-01,1,70,0.908631086349487,bear,keyboard,16-3-10,0070_eid_s01_16-3-10_keyboard_10_n03085013_2166.png
subject-01,1,71,1.06850790977478,bear,bear,2-3-10,0071_eid_s01_2-3-10_bear_10_n02133161_10167.png
subject-01,1,72,0.836437940597534,keyboard,keyboard,16-3-10,0072_eid_s01_16-3-10_keyboard_10_n04505470_430.png
subject-01,1,73,1.43804383277893,keyboard,boat,128-3-10,0073_eid_s01_128-3-10_boat_10_n03662601_17001.png
subject-01,1,74,1.5000331401825,clock,bear,128-3-10,0074_eid_s01_128-3-10_bear_10_n02133161_5157.png
subject-01,1,75,1.23969101905823,boat,boat,2-3-10,0075_eid_s01_2-3-10_boat_10_n02951358_17870.png
subject-01,1,76,1.1718418598175,truck,cat,64-3-10,0076_eid_s01_64-3-10_cat_10_n02123159_1102.png
subject-01,1,77,1.10345196723938,bear,cat,32-3-10,0077_eid_s01_32-3-10_cat_10_n02123045_4252.png
subject-01,1,78,0.721335887908936,keyboard,keyboard,2-3-10,0078_eid_s01_2-3-10_keyboard_10_n04505470_4294.png
subject-01,1,79,1.49280405044556,truck,truck,2-3-10,0079_eid_s01_2-3-10_truck_10_n04467665_1101.png
subject-01,1,80,1.2147798538208,bird,airplane,64-3-10,0080_eid_s01_64-3-10_airplane_10_n02690373_2078.png
subject-01,1,81,0.900285005569458,bear,boat,64-3-10,0081_eid_s01_64-3-10_boat_10_n04612504_5535.png
subject-01,1,82,1.00612115859985,car,cat,16-3-10,0082_eid_s01_16-3-10_cat_10_n02125311_15099.png
subject-01,1,83,1.08612513542175,dog,airplane,64-3-10,0083_eid_s01_64-3-10_airplane_10_n02690373_4671.png
subject-01,1,84,0.593590021133423,truck,truck,1-3-10,0084_eid_s01_1-3-10_truck_10_n03417042_9062.png
subject-01,1,85,0.625555038452148,cat,cat,4-3-10,0085_eid_s01_4-3-10_cat_10_n02123394_283.png
subject-01,1,86,0.621158838272095,car,car,1-3-10,0086_eid_s01_1-3-10_car_10_n02814533_3375.png
subject-01,1,87,0.691066980361938,cat,cat,2-3-10,0087_eid_s01_2-3-10_cat_10_n02124075_9706.png
subject-01,1,88,0.77691388130188,car,car,2-3-10,0088_eid_s01_2-3-10_car_10_n04285008_10563.png
subject-01,1,89,1.09263610839844,dog,clock,64-3-10,0089_eid_s01_64-3-10_clock_10_n03196217_3283.png
subject-01,1,90,1.0184531211853,chair,oven,128-3-10,0090_eid_s01_128-3-10_oven_10_n04111531_21120.png
subject-01,1,91,0.796545028686523,bird,bird,1-3-10,0091_eid_s01_1-3-10_bird_10_n01824575_6186.png
subject-01,1,92,0.632269859313965,dog,dog,4-3-10,0092_eid_s01_4-3-10_dog_10_n02102318_11155.png
subject-01,1,93,0.910264015197754,oven,clock,16-3-10,0093_eid_s01_16-3-10_clock_10_n04548280_2283.png
subject-01,1,94,NaN,na,chair,128-3-10,0094_eid_s01_128-3-10_chair_10_n03376595_18787.png
subject-01,1,95,0.703879117965698,keyboard,keyboard,8-3-10,0095_eid_s01_8-3-10_keyboard_10_n04505470_1903.png
subject-01,1,96,0.771311044692993,clock,clock,16-3-10,0096_eid_s01_16-3-10_clock_10_n03196217_6185.png
subject-01,1,97,0.715118885040283,clock,clock,2-3-10,0097_eid_s01_2-3-10_clock_10_n03196217_10424.png
subject-01,1,98,0.997018098831177,knife,knife,2-3-10,0098_eid_s01_2-3-10_knife_10_n03041632_43436.png
subject-01,1,99,0.874763011932373,dog,dog,1-3-10,0099_eid_s01_1-3-10_dog_10_n02093647_5955.png
subject-01,1,100,1.30676603317261,airplane,boat,32-3-10,0100_eid_s01_32-3-10_boat_10_n03662601_5423.png
subject-01,1,101,0.940293073654175,oven,keyboard,128-3-10,0101_eid_s01_128-3-10_keyboard_10_n04505470_9457.png
subject-01,1,102,0.888438940048218,boat,knife,128-3-10,0102_eid_s01_128-3-10_knife_10_n03041632_38535.png
subject-01,1,103,1.20415282249451,car,elephant,8-3-10,0103_eid_s01_8-3-10_elephant_10_n02504458_8141.png
subject-01,1,104,0.834043025970459,airplane,airplane,4-3-10,0104_eid_s01_4-3-10_airplane_10_n02690373_9086.png
subject-01,1,105,1.01565408706665,bicycle,bicycle,16-3-10,0105_eid_s01_16-3-10_bicycle_10_n03792782_19116.png
subject-01,1,106,0.75146484375,elephant,elephant,4-3-10,0106_eid_s01_4-3-10_elephant_10_n02504458_2343.png
subject-01,1,107,1.06935286521912,bird,airplane,16-3-10,0107_eid_s01_16-3-10_airplane_10_n02690373_7093.png
subject-01,1,108,1.39118599891663,airplane,car,32-3-10,0108_eid_s01_32-3-10_car_10_n03100240_7935.png
subject-01,1,109,0.988771200180054,airplane,airplane,16-3-10,0109_eid_s01_16-3-10_airplane_10_n02690373_8611.png
subject-01,1,110,0.886679887771606,bear,bear,2-3-10,0110_eid_s01_2-3-10_bear_10_n02133161_7332.png
subject-01,1,111,0.666640996932983,car,car,2-3-10,0111_eid_s01_2-3-10_car_10_n03100240_9387.png
subject-01,1,112,1.27421283721924,bird,cat,4-3-10,0112_eid_s01_4-3-10_cat_10_n02124075_521.png
subject-01,1,113,1.00405502319336,bear,bottle,128-3-10,0113_eid_s01_128-3-10_bottle_10_n04560804_3746.png
subject-01,1,114,0.878028869628906,elephant,elephant,16-3-10,0114_eid_s01_16-3-10_elephant_10_n02504458_1127.png
subject-01,1,115,0.881805896759033,knife,knife,8-3-10,0115_eid_s01_8-3-10_knife_10_n03041632_14132.png
subject-01,1,116,0.68355393409729,oven,oven,1-3-10,0116_eid_s01_1-3-10_oven_10_n04111531_18916.png
subject-01,1,117,1.12531900405884,keyboard,oven,1-3-10,0117_eid_s01_1-3-10_oven_10_n04111531_19274.png
subject-01,1,118,0.777310848236084,bird,bird,2-3-10,0118_eid_s01_2-3-10_bird_10_n01843383_277.png
subject-01,1,119,1.1329939365387,cat,boat,64-3-10,0119_eid_s01_64-3-10_boat_10_n03344393_6799.png
subject-01,1,120,0.972793817520142,dog,dog,2-3-10,0120_eid_s01_2-3-10_dog_10_n02093428_16887.png
subject-01,1,121,0.836690187454224,car,elephant,64-3-10,0121_eid_s01_64-3-10_elephant_10_n02504458_6163.png
subject-01,1,122,0.71449089050293,truck,bottle,64-3-10,0122_eid_s01_64-3-10_bottle_10_n04591713_2826.png
subject-01,1,123,1.1843581199646,bicycle,bottle,64-3-10,0123_eid_s01_64-3-10_bottle_10_n04557648_3598.png
subject-01,1,124,0.896239995956421,boat,truck,8-3-10,0124_eid_s01_8-3-10_truck_10_n04467665_80629.png
subject-01,1,125,0.783998966217041,bear,bear,4-3-10,0125_eid_s01_4-3-10_bear_10_n02134084_6869.png
subject-01,1,126,0.891713857650757,bird,bird,1-3-10,0126_eid_s01_1-3-10_bird_10_n01820546_4457.png
subject-01,1,127,0.995962142944336,car,clock,64-3-10,0127_eid_s01_64-3-10_clock_10_n04548280_7565.png
subject-01,1,128,0.865306854248047,elephant,elephant,16-3-10,0128_eid_s01_16-3-10_elephant_10_n02504458_98.png
subject-01,1,129,1.29545998573303,bird,bicycle,64-3-10,0129_eid_s01_64-3-10_bicycle_10_n03792782_7143.png
subject-01,1,130,0.964945077896118,bear,dog,16-3-10,0130_eid_s01_16-3-10_dog_10_n02096051_5524.png
subject-01,1,131,0.99070405960083,bird,cat,16-3-10,0131_eid_s01_16-3-10_cat_10_n02123045_9465.png
subject-01,1,132,0.948616027832031,bird,cat,64-3-10,0132_eid_s01_64-3-10_cat_10_n02123159_9450.png
subject-01,1,133,0.568483114242554,clock,clock,4-3-10,0133_eid_s01_4-3-10_clock_10_n02708093_8204.png
subject-01,1,134,0.912348985671997,airplane,airplane,32-3-10,0134_eid_s01_32-3-10_airplane_10_n02690373_2619.png
subject-01,1,135,0.846015930175781,car,car,2-3-10,0135_eid_s01_2-3-10_car_10_n04285008_11295.png
subject-01,1,136,0.731807947158813,bear,bear,8-3-10,0136_eid_s01_8-3-10_bear_10_n02133161_15481.png
subject-01,1,137,0.966109991073608,chair,truck,64-3-10,0137_eid_s01_64-3-10_truck_10_n03417042_8139.png
subject-01,1,138,0.731442928314209,boat,bottle,16-3-10,0138_eid_s01_16-3-10_bottle_10_n04557648_4490.png
subject-01,1,139,0.797302961349487,clock,clock,1-3-10,0139_eid_s01_1-3-10_clock_10_n03196217_5399.png
subject-01,1,140,0.707483053207397,boat,boat,1-3-10,0140_eid_s01_1-3-10_boat_10_n04273569_4136.png
subject-01,1,141,0.685145854949951,clock,clock,4-3-10,0141_eid_s01_4-3-10_clock_10_n04548280_2127.png
subject-01,1,142,0.936671018600464,boat,boat,2-3-10,0142_eid_s01_2-3-10_boat_10_n03344393_10038.png
subject-01,1,143,0.968539953231812,elephant,elephant,2-3-10,0143_eid_s01_2-3-10_elephant_10_n02504013_10793.png
subject-01,1,144,1.50012707710266,bear,oven,128-3-10,0144_eid_s01_128-3-10_oven_10_n04111531_6590.png
subject-01,1,145,1.20200800895691,bottle,keyboard,16-3-10,0145_eid_s01_16-3-10_keyboard_10_n03085013_10984.png
subject-01,1,146,1.03989505767822,oven,bicycle,2-3-10,0146_eid_s01_2-3-10_bicycle_10_n02835271_14879.png
subject-01,1,147,1.11024785041809,car,knife,64-3-10,0147_eid_s01_64-3-10_knife_10_n03041632_22241.png
subject-01,1,148,1.23170590400696,cat,oven,64-3-10,0148_eid_s01_64-3-10_oven_10_n04111531_892.png
subject-01,1,149,0.945338010787964,bear,bear,64-3-10,0149_eid_s01_64-3-10_bear_10_n02134418_14850.png
subject-01,1,150,0.829060792922974,boat,knife,64-3-10,0150_eid_s01_64-3-10_knife_10_n03041632_48071.png
subject-01,1,151,1.12924599647522,car,clock,16-3-10,0151_eid_s01_16-3-10_clock_10_n04548280_64.png
subject-01,1,152,1.12092590332031,airplane,truck,64-3-10,0152_eid_s01_64-3-10_truck_10_n03796401_6285.png
subject-01,1,153,0.90665602684021,airplane,airplane,4-3-10,0153_eid_s01_4-3-10_airplane_10_n02690373_6682.png
subject-01,1,154,1.2087140083313,truck,knife,64-3-10,0154_eid_s01_64-3-10_knife_10_n03041632_17285.png
subject-01,1,155,1.29031610488892,boat,boat,2-3-10,0155_eid_s01_2-3-10_boat_10_n02951358_8184.png
subject-01,1,156,1.21415114402771,bird,bear,1-3-10,0156_eid_s01_1-3-10_bear_10_n02132136_2346.png
subject-01,1,157,1.06178498268127,dog,bear,8-3-10,0157_eid_s01_8-3-10_bear_10_n02134418_2187.png
subject-01,1,158,0.78384804725647,bicycle,cat,32-3-10,0158_eid_s01_32-3-10_cat_10_n02124075_10162.png
subject-01,1,159,1.37589597702026,cat,truck,128-3-10,0159_eid_s01_128-3-10_truck_10_n03417042_8998.png
subject-01,1,160,1.07929706573486,bear,cat,64-3-10,0160_eid_s01_64-3-10_cat_10_n02123597_13835.png
subject-01,1,161,0.628604888916016,clock,clock,1-3-10,0161_eid_s01_1-3-10_clock_10_n04548280_18914.png
subject-01,1,162,0.655998945236206,keyboard,keyboard,2-3-10,0162_eid_s01_2-3-10_keyboard_10_n03085013_2676.png
subject-01,1,163,1.50008893013,boat,airplane,16-3-10,0163_eid_s01_16-3-10_airplane_10_n02690373_7600.png
subject-01,1,164,0.929602861404419,bear,chair,16-3-10,0164_eid_s01_16-3-10_chair_10_n04429376_17917.png
subject-01,1,165,0.759362936019897,keyboard,keyboard,4-3-10,0165_eid_s01_4-3-10_keyboard_10_n04505470_4492.png
subject-01,1,166,0.669198989868164,bear,bear,1-3-10,0166_eid_s01_1-3-10_bear_10_n02134418_3148.png
subject-01,1,167,0.747021198272705,elephant,cat,4-3-10,0167_eid_s01_4-3-10_cat_10_n02125311_20388.png
subject-01,1,168,1.16495800018311,elephant,cat,64-3-10,0168_eid_s01_64-3-10_cat_10_n02123394_2153.png
subject-01,1,169,0.804682016372681,clock,clock,1-3-10,0169_eid_s01_1-3-10_clock_10_n04548280_5327.png
subject-01,1,170,1.01262402534485,bicycle,bicycle,8-3-10,0170_eid_s01_8-3-10_bicycle_10_n03792782_63054.png
subject-01,1,171,0.944440841674805,cat,chair,32-3-10,0171_eid_s01_32-3-10_chair_10_n03376595_14138.png
subject-01,1,172,0.670109033584595,elephant,elephant,2-3-10,0172_eid_s01_2-3-10_elephant_10_n02504458_4849.png
subject-01,1,173,0.806056022644043,bicycle,dog,128-3-10,0173_eid_s01_128-3-10_dog_10_n02113624_4844.png
subject-01,1,174,0.625982999801636,elephant,elephant,2-3-10,0174_eid_s01_2-3-10_elephant_10_n02504013_2549.png
subject-01,1,175,1.12360000610352,truck,bear,8-3-10,0175_eid_s01_8-3-10_bear_10_n02134084_4593.png
subject-01,1,176,0.797492027282715,knife,bicycle,64-3-10,0176_eid_s01_64-3-10_bicycle_10_n02835271_75.png
subject-01,1,177,0.74744701385498,truck,truck,4-3-10,0177_eid_s01_4-3-10_truck_10_n03796401_20943.png
subject-01,1,178,1.02932405471802,knife,knife,2-3-10,0178_eid_s01_2-3-10_knife_10_n03041632_32048.png
subject-01,1,179,0.762882947921753,cat,cat,1-3-10,0179_eid_s01_1-3-10_cat_10_n02123159_3536.png
subject-01,1,180,1.49070000648499,oven,bicycle,1-3-10,0180_eid_s01_1-3-10_bicycle_10_n03792782_6716.png
subject-01,1,181,0.648455858230591,clock,clock,2-3-10,0181_eid_s01_2-3-10_clock_10_n03196217_1754.png
subject-01,1,182,0.748412132263184,bicycle,bicycle,1-3-10,0182_eid_s01_1-3-10_bicycle_10_n03792782_5404.png
subject-01,1,183,0.822412967681885,car,dog,64-3-10,0183_eid_s01_64-3-10_dog_10_n02096294_3014.png
subject-01,1,184,0.825878858566284,bear,bear,4-3-10,0184_eid_s01_4-3-10_bear_10_n02134084_23382.png
subject-01,1,185,0.819675207138062,car,car,4-3-10,0185_eid_s01_4-3-10_car_10_n03100240_310.png
subject-01,1,186,1.21552801132202,bottle,dog,4-3-10,0186_eid_s01_4-3-10_dog_10_n02093256_1653.png
subject-01,1,187,0.659250020980835,elephant,elephant,4-3-10,0187_eid_s01_4-3-10_elephant_10_n02504013_1740.png
subject-01,1,188,0.993172883987427,car,bear,64-3-10,0188_eid_s01_64-3-10_bear_10_n02134084_34375.png
subject-01,1,189,0.963143110275269,bear,keyboard,8-3-10,0189_eid_s01_8-3-10_keyboard_10_n03085013_23254.png
subject-01,1,190,1.00691413879395,dog,elephant,32-3-10,0190_eid_s01_32-3-10_elephant_10_n02504013_1512.png
subject-01,1,191,1.01905488967896,car,car,8-3-10,0191_eid_s01_8-3-10_car_10_n04285008_6454.png
subject-01,1,192,0.650763988494873,keyboard,keyboard,4-3-10,0192_eid_s01_4-3-10_keyboard_10_n04505470_7721.png
subject-01,1,193,1.26819586753845,boat,keyboard,16-3-10,0193_eid_s01_16-3-10_keyboard_10_n04505470_3388.png
subject-01,1,194,0.654116868972778,boat,boat,2-3-10,0194_eid_s01_2-3-10_boat_10_n03344393_4221.png
subject-01,1,195,0.962178945541382,keyboard,cat,128-3-10,0195_eid_s01_128-3-10_cat_10_n02123597_14361.png
subject-01,1,196,1.04564785957336,bicycle,bird,128-3-10,0196_eid_s01_128-3-10_bird_10_n02006656_10058.png
subject-01,1,197,1.19336700439453,bottle,clock,32-3-10,0197_eid_s01_32-3-10_clock_10_n02708093_8104.png
subject-01,1,198,1.11120104789734,car,truck,1-3-10,0198_eid_s01_1-3-10_truck_10_n03417042_3845.png
subject-01,1,199,1.06300091743469,bear,boat,64-3-10,0199_eid_s01_64-3-10_boat_10_n03662601_36741.png
subject-01,1,200,0.97097110748291,knife,knife,1-3-10,0200_eid_s01_1-3-10_knife_10_n03041632_22570.png
subject-01,1,201,0.666725873947144,keyboard,keyboard,1-3-10,0201_eid_s01_1-3-10_keyboard_10_n04505470_4109.png
subject-01,1,202,0.924508810043335,airplane,airplane,1-3-10,0202_eid_s01_1-3-10_airplane_10_n02690373_10404.png
subject-01,1,203,0.794355869293213,elephant,elephant,4-3-10,0203_eid_s01_4-3-10_elephant_10_n02504458_4725.png
subject-01,1,204,0.802304983139038,airplane,airplane,1-3-10,0204_eid_s01_1-3-10_airplane_10_n02690373_1325.png
subject-01,1,205,0.686059951782227,bicycle,bicycle,8-3-10,0205_eid_s01_8-3-10_bicycle_10_n03792782_6841.png
subject-01,1,206,1.21960496902466,chair,chair,2-3-10,0206_eid_s01_2-3-10_chair_10_n04099969_1669.png
subject-01,1,207,1.05559992790222,bear,bottle,32-3-10,0207_eid_s01_32-3-10_bottle_10_n03937543_5324.png
subject-01,1,208,0.83728814125061,bottle,bottle,4-3-10,0208_eid_s01_4-3-10_bottle_10_n03937543_2143.png
subject-01,1,209,0.861362934112549,bottle,bottle,2-3-10,0209_eid_s01_2-3-10_bottle_10_n04557648_2575.png
subject-01,1,210,0.811217069625854,knife,knife,8-3-10,0210_eid_s01_8-3-10_knife_10_n03041632_9671.png
subject-01,1,211,1.10084700584412,car,bottle,16-3-10,0211_eid_s01_16-3-10_bottle_10_n04560804_4145.png
subject-01,1,212,1.0465829372406,bicycle,clock,64-3-10,0212_eid_s01_64-3-10_clock_10_n03196217_1187.png
subject-01,1,213,0.580436944961548,clock,clock,4-3-10,0213_eid_s01_4-3-10_clock_10_n04548280_2111.png
subject-01,1,214,0.924154043197632,boat,dog,128-3-10,0214_eid_s01_128-3-10_dog_10_n02086079_6578.png
subject-01,1,215,1.27997779846191,knife,car,16-3-10,0215_eid_s01_16-3-10_car_10_n03100240_14045.png
subject-01,1,216,0.677823781967163,boat,boat,8-3-10,0216_eid_s01_8-3-10_boat_10_n02951358_30908.png
subject-01,1,217,1.01780414581299,car,oven,4-3-10,0217_eid_s01_4-3-10_oven_10_n04111531_2199.png
subject-01,1,218,0.963732004165649,bicycle,elephant,8-3-10,0218_eid_s01_8-3-10_elephant_10_n02504013_5641.png
subject-01,1,219,0.887327194213867,keyboard,keyboard,2-3-10,0219_eid_s01_2-3-10_keyboard_10_n03085013_6740.png
subject-01,1,220,0.639569997787476,clock,clock,2-3-10,0220_eid_s01_2-3-10_clock_10_n04548280_319.png
subject-01,1,221,0.985270023345947,keyboard,knife,32-3-10,0221_eid_s01_32-3-10_knife_10_n03041632_43506.png
subject-01,1,222,0.918837070465088,boat,boat,16-3-10,0222_eid_s01_16-3-10_boat_10_n03344393_9712.png
subject-01,1,223,0.996587991714478,knife,knife,1-3-10,0223_eid_s01_1-3-10_knife_10_n03041632_9963.png
subject-01,1,224,0.872470140457153,bicycle,bird,1-3-10,0224_eid_s01_1-3-10_bird_10_n02002556_18595.png
subject-01,1,225,1.27401900291443,bird,bird,4-3-10,0225_eid_s01_4-3-10_bird_10_n01860187_20777.png
subject-01,1,226,0.883948087692261,bear,keyboard,32-3-10,0226_eid_s01_32-3-10_keyboard_10_n03085013_24626.png
subject-01,1,227,1.10391616821289,car,oven,16-3-10,0227_eid_s01_16-3-10_oven_10_n04111531_7097.png
subject-01,1,228,1.25781798362732,bear,chair,16-3-10,0228_eid_s01_16-3-10_chair_10_n02791124_12486.png
subject-01,1,229,0.82737398147583,bicycle,cat,128-3-10,0229_eid_s01_128-3-10_cat_10_n02123045_6629.png
subject-01,1,230,1.11780118942261,elephant,bird,16-3-10,0230_eid_s01_16-3-10_bird_10_n01819313_5388.png
subject-01,1,231,0.899373054504395,chair,truck,32-3-10,0231_eid_s01_32-3-10_truck_10_n04467665_4940.png
subject-01,1,232,1.18086004257202,keyboard,knife,8-3-10,0232_eid_s01_8-3-10_knife_10_n03041632_20433.png
subject-01,1,233,0.588871002197266,clock,clock,2-3-10,0233_eid_s01_2-3-10_clock_10_n04548280_6792.png
subject-01,1,234,0.864518880844116,bicycle,bicycle,4-3-10,0234_eid_s01_4-3-10_bicycle_10_n02835271_5413.png
subject-01,1,235,0.786237955093384,car,car,2-3-10,0235_eid_s01_2-3-10_car_10_n04285008_5005.png
subject-01,1,236,1.08230304718018,car,car,2-3-10,0236_eid_s01_2-3-10_car_10_n02814533_88088.png
subject-01,1,237,1.0079619884491,bicycle,elephant,64-3-10,0237_eid_s01_64-3-10_elephant_10_n02504458_11345.png
subject-01,1,238,1.01573896408081,bear,elephant,16-3-10,0238_eid_s01_16-3-10_elephant_10_n02504013_1900.png
subject-01,1,239,1.02346205711365,bicycle,bear,128-3-10,0239_eid_s01_128-3-10_bear_10_n02133161_5708.png
subject-01,1,240,0.637206792831421,cat,cat,8-3-10,0240_eid_s01_8-3-10_cat_10_n02124075_5828.png
subject-01,1,241,0.992455959320068,boat,bird,64-3-10,0241_eid_s01_64-3-10_bird_10_n01582220_9392.png
subject-01,1,242,0.784224033355713,clock,clock,1-3-10,0242_eid_s01_1-3-10_clock_10_n02708093_4597.png
subject-01,1,243,0.796385049819946,bear,bicycle,128-3-10,0243_eid_s01_128-3-10_bicycle_10_n03792782_26306.png
subject-01,1,244,0.951916933059692,bear,bear,32-3-10,0244_eid_s01_32-3-10_bear_10_n02132136_1795.png
subject-01,1,245,0.999743938446045,car,clock,128-3-10,0245_eid_s01_128-3-10_clock_10_n02708093_3638.png
subject-01,1,246,0.75952410697937,keyboard,keyboard,4-3-10,0246_eid_s01_4-3-10_keyboard_10_n03085013_21272.png
subject-01,1,247,0.913375854492188,oven,chair,8-3-10,0247_eid_s01_8-3-10_chair_10_n02791124_16926.png
subject-01,1,248,1.23700904846191,truck,knife,8-3-10,0248_eid_s01_8-3-10_knife_10_n03041632_84048.png
subject-01,1,249,1.49525308609009,clock,oven,2-3-10,0249_eid_s01_2-3-10_oven_10_n04111531_550.png
subject-01,1,250,0.916742086410522,chair,boat,128-3-10,0250_eid_s01_128-3-10_boat_10_n03662601_21992.png
subject-01,1,251,1.10089802742004,cat,bear,32-3-10,0251_eid_s01_32-3-10_bear_10_n02134418_280.png
subject-01,1,252,1.19039011001587,car,bottle,8-3-10,0252_eid_s01_8-3-10_bottle_10_n04560804_8385.png
subject-01,1,253,0.972182035446167,bear,elephant,64-3-10,0253_eid_s01_64-3-10_elephant_10_n02504013_4183.png
subject-01,1,254,0.874009132385254,bird,bird,1-3-10,0254_eid_s01_1-3-10_bird_10_n01560419_19608.png
subject-01,1,255,0.935810804367065,bird,bird,4-3-10,0255_eid_s01_4-3-10_bird_10_n02056570_8865.png
subject-01,1,256,0.975976943969727,cat,cat,2-3-10,0256_eid_s01_2-3-10_cat_10_n02123394_2553.png
subject-01,1,257,1.11761903762817,knife,bear,128-3-10,0257_eid_s01_128-3-10_bear_10_n02132136_10113.png
subject-01,1,258,0.84735107421875,oven,oven,8-3-10,0258_eid_s01_8-3-10_oven_10_n04111531_2758.png
subject-01,1,259,1.15325593948364,airplane,keyboard,64-3-10,0259_eid_s01_64-3-10_keyboard_10_n04505470_4824.png
subject-01,1,260,0.640933990478516,bicycle,bicycle,2-3-10,0260_eid_s01_2-3-10_bicycle_10_n02835271_8654.png
subject-01,1,261,0.934709072113037,keyboard,keyboard,128-3-10,0261_eid_s01_128-3-10_keyboard_10_n03085013_34973.png
subject-01,1,262,1.15853404998779,oven,cat,4-3-10,0262_eid_s01_4-3-10_cat_10_n02123394_4228.png
subject-01,1,263,0.994339942932129,cat,keyboard,32-3-10,0263_eid_s01_32-3-10_keyboard_10_n03085013_24416.png
subject-01,1,264,0.940148830413818,cat,cat,8-3-10,0264_eid_s01_8-3-10_cat_10_n02124075_5729.png
subject-01,1,265,1.02992987632751,bear,clock,32-3-10,0265_eid_s01_32-3-10_clock_10_n03196217_6357.png
subject-01,1,266,1.07989406585693,elephant,truck,128-3-10,0266_eid_s01_128-3-10_truck_10_n03417042_29478.png
subject-01,1,267,0.823467969894409,chair,chair,128-3-10,0267_eid_s01_128-3-10_chair_10_n04099969_18678.png
subject-01,1,268,0.863246917724609,clock,clock,32-3-10,0268_eid_s01_32-3-10_clock_10_n02708093_4286.png
subject-01,1,269,0.957062005996704,car,car,128-3-10,0269_eid_s01_128-3-10_car_10_n03100240_21971.png
subject-01,1,270,0.716914892196655,car,car,1-3-10,0270_eid_s01_1-3-10_car_10_n03100240_84.png
subject-01,1,271,1.17468094825745,dog,dog,1-3-10,0271_eid_s01_1-3-10_dog_10_n02094433_3186.png
subject-01,1,272,0.872961044311523,dog,dog,4-3-10,0272_eid_s01_4-3-10_dog_10_n02088364_10195.png
subject-01,1,273,0.86044716835022,cat,knife,16-3-10,0273_eid_s01_16-3-10_knife_10_n03041632_11358.png
subject-01,1,274,0.868380069732666,airplane,bird,64-3-10,0274_eid_s01_64-3-10_bird_10_n01531178_10630.png
subject-01,1,275,0.84026312828064,elephant,elephant,1-3-10,0275_eid_s01_1-3-10_elephant_10_n02504458_4058.png
subject-01,1,276,0.83638596534729,cat,keyboard,32-3-10,0276_eid_s01_32-3-10_keyboard_10_n03085013_24336.png
subject-01,1,277,1.11560702323914,clock,clock,4-3-10,0277_eid_s01_4-3-10_clock_10_n02708093_386.png
subject-01,1,278,1.15585517883301,chair,chair,4-3-10,0278_eid_s01_4-3-10_chair_10_n04429376_16370.png
subject-01,1,279,0.899199962615967,bottle,bottle,1-3-10,0279_eid_s01_1-3-10_bottle_10_n04557648_10167.png
subject-01,1,280,1.09747099876404,bicycle,bicycle,1-3-10,0280_eid_s01_1-3-10_bicycle_10_n02835271_15717.png
subject-01,1,281,1.09889602661133,keyboard,car,128-3-10,0281_eid_s01_128-3-10_car_10_n03100240_22593.png
subject-01,1,282,0.778846979141235,car,car,1-3-10,0282_eid_s01_1-3-10_car_10_n04285008_11240.png
subject-01,1,283,0.844584941864014,bottle,boat,1-3-10,0283_eid_s01_1-3-10_boat_10_n03344393_3337.png
subject-01,1,284,1.11041498184204,oven,bottle,128-3-10,0284_eid_s01_128-3-10_bottle_10_n04579145_1660.png
subject-01,1,285,1.05023288726807,bird,dog,64-3-10,0285_eid_s01_64-3-10_dog_10_n02091244_9305.png
subject-01,1,286,1.18637418746948,knife,chair,32-3-10,0286_eid_s01_32-3-10_chair_10_n03376595_3912.png
subject-01,1,287,0.825841188430786,bear,bottle,64-3-10,0287_eid_s01_64-3-10_bottle_10_n02823428_6793.png
subject-01,1,288,1.21176600456238,boat,dog,32-3-10,0288_eid_s01_32-3-10_dog_10_n02093754_4949.png
subject-01,1,289,1.31761693954468,bird,dog,128-3-10,0289_eid_s01_128-3-10_dog_10_n02105855_10394.png
subject-01,1,290,0.923414945602417,clock,clock,2-3-10,0290_eid_s01_2-3-10_clock_10_n04548280_9533.png
subject-01,1,291,1.30939221382141,oven,cat,1-3-10,0291_eid_s01_1-3-10_cat_10_n02125311_7527.png
subject-01,1,292,0.868839025497437,car,car,4-3-10,0292_eid_s01_4-3-10_car_10_n03100240_4537.png
subject-01,1,293,0.784786939620972,boat,bicycle,8-3-10,0293_eid_s01_8-3-10_bicycle_10_n03792782_11609.png
subject-01,1,294,1.05255103111267,keyboard,oven,128-3-10,0294_eid_s01_128-3-10_oven_10_n04111531_6134.png
subject-01,1,295,1.102707862854,bottle,bottle,8-3-10,0295_eid_s01_8-3-10_bottle_10_n04591713_715.png
subject-01,1,296,0.888077020645142,boat,elephant,32-3-10,0296_eid_s01_32-3-10_elephant_10_n02504458_7818.png
subject-01,1,297,1.06606006622314,keyboard,airplane,64-3-10,0297_eid_s01_64-3-10_airplane_10_n02690373_7107.png
subject-01,1,298,1.11582493782043,cat,car,32-3-10,0298_eid_s01_32-3-10_car_10_n04285008_8363.png
subject-01,1,299,0.811455011367798,clock,clock,4-3-10,0299_eid_s01_4-3-10_clock_10_n04548280_4249.png
subject-01,1,300,1.1256890296936,cat,cat,128-3-10,0300_eid_s01_128-3-10_cat_10_n02123597_7269.png
subject-01,1,301,0.76515007019043,bicycle,bicycle,1-3-10,0301_eid_s01_1-3-10_bicycle_10_n03792782_4864.png
subject-01,1,302,0.972877979278564,bear,bear,2-3-10,0302_eid_s01_2-3-10_bear_10_n02132136_8011.png
subject-01,1,303,1.12873697280884,dog,boat,128-3-10,0303_eid_s01_128-3-10_boat_10_n02951358_4810.png
subject-01,1,304,0.906600952148438,bicycle,clock,128-3-10,0304_eid_s01_128-3-10_clock_10_n03196217_5137.png
subject-01,1,305,1.06243896484375,bicycle,bicycle,2-3-10,0305_eid_s01_2-3-10_bicycle_10_n02835271_158.png
subject-01,1,306,1.05428504943848,car,bear,64-3-10,0306_eid_s01_64-3-10_bear_10_n02132136_11217.png
subject-01,1,307,1.11804103851318,bicycle,dog,64-3-10,0307_eid_s01_64-3-10_dog_10_n02092002_6122.png
subject-01,1,308,0.92426609992981,bear,chair,32-3-10,0308_eid_s01_32-3-10_chair_10_n04429376_29223.png
subject-01,1,309,1.27977514266968,oven,bear,128-3-10,0309_eid_s01_128-3-10_bear_10_n02133161_5723.png
subject-01,1,310,1.23540902137756,cat,dog,128-3-10,0310_eid_s01_128-3-10_dog_10_n02100583_1343.png
subject-01,1,311,0.915360927581787,chair,boat,128-3-10,0311_eid_s01_128-3-10_boat_10_n03344393_6352.png
subject-01,1,312,1.13521313667297,bicycle,bird,4-3-10,0312_eid_s01_4-3-10_bird_10_n01560419_8247.png
subject-01,1,313,0.776925802230835,dog,dog,4-3-10,0313_eid_s01_4-3-10_dog_10_n02105251_8210.png
subject-01,1,314,1.16483306884766,bicycle,oven,128-3-10,0314_eid_s01_128-3-10_oven_10_n04111531_9702.png
subject-01,1,315,1.13052105903625,boat,bear,8-3-10,0315_eid_s01_8-3-10_bear_10_n02133161_12161.png
subject-01,1,316,0.804476022720337,bear,bear,8-3-10,0316_eid_s01_8-3-10_bear_10_n02133161_13556.png
subject-01,1,317,0.942044973373413,oven,bear,128-3-10,0317_eid_s01_128-3-10_bear_10_n02134084_635.png
subject-01,1,318,1.10002708435059,chair,chair,128-3-10,0318_eid_s01_128-3-10_chair_10_n02791124_6956.png
subject-01,1,319,0.704103946685791,car,car,4-3-10,0319_eid_s01_4-3-10_car_10_n02814533_18077.png
subject-01,1,320,1.50014090538025,bottle,dog,2-3-10,0320_eid_s01_2-3-10_dog_10_n02088364_11105.png
subject-01,1,321,1.05476808547974,cat,airplane,64-3-10,0321_eid_s01_64-3-10_airplane_10_n02690373_1053.png
subject-01,1,322,0.93901801109314,dog,car,16-3-10,0322_eid_s01_16-3-10_car_10_n02814533_96407.png
subject-01,1,323,0.690581798553467,keyboard,chair,4-3-10,0323_eid_s01_4-3-10_chair_10_n04099969_31891.png
subject-01,1,324,1.2343008518219,bear,bottle,16-3-10,0324_eid_s01_16-3-10_bottle_10_n04557648_4470.png
subject-01,1,325,0.906224012374878,clock,clock,8-3-10,0325_eid_s01_8-3-10_clock_10_n02708093_2588.png
subject-01,1,326,0.916096925735474,airplane,elephant,128-3-10,0326_eid_s01_128-3-10_elephant_10_n02504458_6696.png
subject-01,1,327,0.840039014816284,boat,elephant,32-3-10,0327_eid_s01_32-3-10_elephant_10_n02504013_4071.png
subject-01,1,328,0.981621026992798,knife,keyboard,8-3-10,0328_eid_s01_8-3-10_keyboard_10_n03085013_8339.png
subject-01,1,329,0.883388042449951,oven,elephant,64-3-10,0329_eid_s01_64-3-10_elephant_10_n02504013_6976.png
subject-01,1,330,0.517396926879883,boat,boat,4-3-10,0330_eid_s01_4-3-10_boat_10_n02951358_9146.png
subject-01,1,331,1.16706705093384,truck,boat,32-3-10,0331_eid_s01_32-3-10_boat_10_n04273569_4087.png
subject-01,1,332,0.880831003189087,car,oven,64-3-10,0332_eid_s01_64-3-10_oven_10_n04111531_2922.png
subject-01,1,333,1.34661889076233,dog,bear,4-3-10,0333_eid_s01_4-3-10_bear_10_n02133161_5325.png
subject-01,1,334,0.828314065933228,clock,bottle,64-3-10,0334_eid_s01_64-3-10_bottle_10_n04557648_3109.png
subject-01,1,335,0.740517139434814,oven,oven,1-3-10,0335_eid_s01_1-3-10_oven_10_n04111531_15912.png
subject-01,1,336,0.940000057220459,boat,truck,16-3-10,0336_eid_s01_16-3-10_truck_10_n03417042_17099.png
subject-01,1,337,0.619918823242188,car,car,2-3-10,0337_eid_s01_2-3-10_car_10_n04285008_8641.png
subject-01,1,338,1.1094651222229,boat,keyboard,32-3-10,0338_eid_s01_32-3-10_keyboard_10_n04505470_524.png
subject-01,1,339,1.33735418319702,elephant,bottle,8-3-10,0339_eid_s01_8-3-10_bottle_10_n04557648_5935.png
subject-01,1,340,0.693589925765991,bottle,bottle,1-3-10,0340_eid_s01_1-3-10_bottle_10_n04591713_3776.png
subject-01,1,341,0.759480953216553,truck,truck,2-3-10,0341_eid_s01_2-3-10_truck_10_n03796401_3651.png
subject-01,1,342,0.888934135437012,bird,bicycle,128-3-10,0342_eid_s01_128-3-10_bicycle_10_n03792782_15757.png
subject-01,1,343,0.842643022537231,keyboard,cat,32-3-10,0343_eid_s01_32-3-10_cat_10_n02123597_8698.png
subject-01,1,344,0.752527952194214,boat,boat,1-3-10,0344_eid_s01_1-3-10_boat_10_n03662601_273.png
subject-01,1,345,0.920306921005249,bottle,knife,1-3-10,0345_eid_s01_1-3-10_knife_10_n03041632_24376.png
subject-01,1,346,0.834019899368286,clock,keyboard,1-3-10,0346_eid_s01_1-3-10_keyboard_10_n04505470_2608.png
subject-01,1,347,0.804037094116211,boat,boat,16-3-10,0347_eid_s01_16-3-10_boat_10_n04273569_10665.png
subject-01,1,348,1.08390402793884,bicycle,bear,64-3-10,0348_eid_s01_64-3-10_bear_10_n02133161_5267.png
subject-01,1,349,0.989940166473389,bear,bear,128-3-10,0349_eid_s01_128-3-10_bear_10_n02133161_5020.png
subject-01,1,350,1.16532301902771,truck,knife,128-3-10,0350_eid_s01_128-3-10_knife_10_n03041632_21723.png
subject-01,1,351,0.959115982055664,chair,boat,32-3-10,0351_eid_s01_32-3-10_boat_10_n02951358_31101.png
subject-01,1,352,0.942874908447266,bicycle,dog,128-3-10,0352_eid_s01_128-3-10_dog_10_n02102177_4180.png
subject-01,1,353,0.962770223617554,bottle,bottle,4-3-10,0353_eid_s01_4-3-10_bottle_10_n04579145_4186.png
subject-01,1,354,1.00065493583679,car,bicycle,64-3-10,0354_eid_s01_64-3-10_bicycle_10_n03792782_2246.png
subject-01,1,355,1.15090012550354,dog,dog,1-3-10,0355_eid_s01_1-3-10_dog_10_n02110958_1526.png
subject-01,1,356,1.08219289779663,bear,keyboard,128-3-10,0356_eid_s01_128-3-10_keyboard_10_n04505470_255.png
subject-01,1,357,0.800171852111816,boat,elephant,4-3-10,0357_eid_s01_4-3-10_elephant_10_n02504458_1933.png
subject-01,1,358,0.625828981399536,cat,cat,2-3-10,0358_eid_s01_2-3-10_cat_10_n02123159_5749.png
subject-01,1,359,1.24806094169617,knife,airplane,128-3-10,0359_eid_s01_128-3-10_airplane_10_n02690373_2967.png
subject-01,1,360,0.981616973876953,dog,chair,8-3-10,0360_eid_s01_8-3-10_chair_10_n04099969_72.png
subject-01,1,361,1.18736004829407,truck,cat,32-3-10,0361_eid_s01_32-3-10_cat_10_n02123045_4089.png
subject-01,1,362,1.03120589256287,chair,bird,128-3-10,0362_eid_s01_128-3-10_bird_10_n01616318_13293.png
subject-01,1,363,0.72307300567627,cat,cat,4-3-10,0363_eid_s01_4-3-10_cat_10_n02124075_13719.png
subject-01,1,364,1.19463610649109,keyboard,oven,32-3-10,0364_eid_s01_32-3-10_oven_10_n04111531_22466.png
subject-01,1,365,1.30861878395081,keyboard,airplane,128-3-10,0365_eid_s01_128-3-10_airplane_10_n02690373_2525.png
subject-01,1,366,0.764446020126343,cat,cat,1-3-10,0366_eid_s01_1-3-10_cat_10_n02124075_5369.png
subject-01,1,367,1.14038610458374,bird,bird,64-3-10,0367_eid_s01_64-3-10_bird_10_n01843065_4182.png
subject-01,1,368,0.80790114402771,truck,truck,2-3-10,0368_eid_s01_2-3-10_truck_10_n03796401_6472.png
subject-01,1,369,0.915863990783691,airplane,airplane,64-3-10,0369_eid_s01_64-3-10_airplane_10_n02690373_3090.png
subject-01,1,370,0.869687080383301,cat,bear,64-3-10,0370_eid_s01_64-3-10_bear_10_n02134418_2964.png
subject-01,1,371,0.835592985153198,bird,elephant,16-3-10,0371_eid_s01_16-3-10_elephant_10_n02504013_6904.png
subject-01,1,372,0.957179069519043,car,bottle,32-3-10,0372_eid_s01_32-3-10_bottle_10_n02823428_13488.png
subject-01,1,373,0.753165006637573,car,car,1-3-10,0373_eid_s01_1-3-10_car_10_n02814533_49499.png
subject-01,1,374,0.992963075637817,knife,clock,64-3-10,0374_eid_s01_64-3-10_clock_10_n03196217_1000.png
subject-01,1,375,0.892688035964966,boat,boat,16-3-10,0375_eid_s01_16-3-10_boat_10_n04612504_13446.png
subject-01,1,376,0.998783111572266,bicycle,cat,8-3-10,0376_eid_s01_8-3-10_cat_10_n02123159_7239.png
subject-01,1,377,0.812167882919312,car,airplane,8-3-10,0377_eid_s01_8-3-10_airplane_10_n02690373_7499.png
subject-01,1,378,0.910019874572754,elephant,dog,64-3-10,0378_eid_s01_64-3-10_dog_10_n02100877_8862.png
subject-01,1,379,0.632316112518311,keyboard,keyboard,2-3-10,0379_eid_s01_2-3-10_keyboard_10_n03085013_7152.png
subject-01,1,380,1.0177628993988,bicycle,bottle,32-3-10,0380_eid_s01_32-3-10_bottle_10_n03937543_3344.png
subject-01,1,381,0.801570892333984,cat,bicycle,64-3-10,0381_eid_s01_64-3-10_bicycle_10_n02835271_1721.png
subject-01,1,382,0.51140022277832,boat,boat,2-3-10,0382_eid_s01_2-3-10_boat_10_n04273569_7039.png
subject-01,1,383,0.679342985153198,airplane,airplane,1-3-10,0383_eid_s01_1-3-10_airplane_10_n02690373_5790.png
subject-01,1,384,0.761078834533691,bird,bird,2-3-10,0384_eid_s01_2-3-10_bird_10_n02007558_4629.png
subject-01,1,385,0.716883897781372,airplane,airplane,8-3-10,0385_eid_s01_8-3-10_airplane_10_n02690373_2313.png
subject-01,1,386,0.720844984054565,car,car,2-3-10,0386_eid_s01_2-3-10_car_10_n02814533_65093.png
subject-01,1,387,0.724428176879883,bicycle,bicycle,2-3-10,0387_eid_s01_2-3-10_bicycle_10_n03792782_4559.png
subject-01,1,388,0.65821099281311,oven,oven,2-3-10,0388_eid_s01_2-3-10_oven_10_n04111531_16696.png
subject-01,1,389,1.11605095863342,clock,boat,32-3-10,0389_eid_s01_32-3-10_boat_10_n04273569_5593.png
subject-01,1,390,1.11796808242798,keyboard,bottle,128-3-10,0390_eid_s01_128-3-10_bottle_10_n03937543_6624.png
subject-01,1,391,0.819622039794922,airplane,airplane,1-3-10,0391_eid_s01_1-3-10_airplane_10_n02690373_12436.png
subject-01,1,392,0.625440835952759,bird,bird,2-3-10,0392_eid_s01_2-3-10_bird_10_n01828970_6924.png
subject-01,1,393,0.665278911590576,airplane,airplane,4-3-10,0393_eid_s01_4-3-10_airplane_10_n02690373_9605.png
subject-01,1,394,1.08336186408997,oven,truck,128-3-10,0394_eid_s01_128-3-10_truck_10_n03796401_1335.png
subject-01,1,395,1.0129771232605,keyboard,chair,64-3-10,0395_eid_s01_64-3-10_chair_10_n04429376_10476.png
subject-01,1,396,0.648754835128784,bottle,bottle,1-3-10,0396_eid_s01_1-3-10_bottle_10_n04560804_32760.png
subject-01,1,397,1.04692697525024,airplane,airplane,32-3-10,0397_eid_s01_32-3-10_airplane_10_n02690373_10817.png
subject-01,1,398,1.00429916381836,bird,car,32-3-10,0398_eid_s01_32-3-10_car_10_n03100240_5946.png
subject-01,1,399,1.00614786148071,cat,clock,64-3-10,0399_eid_s01_64-3-10_clock_10_n02708093_2875.png
subject-01,1,400,1.04040503501892,car,bear,2-3-10,0400_eid_s01_2-3-10_bear_10_n02133161_2456.png
subject-01,1,401,0.748716115951538,bird,bird,8-3-10,0401_eid_s01_8-3-10_bird_10_n01855672_15317.png
subject-01,1,402,0.888513088226318,dog,dog,8-3-10,0402_eid_s01_8-3-10_dog_10_n02098286_2242.png
subject-01,1,403,0.946229219436646,knife,knife,2-3-10,0403_eid_s01_2-3-10_knife_10_n03041632_43289.png
subject-01,1,404,0.65230393409729,bottle,bottle,4-3-10,0404_eid_s01_4-3-10_bottle_10_n02823428_4387.png
subject-01,1,405,0.83594799041748,bear,knife,64-3-10,0405_eid_s01_64-3-10_knife_10_n03041632_13194.png
subject-01,1,406,0.67192006111145,airplane,airplane,8-3-10,0406_eid_s01_8-3-10_airplane_10_n02690373_7465.png
subject-01,1,407,0.921599149703979,bird,bird,4-3-10,0407_eid_s01_4-3-10_bird_10_n02018207_2282.png
subject-01,1,408,1.1654269695282,car,chair,64-3-10,0408_eid_s01_64-3-10_chair_10_n04099969_34351.png
subject-01,1,409,0.681657075881958,elephant,bottle,64-3-10,0409_eid_s01_64-3-10_bottle_10_n03937543_49.png
subject-01,1,410,0.955438137054443,bicycle,bicycle,8-3-10,0410_eid_s01_8-3-10_bicycle_10_n03792782_9833.png
subject-01,1,411,1.00736498832703,knife,clock,4-3-10,0411_eid_s01_4-3-10_clock_10_n03196217_10384.png
subject-01,1,412,1.00107979774475,oven,truck,64-3-10,0412_eid_s01_64-3-10_truck_10_n04467665_4492.png
subject-01,1,413,0.752574920654297,chair,bottle,128-3-10,0413_eid_s01_128-3-10_bottle_10_n03983396_5148.png
subject-01,1,414,1.04649496078491,keyboard,clock,128-3-10,0414_eid_s01_128-3-10_clock_10_n04548280_4364.png
subject-01,1,415,0.628479957580566,cat,cat,1-3-10,0415_eid_s01_1-3-10_cat_10_n02123394_6792.png
subject-01,1,416,NaN,na,oven,16-3-10,0416_eid_s01_16-3-10_oven_10_n04111531_1298.png
subject-01,1,417,0.873811960220337,clock,clock,8-3-10,0417_eid_s01_8-3-10_clock_10_n04548280_2334.png
subject-01,1,418,1.00365090370178,bird,car,32-3-10,0418_eid_s01_32-3-10_car_10_n04285008_15570.png
subject-01,1,419,0.693461894989014,cat,dog,32-3-10,0419_eid_s01_32-3-10_dog_10_n02087394_7569.png
subject-01,1,420,0.923261165618896,car,clock,32-3-10,0420_eid_s01_32-3-10_clock_10_n03196217_11445.png
subject-01,1,421,0.904886960983276,airplane,chair,32-3-10,0421_eid_s01_32-3-10_chair_10_n04099969_3095.png
subject-01,1,422,1.0188000202179,bear,bird,64-3-10,0422_eid_s01_64-3-10_bird_10_n01601694_935.png
subject-01,1,423,0.814573049545288,bird,bird,2-3-10,0423_eid_s01_2-3-10_bird_10_n01592084_3570.png
subject-01,1,424,0.870261907577515,cat,dog,64-3-10,0424_eid_s01_64-3-10_dog_10_n02090379_605.png
subject-01,1,425,0.732203006744385,airplane,airplane,1-3-10,0425_eid_s01_1-3-10_airplane_10_n02690373_3912.png
subject-01,1,426,1.01601982116699,chair,oven,128-3-10,0426_eid_s01_128-3-10_oven_10_n04111531_986.png
subject-01,1,427,0.979862928390503,car,knife,32-3-10,0427_eid_s01_32-3-10_knife_10_n03041632_23736.png
subject-01,1,428,0.773593902587891,clock,clock,4-3-10,0428_eid_s01_4-3-10_clock_10_n04548280_10686.png
subject-01,1,429,0.95540714263916,truck,oven,32-3-10,0429_eid_s01_32-3-10_oven_10_n04111531_21460.png
subject-01,1,430,0.801222085952759,cat,bottle,32-3-10,0430_eid_s01_32-3-10_bottle_10_n04557648_3675.png
subject-01,1,431,0.967500925064087,bottle,chair,8-3-10,0431_eid_s01_8-3-10_chair_10_n02791124_495.png
subject-01,1,432,1.15912699699402,elephant,chair,128-3-10,0432_eid_s01_128-3-10_chair_10_n04429376_9165.png
subject-01,1,433,0.620858907699585,clock,clock,1-3-10,0433_eid_s01_1-3-10_clock_10_n04548280_2937.png
subject-01,1,434,1.03467106819153,cat,bear,32-3-10,0434_eid_s01_32-3-10_bear_10_n02134418_5849.png
subject-01,1,435,0.866539001464844,bear,bottle,128-3-10,0435_eid_s01_128-3-10_bottle_10_n04560804_2521.png
subject-01,1,436,0.706192970275879,car,car,8-3-10,0436_eid_s01_8-3-10_car_10_n04285008_11600.png
subject-01,1,437,0.764272928237915,knife,knife,2-3-10,0437_eid_s01_2-3-10_knife_10_n03041632_79317.png
subject-01,1,438,0.909863948822021,car,truck,32-3-10,0438_eid_s01_32-3-10_truck_10_n03417042_6467.png
subject-01,1,439,1.02561402320862,boat,airplane,64-3-10,0439_eid_s01_64-3-10_airplane_10_n02690373_303.png
subject-01,1,440,0.955742835998535,cat,chair,64-3-10,0440_eid_s01_64-3-10_chair_10_n04099969_2354.png
subject-01,1,441,0.937258958816528,keyboard,clock,128-3-10,0441_eid_s01_128-3-10_clock_10_n04548280_377.png
subject-01,1,442,1.50006699562073,chair,bicycle,32-3-10,0442_eid_s01_32-3-10_bicycle_10_n03792782_11597.png
subject-01,1,443,0.684926986694336,bottle,bottle,2-3-10,0443_eid_s01_2-3-10_bottle_10_n04579145_215.png
subject-01,1,444,0.736860990524292,car,car,4-3-10,0444_eid_s01_4-3-10_car_10_n02814533_95669.png
subject-01,1,445,0.894365072250366,bear,chair,32-3-10,0445_eid_s01_32-3-10_chair_10_n04429376_51025.png
subject-01,1,446,0.580366849899292,cat,cat,4-3-10,0446_eid_s01_4-3-10_cat_10_n02123045_2757.png
subject-01,1,447,0.854036092758179,oven,bottle,4-3-10,0447_eid_s01_4-3-10_bottle_10_n03937543_2135.png
subject-01,1,448,0.731847047805786,bird,bird,2-3-10,0448_eid_s01_2-3-10_bird_10_n01855032_7457.png
subject-01,1,449,0.911607027053833,car,car,16-3-10,0449_eid_s01_16-3-10_car_10_n02814533_24935.png
subject-01,1,450,0.663608074188232,keyboard,keyboard,4-3-10,0450_eid_s01_4-3-10_keyboard_10_n04505470_1371.png
subject-01,1,451,1.12735199928284,cat,dog,16-3-10,0451_eid_s01_16-3-10_dog_10_n02099267_2379.png
subject-01,1,452,0.893082141876221,cat,cat,8-3-10,0452_eid_s01_8-3-10_cat_10_n02123394_8009.png
subject-01,1,453,0.638792991638184,keyboard,keyboard,2-3-10,0453_eid_s01_2-3-10_keyboard_10_n03085013_29042.png
subject-01,1,454,0.949120044708252,bear,airplane,128-3-10,0454_eid_s01_128-3-10_airplane_10_n02690373_2131.png
subject-01,1,455,0.616827964782715,car,car,8-3-10,0455_eid_s01_8-3-10_car_10_n03100240_327.png
subject-01,1,456,0.702501058578491,elephant,elephant,2-3-10,0456_eid_s01_2-3-10_elephant_10_n02504458_4163.png
subject-01,1,457,1.25446891784668,keyboard,knife,1-3-10,0457_eid_s01_1-3-10_knife_10_n03041632_9635.png
subject-01,1,458,0.702465057373047,boat,airplane,16-3-10,0458_eid_s01_16-3-10_airplane_10_n02690373_1044.png
subject-01,1,459,0.905746936798096,bird,bottle,16-3-10,0459_eid_s01_16-3-10_bottle_10_n04560804_5441.png
subject-01,1,460,0.54149603843689,cat,cat,8-3-10,0460_eid_s01_8-3-10_cat_10_n02123159_988.png
subject-01,1,461,1.45339298248291,dog,bird,64-3-10,0461_eid_s01_64-3-10_bird_10_n01843383_4667.png
subject-01,1,462,0.761192798614502,airplane,airplane,2-3-10,0462_eid_s01_2-3-10_airplane_10_n02690373_6978.png
subject-01,1,463,0.949225902557373,bicycle,chair,128-3-10,0463_eid_s01_128-3-10_chair_10_n04099969_5901.png
subject-01,1,464,0.609093904495239,car,truck,8-3-10,0464_eid_s01_8-3-10_truck_10_n03417042_29849.png
subject-01,1,465,0.634672880172729,airplane,airplane,1-3-10,0465_eid_s01_1-3-10_airplane_10_n02690373_427.png
subject-01,1,466,0.716538190841675,bottle,bottle,4-3-10,0466_eid_s01_4-3-10_bottle_10_n03983396_2305.png
subject-01,1,467,0.920397996902466,cat,oven,64-3-10,0467_eid_s01_64-3-10_oven_10_n04111531_15296.png
subject-01,1,468,0.930131912231445,cat,cat,4-3-10,0468_eid_s01_4-3-10_cat_10_n02123159_6728.png
subject-01,1,469,0.737963199615479,elephant,elephant,4-3-10,0469_eid_s01_4-3-10_elephant_10_n02504458_12449.png
subject-01,1,470,0.801838874816895,bicycle,elephant,128-3-10,0470_eid_s01_128-3-10_elephant_10_n02504458_12165.png
subject-01,1,471,0.905482053756714,airplane,airplane,8-3-10,0471_eid_s01_8-3-10_airplane_10_n02690373_5010.png
subject-01,1,472,0.991668939590454,chair,dog,64-3-10,0472_eid_s01_64-3-10_dog_10_n02100236_4549.png
subject-01,1,473,0.785300016403198,boat,boat,4-3-10,0473_eid_s01_4-3-10_boat_10_n03344393_4289.png
subject-01,1,474,0.97298789024353,truck,chair,64-3-10,0474_eid_s01_64-3-10_chair_10_n04099969_48169.png
subject-01,1,475,0.59876012802124,airplane,airplane,4-3-10,0475_eid_s01_4-3-10_airplane_10_n02690373_1996.png
subject-01,1,476,1.15265202522278,boat,truck,128-3-10,0476_eid_s01_128-3-10_truck_10_n03417042_28078.png
subject-01,1,477,0.968370914459229,truck,truck,8-3-10,0477_eid_s01_8-3-10_truck_10_n04467665_3098.png
subject-01,1,478,0.784595012664795,elephant,elephant,4-3-10,0478_eid_s01_4-3-10_elephant_10_n02504458_847.png
subject-01,1,479,0.746006011962891,bicycle,bicycle,8-3-10,0479_eid_s01_8-3-10_bicycle_10_n03792782_5880.png
subject-01,1,480,1.23981285095215,clock,bear,128-3-10,0480_eid_s01_128-3-10_bear_10_n02132136_30976.png
subject-01,1,481,0.635034084320068,cat,chair,64-3-10,0481_eid_s01_64-3-10_chair_10_n02791124_2057.png
subject-01,1,482,1.10866284370422,clock,keyboard,128-3-10,0482_eid_s01_128-3-10_keyboard_10_n03085013_7286.png
subject-01,1,483,1.0546019077301,boat,clock,32-3-10,0483_eid_s01_32-3-10_clock_10_n04548280_1323.png
subject-01,1,484,1.07454490661621,keyboard,bottle,128-3-10,0484_eid_s01_128-3-10_bottle_10_n03983396_18508.png
subject-01,1,485,1.30222487449646,cat,bottle,8-3-10,0485_eid_s01_8-3-10_bottle_10_n03983396_3880.png
subject-01,1,486,0.787850856781006,keyboard,dog,128-3-10,0486_eid_s01_128-3-10_dog_10_n02095570_601.png
subject-01,1,487,1.0320520401001,car,bird,32-3-10,0487_eid_s01_32-3-10_bird_10_n01797886_21510.png
subject-01,1,488,0.595622062683105,chair,chair,1-3-10,0488_eid_s01_1-3-10_chair_10_n04099969_9425.png
subject-01,1,489,0.621458053588867,keyboard,keyboard,8-3-10,0489_eid_s01_8-3-10_keyboard_10_n04505470_4228.png
subject-01,1,490,NaN,na,elephant,32-3-10,0490_eid_s01_32-3-10_elephant_10_n02504013_7553.png
subject-01,1,491,0.836856126785278,elephant,cat,64-3-10,0491_eid_s01_64-3-10_cat_10_n02125311_8090.png
subject-01,1,492,0.82474684715271,keyboard,keyboard,8-3-10,0492_eid_s01_8-3-10_keyboard_10_n04505470_10041.png
subject-01,1,493,0.648710012435913,bicycle,bicycle,4-3-10,0493_eid_s01_4-3-10_bicycle_10_n03792782_1833.png
subject-01,1,494,1.06423497200012,bear,bottle,4-3-10,0494_eid_s01_4-3-10_bottle_10_n04557648_11642.png
subject-01,1,495,0.800103902816772,bicycle,car,128-3-10,0495_eid_s01_128-3-10_car_10_n03100240_7219.png
subject-01,1,496,0.799926996231079,truck,truck,1-3-10,0496_eid_s01_1-3-10_truck_10_n03796401_9642.png
subject-01,1,497,1.12380790710449,bird,cat,1-3-10,0497_eid_s01_1-3-10_cat_10_n02125311_13348.png
subject-01,1,498,0.969579935073853,oven,bottle,128-3-10,0498_eid_s01_128-3-10_bottle_10_n04560804_5540.png
subject-01,1,499,0.621526002883911,bottle,bottle,4-3-10,0499_eid_s01_4-3-10_bottle_10_n03983396_9604.png
subject-01,1,500,0.787290096282959,boat,truck,32-3-10,0500_eid_s01_32-3-10_truck_10_n03417042_5180.png
subject-01,1,501,1.12905716896057,elephant,dog,16-3-10,0501_eid_s01_16-3-10_dog_10_n02109525_3364.png
subject-01,1,502,0.81278395652771,clock,clock,2-3-10,0502_eid_s01_2-3-10_clock_10_n04548280_353.png
subject-01,1,503,1.09074401855469,bicycle,dog,1-3-10,0503_eid_s01_1-3-10_dog_10_n02111129_4423.png
subject-01,1,504,0.894465923309326,oven,dog,16-3-10,0504_eid_s01_16-3-10_dog_10_n02108000_1538.png
subject-01,1,505,0.948570966720581,boat,keyboard,16-3-10,0505_eid_s01_16-3-10_keyboard_10_n03085013_3439.png
subject-01,1,506,0.770312070846558,truck,truck,8-3-10,0506_eid_s01_8-3-10_truck_10_n03417042_4016.png
subject-01,1,507,1.43005800247192,car,knife,32-3-10,0507_eid_s01_32-3-10_knife_10_n03041632_39883.png
subject-01,1,508,0.975858926773071,keyboard,bear,16-3-10,0508_eid_s01_16-3-10_bear_10_n02132136_21181.png
subject-01,1,509,0.893446922302246,elephant,elephant,8-3-10,0509_eid_s01_8-3-10_elephant_10_n02504013_718.png
subject-01,1,510,0.843381881713867,oven,oven,2-3-10,0510_eid_s01_2-3-10_oven_10_n04111531_4146.png
subject-01,1,511,0.695530891418457,airplane,airplane,8-3-10,0511_eid_s01_8-3-10_airplane_10_n02690373_10769.png
subject-01,1,512,0.777071952819824,dog,dog,16-3-10,0512_eid_s01_16-3-10_dog_10_n02109525_4516.png
subject-01,1,513,1.01488590240479,boat,boat,4-3-10,0513_eid_s01_4-3-10_boat_10_n02951358_12333.png
subject-01,1,514,0.846695899963379,chair,chair,8-3-10,0514_eid_s01_8-3-10_chair_10_n04099969_20421.png
subject-01,1,515,0.882415056228638,knife,knife,4-3-10,0515_eid_s01_4-3-10_knife_10_n03041632_21165.png
subject-01,1,516,0.676177024841309,bicycle,bicycle,1-3-10,0516_eid_s01_1-3-10_bicycle_10_n02835271_21439.png
subject-01,1,517,0.844197988510132,boat,boat,1-3-10,0517_eid_s01_1-3-10_boat_10_n04273569_24526.png
subject-01,1,518,1.12229299545288,elephant,bottle,32-3-10,0518_eid_s01_32-3-10_bottle_10_n04579145_2276.png
subject-01,1,519,1.31188201904297,cat,bear,8-3-10,0519_eid_s01_8-3-10_bear_10_n02134418_1642.png
subject-01,1,520,0.775527000427246,bicycle,bicycle,1-3-10,0520_eid_s01_1-3-10_bicycle_10_n02835271_15468.png
subject-01,1,521,0.937376976013184,truck,keyboard,64-3-10,0521_eid_s01_64-3-10_keyboard_10_n03085013_26532.png
subject-01,1,522,1.26145195960999,elephant,clock,64-3-10,0522_eid_s01_64-3-10_clock_10_n03196217_6809.png
subject-01,1,523,0.921056985855103,knife,bear,64-3-10,0523_eid_s01_64-3-10_bear_10_n02134418_4384.png
subject-01,1,524,0.760812997817993,dog,dog,4-3-10,0524_eid_s01_4-3-10_dog_10_n02086240_1183.png
subject-01,1,525,0.872531890869141,knife,chair,1-3-10,0525_eid_s01_1-3-10_chair_10_n04429376_294.png
subject-01,1,526,1.24449181556702,keyboard,clock,64-3-10,0526_eid_s01_64-3-10_clock_10_n02708093_4893.png
subject-01,1,527,NaN,na,keyboard,64-3-10,0527_eid_s01_64-3-10_keyboard_10_n03085013_3098.png
subject-01,1,528,0.828132152557373,chair,cat,16-3-10,0528_eid_s01_16-3-10_cat_10_n02125311_22073.png
subject-01,1,529,0.949978828430176,knife,bird,2-3-10,0529_eid_s01_2-3-10_bird_10_n01558993_869.png
subject-01,1,530,0.731806993484497,bird,bird,1-3-10,0530_eid_s01_1-3-10_bird_10_n01817953_8025.png
subject-01,1,531,1.24960398674011,dog,chair,2-3-10,0531_eid_s01_2-3-10_chair_10_n04099969_24235.png
subject-01,1,532,0.881345987319946,cat,knife,128-3-10,0532_eid_s01_128-3-10_knife_10_n03041632_1201.png
subject-01,1,533,0.831094980239868,bicycle,bicycle,4-3-10,0533_eid_s01_4-3-10_bicycle_10_n03792782_16212.png
subject-01,1,534,1.13683199882507,oven,oven,4-3-10,0534_eid_s01_4-3-10_oven_10_n04111531_11655.png
subject-01,1,535,1.05256319046021,chair,bicycle,16-3-10,0535_eid_s01_16-3-10_bicycle_10_n02835271_5152.png
subject-01,1,536,1.0384509563446,boat,bear,16-3-10,0536_eid_s01_16-3-10_bear_10_n02132136_19290.png
subject-01,1,537,0.980389833450317,car,car,32-3-10,0537_eid_s01_32-3-10_car_10_n03100240_6103.png
subject-01,1,538,1.08606910705566,airplane,airplane,16-3-10,0538_eid_s01_16-3-10_airplane_10_n02690373_5714.png
subject-01,1,539,0.790369033813477,clock,chair,1-3-10,0539_eid_s01_1-3-10_chair_10_n04429376_2915.png
subject-01,1,540,0.847858905792236,oven,clock,64-3-10,0540_eid_s01_64-3-10_clock_10_n02708093_7827.png
subject-01,1,541,0.731554985046387,truck,truck,2-3-10,0541_eid_s01_2-3-10_truck_10_n03417042_6247.png
subject-01,1,542,0.863359928131104,bicycle,elephant,32-3-10,0542_eid_s01_32-3-10_elephant_10_n02504013_947.png
subject-01,1,543,0.747326135635376,truck,truck,1-3-10,0543_eid_s01_1-3-10_truck_10_n03417042_2074.png
subject-01,1,544,0.837054014205933,airplane,airplane,8-3-10,0544_eid_s01_8-3-10_airplane_10_n02690373_5221.png
subject-01,1,545,0.878816843032837,bottle,oven,4-3-10,0545_eid_s01_4-3-10_oven_10_n04111531_6629.png
subject-01,1,546,0.796629190444946,knife,knife,1-3-10,0546_eid_s01_1-3-10_knife_10_n03041632_36277.png
subject-01,1,547,1.06659603118896,bicycle,cat,64-3-10,0547_eid_s01_64-3-10_cat_10_n02123597_4700.png
subject-01,1,548,0.828107118606567,airplane,airplane,16-3-10,0548_eid_s01_16-3-10_airplane_10_n02690373_20042.png
subject-01,1,549,0.834198951721191,bird,chair,32-3-10,0549_eid_s01_32-3-10_chair_10_n02791124_15539.png
subject-01,1,550,0.61786413192749,cat,cat,1-3-10,0550_eid_s01_1-3-10_cat_10_n02123394_5700.png
subject-01,1,551,0.727771997451782,car,car,4-3-10,0551_eid_s01_4-3-10_car_10_n04285008_13595.png
subject-01,1,552,1.04354310035706,keyboard,chair,8-3-10,0552_eid_s01_8-3-10_chair_10_n02791124_2282.png
subject-01,1,553,1.25955700874329,bear,dog,2-3-10,0553_eid_s01_2-3-10_dog_10_n02100877_3973.png
subject-01,1,554,0.801118850708008,cat,truck,64-3-10,0554_eid_s01_64-3-10_truck_10_n03417042_12297.png
subject-01,1,555,0.79712700843811,bicycle,elephant,8-3-10,0555_eid_s01_8-3-10_elephant_10_n02504013_6303.png
subject-01,1,556,0.856839895248413,car,car,8-3-10,0556_eid_s01_8-3-10_car_10_n02814533_43990.png
subject-01,1,557,0.796682834625244,bicycle,truck,16-3-10,0557_eid_s01_16-3-10_truck_10_n04467665_58456.png
subject-01,1,558,1.05837106704712,cat,dog,4-3-10,0558_eid_s01_4-3-10_dog_10_n02098105_526.png
subject-01,1,559,0.872252941131592,bird,bird,2-3-10,0559_eid_s01_2-3-10_bird_10_n02037110_27907.png
subject-01,1,560,0.805929183959961,boat,keyboard,64-3-10,0560_eid_s01_64-3-10_keyboard_10_n03085013_20849.png
subject-01,1,561,0.708667039871216,chair,chair,1-3-10,0561_eid_s01_1-3-10_chair_10_n03376595_12524.png
subject-01,1,562,0.924460172653198,bicycle,bird,64-3-10,0562_eid_s01_64-3-10_bird_10_n02056570_27055.png
subject-01,1,563,1.00627422332764,boat,truck,64-3-10,0563_eid_s01_64-3-10_truck_10_n03417042_4934.png
subject-01,1,564,0.980232000350952,airplane,knife,16-3-10,0564_eid_s01_16-3-10_knife_10_n03041632_3210.png
subject-01,1,565,0.7499680519104,dog,dog,8-3-10,0565_eid_s01_8-3-10_dog_10_n02096585_2118.png
subject-01,1,566,0.589882135391235,keyboard,keyboard,1-3-10,0566_eid_s01_1-3-10_keyboard_10_n03085013_3539.png
subject-01,1,567,0.67000412940979,truck,truck,4-3-10,0567_eid_s01_4-3-10_truck_10_n03417042_17215.png
subject-01,1,568,0.843452930450439,dog,cat,8-3-10,0568_eid_s01_8-3-10_cat_10_n02123045_12657.png
subject-01,1,569,0.831182956695557,boat,knife,64-3-10,0569_eid_s01_64-3-10_knife_10_n03041632_20576.png
subject-01,1,570,0.747075080871582,truck,truck,8-3-10,0570_eid_s01_8-3-10_truck_10_n04467665_23905.png
subject-01,1,571,0.944706916809082,elephant,oven,128-3-10,0571_eid_s01_128-3-10_oven_10_n04111531_9427.png
subject-01,1,572,0.91059398651123,airplane,oven,16-3-10,0572_eid_s01_16-3-10_oven_10_n04111531_14329.png
subject-01,1,573,1.00645899772644,chair,bird,64-3-10,0573_eid_s01_64-3-10_bird_10_n01614925_19422.png
subject-01,1,574,1.00033092498779,bicycle,bottle,128-3-10,0574_eid_s01_128-3-10_bottle_10_n02823428_1154.png
subject-01,1,575,0.760205984115601,dog,dog,4-3-10,0575_eid_s01_4-3-10_dog_10_n02093859_4797.png
subject-01,1,576,1.10022616386414,airplane,airplane,1-3-10,0576_eid_s01_1-3-10_airplane_10_n02690373_2632.png
subject-01,1,577,1.04005098342896,car,keyboard,32-3-10,0577_eid_s01_32-3-10_keyboard_10_n03085013_15825.png
subject-01,1,578,0.635619878768921,car,car,4-3-10,0578_eid_s01_4-3-10_car_10_n02814533_52674.png
subject-01,1,579,0.667427062988281,oven,truck,32-3-10,0579_eid_s01_32-3-10_truck_10_n04467665_32937.png
subject-01,1,580,1.19514298439026,chair,bird,4-3-10,0580_eid_s01_4-3-10_bird_10_n01537544_20.png
subject-01,1,581,1.14332103729248,boat,clock,8-3-10,0581_eid_s01_8-3-10_clock_10_n03196217_564.png
subject-01,1,582,0.998853921890259,knife,knife,1-3-10,0582_eid_s01_1-3-10_knife_10_n03041632_76163.png
subject-01,1,583,1.01050686836243,boat,airplane,32-3-10,0583_eid_s01_32-3-10_airplane_10_n02690373_8559.png
subject-01,1,584,0.800462961196899,keyboard,keyboard,2-3-10,0584_eid_s01_2-3-10_keyboard_10_n04505470_3941.png
subject-01,1,585,1.10615801811218,car,oven,64-3-10,0585_eid_s01_64-3-10_oven_10_n04111531_9910.png
subject-01,1,586,1.20442914962769,bicycle,bottle,128-3-10,0586_eid_s01_128-3-10_bottle_10_n03937543_7191.png
subject-01,1,587,0.631940126419067,boat,boat,4-3-10,0587_eid_s01_4-3-10_boat_10_n03662601_14818.png
subject-01,1,588,0.948027849197388,boat,boat,128-3-10,0588_eid_s01_128-3-10_boat_10_n02951358_588.png
subject-01,1,589,1.02545213699341,bear,bear,1-3-10,0589_eid_s01_1-3-10_bear_10_n02133161_2851.png
subject-01,1,590,1.37726521492004,oven,chair,2-3-10,0590_eid_s01_2-3-10_chair_10_n03376595_16212.png
subject-01,1,591,0.899081945419312,boat,boat,8-3-10,0591_eid_s01_8-3-10_boat_10_n04612504_1613.png
subject-01,1,592,0.87870979309082,chair,chair,128-3-10,0592_eid_s01_128-3-10_chair_10_n02791124_3198.png
subject-01,1,593,1.03285598754883,bird,knife,16-3-10,0593_eid_s01_16-3-10_knife_10_n03041632_32785.png
subject-01,1,594,1.08702492713928,cat,oven,32-3-10,0594_eid_s01_32-3-10_oven_10_n04111531_22797.png
subject-01,1,595,0.778290987014771,bear,oven,128-3-10,0595_eid_s01_128-3-10_oven_10_n04111531_5077.png
subject-01,1,596,0.930207967758179,bear,bear,1-3-10,0596_eid_s01_1-3-10_bear_10_n02134418_2569.png
subject-01,1,597,0.826031923294067,car,car,1-3-10,0597_eid_s01_1-3-10_car_10_n03100240_15284.png
subject-01,1,598,0.715730905532837,keyboard,keyboard,2-3-10,0598_eid_s01_2-3-10_keyboard_10_n04505470_4791.png
subject-01,1,599,0.947466135025024,boat,bicycle,64-3-10,0599_eid_s01_64-3-10_bicycle_10_n03792782_551.png
subject-01,1,600,0.76353907585144,bottle,bottle,1-3-10,0600_eid_s01_1-3-10_bottle_10_n03937543_2999.png
subject-01,1,601,1.08537316322327,airplane,airplane,16-3-10,0601_eid_s01_16-3-10_airplane_10_n02690373_7279.png
subject-01,1,602,1.05722808837891,knife,airplane,128-3-10,0602_eid_s01_128-3-10_airplane_10_n02690373_9312.png
subject-01,1,603,1.35669589042664,bottle,chair,8-3-10,0603_eid_s01_8-3-10_chair_10_n04429376_2591.png
subject-01,1,604,0.974545001983643,bicycle,dog,32-3-10,0604_eid_s01_32-3-10_dog_10_n02109525_175.png
subject-01,1,605,0.776456832885742,dog,dog,1-3-10,0605_eid_s01_1-3-10_dog_10_n02106166_476.png
subject-01,1,606,0.634399890899658,boat,boat,1-3-10,0606_eid_s01_1-3-10_boat_10_n02951358_1136.png
subject-01,1,607,1.03005790710449,chair,knife,2-3-10,0607_eid_s01_2-3-10_knife_10_n03041632_3079.png
subject-01,1,608,1.22994089126587,elephant,truck,128-3-10,0608_eid_s01_128-3-10_truck_10_n03417042_18603.png
subject-01,1,609,1.2816150188446,bear,cat,128-3-10,0609_eid_s01_128-3-10_cat_10_n02123045_9492.png
subject-01,1,610,1.22960805892944,airplane,boat,64-3-10,0610_eid_s01_64-3-10_boat_10_n03344393_8642.png
subject-01,1,611,1.06143188476562,airplane,bird,32-3-10,0611_eid_s01_32-3-10_bird_10_n02009229_6228.png
subject-01,1,612,0.761337995529175,bird,chair,8-3-10,0612_eid_s01_8-3-10_chair_10_n02791124_13704.png
subject-01,1,613,1.06886982917786,car,knife,64-3-10,0613_eid_s01_64-3-10_knife_10_n03041632_28129.png
subject-01,1,614,1.08073806762695,knife,keyboard,32-3-10,0614_eid_s01_32-3-10_keyboard_10_n04505470_8244.png
subject-01,1,615,1.33886098861694,knife,knife,4-3-10,0615_eid_s01_4-3-10_knife_10_n03041632_30196.png
subject-01,1,616,1.03628587722778,bicycle,keyboard,32-3-10,0616_eid_s01_32-3-10_keyboard_10_n04505470_5109.png
subject-01,1,617,0.89226508140564,knife,knife,8-3-10,0617_eid_s01_8-3-10_knife_10_n03041632_44738.png
subject-01,1,618,0.630030870437622,car,car,1-3-10,0618_eid_s01_1-3-10_car_10_n02814533_4726.png
subject-01,1,619,0.859766960144043,elephant,elephant,2-3-10,0619_eid_s01_2-3-10_elephant_10_n02504458_13583.png
subject-01,1,620,0.579617023468018,boat,boat,1-3-10,0620_eid_s01_1-3-10_boat_10_n03662601_26396.png
subject-01,1,621,0.585415124893188,boat,boat,4-3-10,0621_eid_s01_4-3-10_boat_10_n04273569_4518.png
subject-01,1,622,1.02909398078918,bear,bird,16-3-10,0622_eid_s01_16-3-10_bird_10_n01843383_3274.png
subject-01,1,623,0.890905857086182,dog,clock,16-3-10,0623_eid_s01_16-3-10_clock_10_n02708093_3621.png
subject-01,1,624,0.878955125808716,boat,boat,16-3-10,0624_eid_s01_16-3-10_boat_10_n02951358_1360.png
subject-01,1,625,0.658845901489258,keyboard,keyboard,4-3-10,0625_eid_s01_4-3-10_keyboard_10_n03085013_5819.png
subject-01,1,626,0.806489944458008,truck,dog,64-3-10,0626_eid_s01_64-3-10_dog_10_n02087046_15420.png
subject-01,1,627,0.686362981796265,bottle,bottle,1-3-10,0627_eid_s01_1-3-10_bottle_10_n03937543_1358.png
subject-01,1,628,0.866196155548096,bottle,bottle,16-3-10,0628_eid_s01_16-3-10_bottle_10_n02823428_12643.png
subject-01,1,629,0.796175956726074,keyboard,keyboard,1-3-10,0629_eid_s01_1-3-10_keyboard_10_n04505470_1245.png
subject-01,1,630,1.0316858291626,car,car,16-3-10,0630_eid_s01_16-3-10_car_10_n02814533_47325.png
subject-01,1,631,1.32357716560364,knife,car,32-3-10,0631_eid_s01_32-3-10_car_10_n04285008_4331.png
subject-01,1,632,1.20131993293762,bird,elephant,1-3-10,0632_eid_s01_1-3-10_elephant_10_n02504013_2984.png
subject-01,1,633,0.933213233947754,cat,cat,2-3-10,0633_eid_s01_2-3-10_cat_10_n02124075_13278.png
subject-01,1,634,1.24104595184326,elephant,truck,16-3-10,0634_eid_s01_16-3-10_truck_10_n04467665_8189.png
subject-01,1,635,0.701282978057861,bottle,bottle,2-3-10,0635_eid_s01_2-3-10_bottle_10_n02823428_13931.png
subject-01,1,636,1.18876504898071,car,cat,128-3-10,0636_eid_s01_128-3-10_cat_10_n02124075_12350.png
subject-01,1,637,0.988660097122192,bear,elephant,16-3-10,0637_eid_s01_16-3-10_elephant_10_n02504013_4590.png
subject-01,1,638,0.808413028717041,airplane,bird,32-3-10,0638_eid_s01_32-3-10_bird_10_n01855672_6144.png
subject-01,1,639,1.09248900413513,clock,bear,128-3-10,0639_eid_s01_128-3-10_bear_10_n02132136_15262.png
subject-01,1,640,1.50010108947754,bear,cat,2-3-10,0640_eid_s01_2-3-10_cat_10_n02125311_15293.png
subject-01,1,641,0.684026002883911,bicycle,bicycle,4-3-10,0641_eid_s01_4-3-10_bicycle_10_n02835271_1487.png
subject-01,1,642,0.559731006622314,dog,dog,4-3-10,0642_eid_s01_4-3-10_dog_10_n02107574_5896.png
subject-01,1,643,0.64955997467041,keyboard,keyboard,4-3-10,0643_eid_s01_4-3-10_keyboard_10_n03085013_15365.png
subject-01,1,644,1.11165690422058,bicycle,truck,32-3-10,0644_eid_s01_32-3-10_truck_10_n04467665_67927.png
subject-01,1,645,1.13923406600952,keyboard,bottle,2-3-10,0645_eid_s01_2-3-10_bottle_10_n04591713_3085.png
subject-01,1,646,0.700998067855835,clock,clock,4-3-10,0646_eid_s01_4-3-10_clock_10_n04548280_5096.png
subject-01,1,647,0.760810852050781,cat,cat,16-3-10,0647_eid_s01_16-3-10_cat_10_n02123159_13611.png
subject-01,1,648,1.03871393203735,keyboard,oven,128-3-10,0648_eid_s01_128-3-10_oven_10_n04111531_15568.png
subject-01,1,649,0.662883996963501,chair,knife,32-3-10,0649_eid_s01_32-3-10_knife_10_n03041632_8618.png
subject-01,1,650,0.632260084152222,clock,oven,4-3-10,0650_eid_s01_4-3-10_oven_10_n04111531_6445.png
subject-01,1,651,0.95815110206604,knife,bicycle,128-3-10,0651_eid_s01_128-3-10_bicycle_10_n03792782_70724.png
subject-01,1,652,1.11573910713196,bear,knife,32-3-10,0652_eid_s01_32-3-10_knife_10_n03041632_45326.png
subject-01,1,653,1.03168892860413,bird,oven,32-3-10,0653_eid_s01_32-3-10_oven_10_n04111531_7134.png
subject-01,1,654,1.0435471534729,elephant,keyboard,64-3-10,0654_eid_s01_64-3-10_keyboard_10_n03085013_23828.png
subject-01,1,655,0.607451915740967,bear,bear,2-3-10,0655_eid_s01_2-3-10_bear_10_n02134084_7193.png
subject-01,1,656,0.581057071685791,clock,clock,8-3-10,0656_eid_s01_8-3-10_clock_10_n02708093_1431.png
subject-01,1,657,0.78886890411377,bird,airplane,64-3-10,0657_eid_s01_64-3-10_airplane_10_n02690373_4364.png
subject-01,1,658,0.562656164169312,cat,bottle,64-3-10,0658_eid_s01_64-3-10_bottle_10_n02823428_12997.png
subject-01,1,659,0.940611124038696,bear,boat,8-3-10,0659_eid_s01_8-3-10_boat_10_n02951358_9837.png
subject-01,1,660,0.928279876708984,chair,elephant,64-3-10,0660_eid_s01_64-3-10_elephant_10_n02504013_7746.png
subject-01,1,661,0.886527061462402,cat,cat,32-3-10,0661_eid_s01_32-3-10_cat_10_n02123597_6548.png
subject-01,1,662,0.789857864379883,bottle,knife,32-3-10,0662_eid_s01_32-3-10_knife_10_n03041632_30286.png
subject-01,1,663,1.23371410369873,bear,bear,16-3-10,0663_eid_s01_16-3-10_bear_10_n02132136_33437.png
subject-01,1,664,0.767514944076538,bear,bear,2-3-10,0664_eid_s01_2-3-10_bear_10_n02134084_14360.png
subject-01,1,665,1.00346302986145,bottle,bottle,32-3-10,0665_eid_s01_32-3-10_bottle_10_n02823428_13280.png
subject-01,1,666,0.827326059341431,cat,boat,32-3-10,0666_eid_s01_32-3-10_boat_10_n03344393_2142.png
subject-01,1,667,0.964895963668823,airplane,bottle,16-3-10,0667_eid_s01_16-3-10_bottle_10_n04557648_9415.png
subject-01,1,668,0.8127760887146,boat,airplane,32-3-10,0668_eid_s01_32-3-10_airplane_10_n02690373_2564.png
subject-01,1,669,0.772865772247314,cat,dog,128-3-10,0669_eid_s01_128-3-10_dog_10_n02095889_1087.png
subject-01,1,670,0.824726104736328,boat,dog,2-3-10,0670_eid_s01_2-3-10_dog_10_n02092339_3615.png
subject-01,1,671,1.02235698699951,truck,truck,2-3-10,0671_eid_s01_2-3-10_truck_10_n03417042_2978.png
subject-01,1,672,0.916007041931152,knife,bottle,32-3-10,0672_eid_s01_32-3-10_bottle_10_n04557648_3768.png
subject-01,1,673,0.719909906387329,bicycle,boat,64-3-10,0673_eid_s01_64-3-10_boat_10_n04273569_5901.png
subject-01,1,674,0.667836904525757,car,car,8-3-10,0674_eid_s01_8-3-10_car_10_n02814533_3573.png
subject-01,1,675,0.817609071731567,truck,truck,4-3-10,0675_eid_s01_4-3-10_truck_10_n04467665_1840.png
subject-01,1,676,0.995373010635376,bird,bird,8-3-10,0676_eid_s01_8-3-10_bird_10_n02028035_7406.png
subject-01,1,677,1.09306716918945,truck,clock,16-3-10,0677_eid_s01_16-3-10_clock_10_n04548280_575.png
subject-01,1,678,0.580950021743774,bottle,bottle,1-3-10,0678_eid_s01_1-3-10_bottle_10_n04560804_9169.png
subject-01,1,679,0.888668060302734,dog,cat,2-3-10,0679_eid_s01_2-3-10_cat_10_n02125311_22949.png
subject-01,1,680,0.642677068710327,elephant,elephant,8-3-10,0680_eid_s01_8-3-10_elephant_10_n02504013_848.png
subject-01,1,681,1.09063696861267,bird,bicycle,16-3-10,0681_eid_s01_16-3-10_bicycle_10_n02835271_1974.png
subject-01,1,682,0.65063214302063,oven,oven,4-3-10,0682_eid_s01_4-3-10_oven_10_n04111531_6217.png
subject-01,1,683,0.852146863937378,boat,elephant,2-3-10,0683_eid_s01_2-3-10_elephant_10_n02504458_5882.png
subject-01,1,684,1.04191303253174,bird,bird,1-3-10,0684_eid_s01_1-3-10_bird_10_n02011460_6726.png
subject-01,1,685,0.701772928237915,cat,bear,128-3-10,0685_eid_s01_128-3-10_bear_10_n02133161_13089.png
subject-01,1,686,0.703635931015015,bird,bird,32-3-10,0686_eid_s01_32-3-10_bird_10_n01795545_17639.png
subject-01,1,687,1.24358487129211,cat,car,128-3-10,0687_eid_s01_128-3-10_car_10_n02814533_83588.png
subject-01,1,688,1.00347590446472,bear,oven,16-3-10,0688_eid_s01_16-3-10_oven_10_n04111531_10064.png
subject-01,1,689,0.73672890663147,dog,dog,2-3-10,0689_eid_s01_2-3-10_dog_10_n02113712_5246.png
subject-01,1,690,0.722823143005371,cat,cat,16-3-10,0690_eid_s01_16-3-10_cat_10_n02125311_46738.png
subject-01,1,691,0.64445686340332,bird,dog,1-3-10,0691_eid_s01_1-3-10_dog_10_n02100236_9311.png
subject-01,1,692,0.726370096206665,cat,elephant,128-3-10,0692_eid_s01_128-3-10_elephant_10_n02504458_5844.png
subject-01,1,693,0.766191959381104,oven,bear,32-3-10,0693_eid_s01_32-3-10_bear_10_n02132136_3378.png
subject-01,1,694,0.754133939743042,truck,truck,1-3-10,0694_eid_s01_1-3-10_truck_10_n03417042_1263.png
subject-01,1,695,0.711709022521973,truck,truck,1-3-10,0695_eid_s01_1-3-10_truck_10_n03417042_19596.png
subject-01,1,696,0.621607065200806,keyboard,keyboard,1-3-10,0696_eid_s01_1-3-10_keyboard_10_n04505470_1351.png
subject-01,1,697,1.10949611663818,keyboard,oven,2-3-10,0697_eid_s01_2-3-10_oven_10_n04111531_3902.png
subject-01,1,698,0.623358011245728,airplane,airplane,2-3-10,0698_eid_s01_2-3-10_airplane_10_n02690373_19345.png
subject-01,1,699,0.831321001052856,cat,bottle,64-3-10,0699_eid_s01_64-3-10_bottle_10_n03937543_4523.png
subject-01,1,700,0.848989009857178,chair,bicycle,64-3-10,0700_eid_s01_64-3-10_bicycle_10_n02835271_22448.png
subject-01,1,701,1.28088998794556,bear,bear,1-3-10,0701_eid_s01_1-3-10_bear_10_n02132136_11198.png
subject-01,1,702,1.33275198936462,bear,bird,8-3-10,0702_eid_s01_8-3-10_bird_10_n01798484_3266.png
subject-01,1,703,0.598206043243408,cat,bird,128-3-10,0703_eid_s01_128-3-10_bird_10_n02017213_15742.png
subject-01,1,704,0.738202095031738,knife,knife,4-3-10,0704_eid_s01_4-3-10_knife_10_n03041632_15431.png
subject-01,1,705,0.859947919845581,oven,oven,1-3-10,0705_eid_s01_1-3-10_oven_10_n04111531_5093.png
subject-01,1,706,0.963823080062866,bottle,truck,32-3-10,0706_eid_s01_32-3-10_truck_10_n03417042_11062.png
subject-01,1,707,1.02146792411804,bear,dog,2-3-10,0707_eid_s01_2-3-10_dog_10_n02090721_2242.png
subject-01,1,708,0.777354955673218,oven,knife,64-3-10,0708_eid_s01_64-3-10_knife_10_n03041632_18304.png
subject-01,1,709,0.805561065673828,airplane,cat,8-3-10,0709_eid_s01_8-3-10_cat_10_n02123597_10945.png
subject-01,1,710,0.89932107925415,cat,car,128-3-10,0710_eid_s01_128-3-10_car_10_n03100240_6552.png
subject-01,1,711,0.676675796508789,boat,airplane,64-3-10,0711_eid_s01_64-3-10_airplane_10_n02690373_2109.png
subject-01,1,712,0.652453899383545,chair,chair,2-3-10,0712_eid_s01_2-3-10_chair_10_n03376595_2512.png
subject-01,1,713,0.782662153244019,bottle,bottle,2-3-10,0713_eid_s01_2-3-10_bottle_10_n03937543_4964.png
subject-01,1,714,0.790165901184082,keyboard,keyboard,2-3-10,0714_eid_s01_2-3-10_keyboard_10_n03085013_19416.png
subject-01,1,715,0.854011058807373,boat,truck,64-3-10,0715_eid_s01_64-3-10_truck_10_n04467665_64792.png
subject-01,1,716,0.998205184936523,bottle,knife,2-3-10,0716_eid_s01_2-3-10_knife_10_n03041632_3781.png
subject-01,1,717,0.915655851364136,bear,keyboard,64-3-10,0717_eid_s01_64-3-10_keyboard_10_n03085013_16057.png
subject-01,1,718,1.2676568031311,airplane,elephant,64-3-10,0718_eid_s01_64-3-10_elephant_10_n02504013_6823.png
subject-01,1,719,0.707294940948486,bicycle,bird,128-3-10,0719_eid_s01_128-3-10_bird_10_n02056570_1441.png
subject-01,1,720,0.777483940124512,bottle,knife,2-3-10,0720_eid_s01_2-3-10_knife_10_n03041632_91582.png
subject-01,1,721,0.610257863998413,bear,boat,8-3-10,0721_eid_s01_8-3-10_boat_10_n02951358_4650.png
subject-01,1,722,0.627972841262817,bottle,chair,1-3-10,0722_eid_s01_1-3-10_chair_10_n02791124_8788.png
subject-01,1,723,0.780146837234497,truck,truck,4-3-10,0723_eid_s01_4-3-10_truck_10_n03417042_21758.png
subject-01,1,724,0.877650022506714,boat,elephant,64-3-10,0724_eid_s01_64-3-10_elephant_10_n02504458_6132.png
subject-01,1,725,0.953419923782349,bicycle,keyboard,64-3-10,0725_eid_s01_64-3-10_keyboard_10_n03085013_24668.png
subject-01,1,726,0.787145853042603,bird,bird,1-3-10,0726_eid_s01_1-3-10_bird_10_n01616318_6098.png
subject-01,1,727,0.861404895782471,bear,chair,128-3-10,0727_eid_s01_128-3-10_chair_10_n03376595_4033.png
subject-01,1,728,1.0788049697876,airplane,truck,2-3-10,0728_eid_s01_2-3-10_truck_10_n04467665_71055.png
subject-01,1,729,0.602576017379761,elephant,elephant,4-3-10,0729_eid_s01_4-3-10_elephant_10_n02504013_7271.png
subject-01,1,730,0.738525152206421,knife,knife,2-3-10,0730_eid_s01_2-3-10_knife_10_n03041632_50648.png
subject-01,1,731,1.00038409233093,keyboard,clock,128-3-10,0731_eid_s01_128-3-10_clock_10_n03196217_7795.png
subject-01,1,732,0.892106771469116,cat,cat,1-3-10,0732_eid_s01_1-3-10_cat_10_n02123045_5387.png
subject-01,1,733,0.653927087783813,chair,chair,1-3-10,0733_eid_s01_1-3-10_chair_10_n04099969_755.png
subject-01,1,734,1.12397503852844,bear,elephant,32-3-10,0734_eid_s01_32-3-10_elephant_10_n02504458_6398.png
subject-01,1,735,0.923518896102905,keyboard,keyboard,4-3-10,0735_eid_s01_4-3-10_keyboard_10_n03085013_9209.png
subject-01,1,736,0.767462015151978,bear,boat,16-3-10,0736_eid_s01_16-3-10_boat_10_n04612504_673.png
subject-01,1,737,0.859104871749878,bottle,bottle,2-3-10,0737_eid_s01_2-3-10_bottle_10_n04591713_2485.png
subject-01,1,738,0.847132921218872,truck,truck,4-3-10,0738_eid_s01_4-3-10_truck_10_n03417042_6654.png
subject-01,1,739,0.86522102355957,bicycle,bicycle,16-3-10,0739_eid_s01_16-3-10_bicycle_10_n02835271_1499.png
subject-01,1,740,0.828714847564697,oven,chair,128-3-10,0740_eid_s01_128-3-10_chair_10_n02791124_2600.png
subject-01,1,741,0.908447980880737,chair,bird,32-3-10,0741_eid_s01_32-3-10_bird_10_n01622779_12117.png
subject-01,1,742,1.20031309127808,bottle,dog,4-3-10,0742_eid_s01_4-3-10_dog_10_n02098105_2333.png
subject-01,1,743,1.43805003166199,bear,bird,16-3-10,0743_eid_s01_16-3-10_bird_10_n01833805_3242.png
subject-01,1,744,0.838101863861084,bird,bird,4-3-10,0744_eid_s01_4-3-10_bird_10_n02056570_4807.png
subject-01,1,745,1.04368996620178,airplane,keyboard,128-3-10,0745_eid_s01_128-3-10_keyboard_10_n04505470_4467.png
subject-01,1,746,0.89345383644104,clock,oven,32-3-10,0746_eid_s01_32-3-10_oven_10_n04111531_2027.png
subject-01,1,747,1.12753701210022,truck,clock,32-3-10,0747_eid_s01_32-3-10_clock_10_n02708093_3790.png
subject-01,1,748,0.877254962921143,knife,cat,32-3-10,0748_eid_s01_32-3-10_cat_10_n02123045_7240.png
subject-01,1,749,1.07680201530457,boat,dog,8-3-10,0749_eid_s01_8-3-10_dog_10_n02087394_239.png
subject-01,1,750,0.740755796432495,bicycle,oven,128-3-10,0750_eid_s01_128-3-10_oven_10_n04111531_14848.png
subject-01,1,751,0.780478954315186,clock,clock,1-3-10,0751_eid_s01_1-3-10_clock_10_n03196217_6707.png
subject-01,1,752,0.852281808853149,cat,cat,8-3-10,0752_eid_s01_8-3-10_cat_10_n02123394_3329.png
subject-01,1,753,0.782166004180908,bicycle,dog,32-3-10,0753_eid_s01_32-3-10_dog_10_n02093428_3667.png
subject-01,1,754,0.756006002426147,car,car,1-3-10,0754_eid_s01_1-3-10_car_10_n02814533_37110.png
subject-01,1,755,0.778123140335083,bicycle,car,32-3-10,0755_eid_s01_32-3-10_car_10_n02814533_32802.png
subject-01,1,756,1.23577690124512,truck,truck,32-3-10,0756_eid_s01_32-3-10_truck_10_n03796401_4454.png
subject-01,1,757,0.721488952636719,car,car,1-3-10,0757_eid_s01_1-3-10_car_10_n04285008_11291.png
subject-01,1,758,1.11912894248962,bird,bicycle,128-3-10,0758_eid_s01_128-3-10_bicycle_10_n02835271_14544.png
subject-01,1,759,0.948899030685425,car,truck,8-3-10,0759_eid_s01_8-3-10_truck_10_n04467665_28301.png
subject-01,1,760,0.714879989624023,bottle,bottle,2-3-10,0760_eid_s01_2-3-10_bottle_10_n02823428_4068.png
subject-01,1,761,0.612847089767456,truck,truck,4-3-10,0761_eid_s01_4-3-10_truck_10_n03417042_13013.png
subject-01,1,762,0.936849117279053,car,truck,16-3-10,0762_eid_s01_16-3-10_truck_10_n03417042_2767.png
subject-01,1,763,0.722368955612183,airplane,airplane,1-3-10,0763_eid_s01_1-3-10_airplane_10_n02690373_6332.png
subject-01,1,764,0.832031011581421,elephant,elephant,4-3-10,0764_eid_s01_4-3-10_elephant_10_n02504458_3951.png
subject-01,1,765,0.703988075256348,bicycle,bicycle,4-3-10,0765_eid_s01_4-3-10_bicycle_10_n02835271_8180.png
subject-01,1,766,0.991708040237427,elephant,elephant,1-3-10,0766_eid_s01_1-3-10_elephant_10_n02504458_6888.png
subject-01,1,767,1.06341099739075,car,car,128-3-10,0767_eid_s01_128-3-10_car_10_n03100240_5489.png
subject-01,1,768,0.965204000473022,truck,oven,4-3-10,0768_eid_s01_4-3-10_oven_10_n04111531_13520.png
subject-01,1,769,0.94534707069397,bicycle,bicycle,16-3-10,0769_eid_s01_16-3-10_bicycle_10_n02835271_1426.png
subject-01,1,770,0.67879581451416,car,car,8-3-10,0770_eid_s01_8-3-10_car_10_n02814533_31384.png
subject-01,1,771,1.04261994361877,airplane,oven,16-3-10,0771_eid_s01_16-3-10_oven_10_n04111531_2091.png
subject-01,1,772,1.2627170085907,cat,oven,64-3-10,0772_eid_s01_64-3-10_oven_10_n04111531_17507.png
subject-01,1,773,1.35275602340698,bicycle,oven,4-3-10,0773_eid_s01_4-3-10_oven_10_n04111531_6851.png
subject-01,1,774,0.676148176193237,bear,bear,4-3-10,0774_eid_s01_4-3-10_bear_10_n02134084_10112.png
subject-01,1,775,0.736324071884155,boat,boat,2-3-10,0775_eid_s01_2-3-10_boat_10_n02951358_34051.png
subject-01,1,776,0.888175964355469,bird,chair,16-3-10,0776_eid_s01_16-3-10_chair_10_n03376595_6864.png
subject-01,1,777,1.01578092575073,bottle,oven,32-3-10,0777_eid_s01_32-3-10_oven_10_n04111531_7469.png
subject-01,1,778,0.605800867080688,airplane,airplane,8-3-10,0778_eid_s01_8-3-10_airplane_10_n02690373_7535.png
subject-01,1,779,1.01714706420898,bear,bottle,32-3-10,0779_eid_s01_32-3-10_bottle_10_n02823428_8300.png
subject-01,1,780,1.42296886444092,chair,car,64-3-10,0780_eid_s01_64-3-10_car_10_n03100240_7626.png
subject-01,1,781,0.95881199836731,chair,elephant,128-3-10,0781_eid_s01_128-3-10_elephant_10_n02504458_2068.png
subject-01,1,782,0.762800931930542,oven,knife,2-3-10,0782_eid_s01_2-3-10_knife_10_n03041632_30666.png
subject-01,1,783,0.998670816421509,airplane,cat,16-3-10,0783_eid_s01_16-3-10_cat_10_n02123597_3921.png
subject-01,1,784,0.550710916519165,car,car,4-3-10,0784_eid_s01_4-3-10_car_10_n03100240_12560.png
subject-01,1,785,1.50000500679016,keyboard,knife,32-3-10,0785_eid_s01_32-3-10_knife_10_n03041632_43634.png
subject-01,1,786,1.08014893531799,keyboard,cat,128-3-10,0786_eid_s01_128-3-10_cat_10_n02125311_3438.png
subject-01,1,787,0.799807071685791,bird,bird,8-3-10,0787_eid_s01_8-3-10_bird_10_n02025239_9177.png
subject-01,1,788,0.827544927597046,oven,airplane,64-3-10,0788_eid_s01_64-3-10_airplane_10_n02690373_2162.png
subject-01,1,789,1.0235550403595,oven,boat,16-3-10,0789_eid_s01_16-3-10_boat_10_n02951358_9103.png
subject-01,1,790,0.519221067428589,cat,cat,2-3-10,0790_eid_s01_2-3-10_cat_10_n02123045_2721.png
subject-01,1,791,0.835088014602661,airplane,airplane,2-3-10,0791_eid_s01_2-3-10_airplane_10_n02690373_9762.png
subject-01,1,792,1.24322295188904,bicycle,keyboard,32-3-10,0792_eid_s01_32-3-10_keyboard_10_n03085013_20284.png
subject-01,1,793,0.652720928192139,bear,bear,2-3-10,0793_eid_s01_2-3-10_bear_10_n02134418_2254.png
subject-01,1,794,0.968791007995605,bottle,oven,8-3-10,0794_eid_s01_8-3-10_oven_10_n04111531_5802.png
subject-01,1,795,0.812273979187012,truck,boat,64-3-10,0795_eid_s01_64-3-10_boat_10_n02951358_35073.png
subject-01,1,796,0.958291053771973,bicycle,elephant,64-3-10,0796_eid_s01_64-3-10_elephant_10_n02504458_6130.png
subject-01,1,797,0.921987056732178,chair,bicycle,32-3-10,0797_eid_s01_32-3-10_bicycle_10_n02835271_15601.png
subject-01,1,798,1.24581384658813,elephant,bicycle,64-3-10,0798_eid_s01_64-3-10_bicycle_10_n03792782_20007.png
subject-01,1,799,1.50014591217041,boat,boat,64-3-10,0799_eid_s01_64-3-10_boat_10_n02951358_4544.png
subject-01,1,800,1.22541880607605,airplane,bicycle,32-3-10,0800_eid_s01_32-3-10_bicycle_10_n02835271_4160.png
subject-01,1,801,0.663244009017944,bird,bird,8-3-10,0801_eid_s01_8-3-10_bird_10_n01622779_6459.png
subject-01,1,802,0.711043119430542,bottle,bottle,1-3-10,0802_eid_s01_1-3-10_bottle_10_n03937543_2677.png
subject-01,1,803,0.73471212387085,cat,keyboard,64-3-10,0803_eid_s01_64-3-10_keyboard_10_n03085013_20852.png
subject-01,1,804,1.04680109024048,oven,knife,4-3-10,0804_eid_s01_4-3-10_knife_10_n03041632_19971.png
subject-01,1,805,0.870495080947876,car,car,16-3-10,0805_eid_s01_16-3-10_car_10_n02814533_8025.png
subject-01,1,806,0.680402040481567,bear,bear,16-3-10,0806_eid_s01_16-3-10_bear_10_n02133161_3850.png
subject-01,1,807,1.05600214004517,elephant,clock,16-3-10,0807_eid_s01_16-3-10_clock_10_n04548280_1041.png
subject-01,1,808,0.921940088272095,clock,chair,8-3-10,0808_eid_s01_8-3-10_chair_10_n02791124_2035.png
subject-01,1,809,0.794194936752319,oven,oven,1-3-10,0809_eid_s01_1-3-10_oven_10_n04111531_22834.png
subject-01,1,810,0.749454021453857,bear,bear,8-3-10,0810_eid_s01_8-3-10_bear_10_n02132136_1694.png
subject-01,1,811,0.863377809524536,bottle,airplane,128-3-10,0811_eid_s01_128-3-10_airplane_10_n02690373_4943.png
subject-01,1,812,0.983232975006104,bear,chair,16-3-10,0812_eid_s01_16-3-10_chair_10_n02791124_206.png
subject-01,1,813,0.853046894073486,oven,clock,2-3-10,0813_eid_s01_2-3-10_clock_10_n03196217_7759.png
subject-01,1,814,1.11482000350952,knife,oven,2-3-10,0814_eid_s01_2-3-10_oven_10_n04111531_20591.png
subject-01,1,815,0.952642917633057,dog,knife,128-3-10,0815_eid_s01_128-3-10_knife_10_n03041632_7119.png
subject-01,1,816,1.15631198883057,keyboard,boat,64-3-10,0816_eid_s01_64-3-10_boat_10_n04612504_5489.png
subject-01,1,817,0.790612936019897,oven,knife,8-3-10,0817_eid_s01_8-3-10_knife_10_n03041632_94620.png
subject-01,1,818,1.13813996315002,bear,elephant,2-3-10,0818_eid_s01_2-3-10_elephant_10_n02504013_3433.png
subject-01,1,819,1.15577793121338,bicycle,airplane,128-3-10,0819_eid_s01_128-3-10_airplane_10_n02690373_845.png
subject-01,1,820,0.961580038070679,clock,chair,4-3-10,0820_eid_s01_4-3-10_chair_10_n04429376_11383.png
subject-01,1,821,0.843400001525879,dog,chair,32-3-10,0821_eid_s01_32-3-10_chair_10_n02791124_2611.png
subject-01,1,822,1.03128600120544,dog,bear,16-3-10,0822_eid_s01_16-3-10_bear_10_n02134084_9307.png
subject-01,1,823,1.1272439956665,bird,boat,128-3-10,0823_eid_s01_128-3-10_boat_10_n02951358_34418.png
subject-01,1,824,1.06686091423035,boat,keyboard,32-3-10,0824_eid_s01_32-3-10_keyboard_10_n03085013_15484.png
subject-01,1,825,0.757055044174194,elephant,elephant,4-3-10,0825_eid_s01_4-3-10_elephant_10_n02504013_8270.png
subject-01,1,826,0.854413032531738,bear,elephant,16-3-10,0826_eid_s01_16-3-10_elephant_10_n02504013_2431.png
subject-01,1,827,1.27851605415344,oven,clock,16-3-10,0827_eid_s01_16-3-10_clock_10_n04548280_6134.png
subject-01,1,828,0.680212020874023,keyboard,keyboard,2-3-10,0828_eid_s01_2-3-10_keyboard_10_n03085013_7858.png
subject-01,1,829,1.38414001464844,truck,bear,32-3-10,0829_eid_s01_32-3-10_bear_10_n02134084_3479.png
subject-01,1,830,0.939762115478516,dog,bicycle,32-3-10,0830_eid_s01_32-3-10_bicycle_10_n03792782_63201.png
subject-01,1,831,0.819798946380615,airplane,airplane,1-3-10,0831_eid_s01_1-3-10_airplane_10_n02690373_1235.png
subject-01,1,832,0.96744704246521,bear,keyboard,128-3-10,0832_eid_s01_128-3-10_keyboard_10_n03085013_20837.png
subject-01,1,833,0.733167886734009,bird,dog,16-3-10,0833_eid_s01_16-3-10_dog_10_n02111129_1065.png
subject-01,1,834,1.21297287940979,airplane,knife,16-3-10,0834_eid_s01_16-3-10_knife_10_n03041632_52371.png
subject-01,1,835,0.832940101623535,airplane,airplane,2-3-10,0835_eid_s01_2-3-10_airplane_10_n02690373_4024.png
subject-01,1,836,0.644645929336548,car,car,4-3-10,0836_eid_s01_4-3-10_car_10_n02814533_45150.png
subject-01,1,837,0.824851036071777,truck,truck,1-3-10,0837_eid_s01_1-3-10_truck_10_n03417042_4761.png
subject-01,1,838,0.954310894012451,car,cat,8-3-10,0838_eid_s01_8-3-10_cat_10_n02123597_9901.png
subject-01,1,839,0.772040128707886,car,bicycle,16-3-10,0839_eid_s01_16-3-10_bicycle_10_n02835271_4246.png
subject-01,1,840,0.751856088638306,airplane,airplane,4-3-10,0840_eid_s01_4-3-10_airplane_10_n02690373_744.png
subject-01,1,841,0.709934949874878,chair,chair,4-3-10,0841_eid_s01_4-3-10_chair_10_n04099969_195.png
subject-01,1,842,0.891485929489136,boat,bird,128-3-10,0842_eid_s01_128-3-10_bird_10_n01560419_5447.png
subject-01,1,843,0.921340942382812,keyboard,clock,128-3-10,0843_eid_s01_128-3-10_clock_10_n03196217_1079.png
subject-01,1,844,0.665008068084717,clock,clock,8-3-10,0844_eid_s01_8-3-10_clock_10_n02708093_2717.png
subject-01,1,845,0.770966053009033,cat,cat,1-3-10,0845_eid_s01_1-3-10_cat_10_n02123159_4519.png
subject-01,1,846,0.960725069046021,elephant,elephant,8-3-10,0846_eid_s01_8-3-10_elephant_10_n02504013_812.png
subject-01,1,847,0.748667001724243,keyboard,keyboard,1-3-10,0847_eid_s01_1-3-10_keyboard_10_n03085013_2594.png
subject-01,1,848,1.36832594871521,keyboard,keyboard,1-3-10,0848_eid_s01_1-3-10_keyboard_10_n03085013_20709.png
subject-01,1,849,1.19254088401794,clock,cat,64-3-10,0849_eid_s01_64-3-10_cat_10_n02125311_17933.png
subject-01,1,850,0.794023036956787,bear,bear,1-3-10,0850_eid_s01_1-3-10_bear_10_n02133161_1656.png
subject-01,1,851,1.21997594833374,oven,truck,2-3-10,0851_eid_s01_2-3-10_truck_10_n03417042_94.png
subject-01,1,852,0.965796947479248,cat,bicycle,64-3-10,0852_eid_s01_64-3-10_bicycle_10_n02835271_262.png
subject-01,1,853,0.931662082672119,dog,chair,64-3-10,0853_eid_s01_64-3-10_chair_10_n02791124_15756.png
subject-01,1,854,0.887290954589844,airplane,elephant,128-3-10,0854_eid_s01_128-3-10_elephant_10_n02504013_13223.png
subject-01,1,855,0.80115795135498,keyboard,keyboard,4-3-10,0855_eid_s01_4-3-10_keyboard_10_n04505470_2378.png
subject-01,1,856,0.803148031234741,bird,bottle,16-3-10,0856_eid_s01_16-3-10_bottle_10_n04560804_15967.png
subject-01,1,857,0.88074803352356,boat,clock,16-3-10,0857_eid_s01_16-3-10_clock_10_n02708093_6857.png
subject-01,1,858,1.17689418792725,airplane,airplane,2-3-10,0858_eid_s01_2-3-10_airplane_10_n02690373_6665.png
subject-01,1,859,0.868339061737061,car,bottle,64-3-10,0859_eid_s01_64-3-10_bottle_10_n04591713_6164.png
subject-01,1,860,0.744140863418579,bear,bear,1-3-10,0860_eid_s01_1-3-10_bear_10_n02133161_4223.png
subject-01,1,861,0.960108995437622,bicycle,bicycle,4-3-10,0861_eid_s01_4-3-10_bicycle_10_n03792782_6152.png
subject-01,1,862,1.40970492362976,oven,oven,2-3-10,0862_eid_s01_2-3-10_oven_10_n04111531_8269.png
subject-01,1,863,0.693516969680786,boat,cat,128-3-10,0863_eid_s01_128-3-10_cat_10_n02123394_6505.png
subject-01,1,864,0.771687030792236,car,car,1-3-10,0864_eid_s01_1-3-10_car_10_n04285008_16856.png
subject-01,1,865,0.805577039718628,knife,knife,4-3-10,0865_eid_s01_4-3-10_knife_10_n03041632_4443.png
subject-01,1,866,0.629032135009766,boat,boat,2-3-10,0866_eid_s01_2-3-10_boat_10_n02951358_3556.png
subject-01,1,867,1.01922297477722,bear,oven,8-3-10,0867_eid_s01_8-3-10_oven_10_n04111531_1002.png
subject-01,1,868,0.648796081542969,cat,cat,1-3-10,0868_eid_s01_1-3-10_cat_10_n02123159_4157.png
subject-01,1,869,0.878548860549927,bear,bird,32-3-10,0869_eid_s01_32-3-10_bird_10_n01824575_1765.png
subject-01,1,870,1.122309923172,bottle,truck,64-3-10,0870_eid_s01_64-3-10_truck_10_n03417042_25947.png
subject-01,1,871,1.24599385261536,keyboard,car,128-3-10,0871_eid_s01_128-3-10_car_10_n03100240_688.png
subject-01,1,872,1.16398692131042,keyboard,chair,128-3-10,0872_eid_s01_128-3-10_chair_10_n04099969_44784.png
subject-01,1,873,1.07588791847229,airplane,knife,16-3-10,0873_eid_s01_16-3-10_knife_10_n03041632_47234.png
subject-01,1,874,1.45353293418884,dog,dog,8-3-10,0874_eid_s01_8-3-10_dog_10_n02099267_15002.png
subject-01,1,875,0.90543794631958,cat,bird,64-3-10,0875_eid_s01_64-3-10_bird_10_n01796340_1230.png
subject-01,1,876,0.831623077392578,keyboard,oven,1-3-10,0876_eid_s01_1-3-10_oven_10_n04111531_9308.png
subject-01,1,877,1.09142994880676,oven,oven,2-3-10,0877_eid_s01_2-3-10_oven_10_n04111531_15367.png
subject-01,1,878,0.922928094863892,knife,knife,1-3-10,0878_eid_s01_1-3-10_knife_10_n03041632_36247.png
subject-01,1,879,0.988569974899292,oven,chair,1-3-10,0879_eid_s01_1-3-10_chair_10_n02791124_1788.png
subject-01,1,880,0.628427028656006,bottle,bottle,2-3-10,0880_eid_s01_2-3-10_bottle_10_n03937543_6003.png
subject-01,1,881,0.785254001617432,bottle,chair,4-3-10,0881_eid_s01_4-3-10_chair_10_n04429376_12617.png
subject-01,1,882,0.967057943344116,keyboard,knife,128-3-10,0882_eid_s01_128-3-10_knife_10_n03041632_18468.png
subject-01,1,883,1.08680391311646,bird,chair,32-3-10,0883_eid_s01_32-3-10_chair_10_n02791124_9216.png
subject-01,1,884,0.716578960418701,clock,clock,8-3-10,0884_eid_s01_8-3-10_clock_10_n04548280_6477.png
subject-01,1,885,0.674445867538452,truck,truck,1-3-10,0885_eid_s01_1-3-10_truck_10_n03417042_7869.png
subject-01,1,886,0.948198080062866,truck,airplane,16-3-10,0886_eid_s01_16-3-10_airplane_10_n02690373_3753.png
subject-01,1,887,0.944087028503418,bear,knife,32-3-10,0887_eid_s01_32-3-10_knife_10_n03041632_27963.png
subject-01,1,888,0.799953937530518,boat,dog,32-3-10,0888_eid_s01_32-3-10_dog_10_n02108422_577.png
subject-01,1,889,0.747528076171875,elephant,elephant,1-3-10,0889_eid_s01_1-3-10_elephant_10_n02504013_6615.png
subject-01,1,890,1.04358005523682,cat,cat,4-3-10,0890_eid_s01_4-3-10_cat_10_n02124075_2113.png
subject-01,1,891,0.735227108001709,cat,cat,8-3-10,0891_eid_s01_8-3-10_cat_10_n02123045_8636.png
subject-01,1,892,1.05309891700745,elephant,bear,16-3-10,0892_eid_s01_16-3-10_bear_10_n02132136_1211.png
subject-01,1,893,0.859237909317017,dog,dog,1-3-10,0893_eid_s01_1-3-10_dog_10_n02097658_816.png
subject-01,1,894,0.944686889648438,dog,bird,16-3-10,0894_eid_s01_16-3-10_bird_10_n02006656_6688.png
subject-01,1,895,0.722575187683105,cat,cat,2-3-10,0895_eid_s01_2-3-10_cat_10_n02124075_7932.png
subject-01,1,896,1.29629397392273,bear,elephant,64-3-10,0896_eid_s01_64-3-10_elephant_10_n02504013_3418.png
subject-01,1,897,0.968514204025269,bicycle,bicycle,2-3-10,0897_eid_s01_2-3-10_bicycle_10_n02835271_6641.png
subject-01,1,898,0.900032043457031,oven,keyboard,128-3-10,0898_eid_s01_128-3-10_keyboard_10_n03085013_24399.png
subject-01,1,899,0.757737159729004,bottle,clock,1-3-10,0899_eid_s01_1-3-10_clock_10_n03196217_3022.png
subject-01,1,900,1.20366978645325,bird,bicycle,32-3-10,0900_eid_s01_32-3-10_bicycle_10_n02835271_12025.png
subject-01,1,901,1.46938610076904,airplane,elephant,32-3-10,0901_eid_s01_32-3-10_elephant_10_n02504458_1211.png
subject-01,1,902,1.36118292808533,keyboard,keyboard,128-3-10,0902_eid_s01_128-3-10_keyboard_10_n03085013_7879.png
subject-01,1,903,1.02100396156311,car,clock,128-3-10,0903_eid_s01_128-3-10_clock_10_n04548280_1535.png
subject-01,1,904,1.17285490036011,truck,bird,128-3-10,0904_eid_s01_128-3-10_bird_10_n01798484_7213.png
subject-01,1,905,1.01711893081665,knife,elephant,16-3-10,0905_eid_s01_16-3-10_elephant_10_n02504458_3172.png
subject-01,1,906,1.27075505256653,oven,bird,16-3-10,0906_eid_s01_16-3-10_bird_10_n02028035_2478.png
subject-01,1,907,0.822407960891724,clock,clock,2-3-10,0907_eid_s01_2-3-10_clock_10_n04548280_4583.png
subject-01,1,908,0.900038957595825,bottle,chair,2-3-10,0908_eid_s01_2-3-10_chair_10_n02791124_2649.png
subject-01,1,909,1.05174899101257,boat,bird,32-3-10,0909_eid_s01_32-3-10_bird_10_n02002724_1235.png
subject-01,1,910,0.837549924850464,bear,truck,128-3-10,0910_eid_s01_128-3-10_truck_10_n03796401_6977.png
subject-01,1,911,1.01367402076721,truck,oven,1-3-10,0911_eid_s01_1-3-10_oven_10_n04111531_8350.png
subject-01,1,912,0.911444902420044,bear,dog,8-3-10,0912_eid_s01_8-3-10_dog_10_n02113624_8833.png
subject-01,1,913,1.20519399642944,oven,keyboard,8-3-10,0913_eid_s01_8-3-10_keyboard_10_n03085013_19512.png
subject-01,1,914,0.823019981384277,boat,truck,16-3-10,0914_eid_s01_16-3-10_truck_10_n03796401_4311.png
subject-01,1,915,1.09876108169556,car,oven,16-3-10,0915_eid_s01_16-3-10_oven_10_n04111531_23668.png
subject-01,1,916,1.03643798828125,airplane,oven,64-3-10,0916_eid_s01_64-3-10_oven_10_n04111531_807.png
subject-01,1,917,0.856437921524048,bicycle,bicycle,2-3-10,0917_eid_s01_2-3-10_bicycle_10_n02835271_3956.png
subject-01,1,918,1.19614100456238,truck,cat,64-3-10,0918_eid_s01_64-3-10_cat_10_n02125311_2869.png
subject-01,1,919,1.09611511230469,oven,elephant,128-3-10,0919_eid_s01_128-3-10_elephant_10_n02504013_6141.png
subject-01,1,920,0.855897903442383,cat,cat,32-3-10,0920_eid_s01_32-3-10_cat_10_n02123045_7248.png
subject-01,1,921,1.00573515892029,chair,elephant,32-3-10,0921_eid_s01_32-3-10_elephant_10_n02504013_4295.png
subject-01,1,922,0.759480953216553,cat,dog,32-3-10,0922_eid_s01_32-3-10_dog_10_n02107574_5583.png
subject-01,1,923,1.00723004341125,car,oven,32-3-10,0923_eid_s01_32-3-10_oven_10_n04111531_14325.png
subject-01,1,924,1.0491509437561,dog,dog,16-3-10,0924_eid_s01_16-3-10_dog_10_n02089867_6106.png
subject-01,1,925,0.987327098846436,keyboard,keyboard,16-3-10,0925_eid_s01_16-3-10_keyboard_10_n04505470_2737.png
subject-01,1,926,1.19460082054138,bear,bird,16-3-10,0926_eid_s01_16-3-10_bird_10_n02011460_23755.png
subject-01,1,927,1.2445981502533,chair,bear,32-3-10,0927_eid_s01_32-3-10_bear_10_n02134084_22032.png
subject-01,1,928,0.936403036117554,knife,bird,2-3-10,0928_eid_s01_2-3-10_bird_10_n01855672_19945.png
subject-01,1,929,0.968166828155518,dog,dog,16-3-10,0929_eid_s01_16-3-10_dog_10_n02101388_2177.png
subject-01,1,930,0.863983154296875,cat,knife,32-3-10,0930_eid_s01_32-3-10_knife_10_n03041632_23667.png
subject-01,1,931,0.717698097229004,car,car,2-3-10,0931_eid_s01_2-3-10_car_10_n02814533_61501.png
subject-01,1,932,0.973468065261841,oven,knife,2-3-10,0932_eid_s01_2-3-10_knife_10_n03041632_8321.png
subject-01,1,933,0.82738208770752,knife,knife,4-3-10,0933_eid_s01_4-3-10_knife_10_n03041632_126.png
subject-01,1,934,0.845185995101929,dog,chair,64-3-10,0934_eid_s01_64-3-10_chair_10_n04429376_22670.png
subject-01,1,935,0.893098831176758,oven,oven,2-3-10,0935_eid_s01_2-3-10_oven_10_n04111531_6958.png
subject-01,1,936,1.20090103149414,boat,dog,32-3-10,0936_eid_s01_32-3-10_dog_10_n02109961_53644.png
subject-01,1,937,0.93475604057312,airplane,airplane,16-3-10,0937_eid_s01_16-3-10_airplane_10_n02690373_1038.png
subject-01,1,938,1.18057894706726,elephant,airplane,32-3-10,0938_eid_s01_32-3-10_airplane_10_n02690373_8815.png
subject-01,1,939,1.00838494300842,chair,bird,128-3-10,0939_eid_s01_128-3-10_bird_10_n02002556_5393.png
subject-01,1,940,1.20422506332397,bicycle,oven,16-3-10,0940_eid_s01_16-3-10_oven_10_n04111531_8537.png
subject-01,1,941,0.762048006057739,boat,boat,2-3-10,0941_eid_s01_2-3-10_boat_10_n03344393_3219.png
subject-01,1,942,1.29181909561157,dog,dog,16-3-10,0942_eid_s01_16-3-10_dog_10_n02112350_4795.png
subject-01,1,943,1.0535728931427,dog,bird,32-3-10,0943_eid_s01_32-3-10_bird_10_n01531178_24471.png
subject-01,1,944,0.759225130081177,car,car,16-3-10,0944_eid_s01_16-3-10_car_10_n02814533_12310.png
subject-01,1,945,1.02112603187561,boat,boat,16-3-10,0945_eid_s01_16-3-10_boat_10_n03344393_7308.png
subject-01,1,946,1.43307709693909,car,car,8-3-10,0946_eid_s01_8-3-10_car_10_n04285008_2395.png
subject-01,1,947,0.868714094161987,truck,truck,4-3-10,0947_eid_s01_4-3-10_truck_10_n04467665_10122.png
subject-01,1,948,0.846652984619141,airplane,airplane,16-3-10,0948_eid_s01_16-3-10_airplane_10_n02690373_848.png
subject-01,1,949,1.06848907470703,cat,boat,32-3-10,0949_eid_s01_32-3-10_boat_10_n04273569_9604.png
subject-01,1,950,1.16228079795837,bear,knife,64-3-10,0950_eid_s01_64-3-10_knife_10_n03041632_19571.png
subject-01,1,951,1.13196301460266,elephant,knife,8-3-10,0951_eid_s01_8-3-10_knife_10_n03041632_30958.png
subject-01,1,952,0.979844808578491,airplane,airplane,8-3-10,0952_eid_s01_8-3-10_airplane_10_n02690373_945.png
subject-01,1,953,1.32773900032043,bottle,clock,16-3-10,0953_eid_s01_16-3-10_clock_10_n04548280_8171.png
subject-01,1,954,1.04133677482605,keyboard,boat,128-3-10,0954_eid_s01_128-3-10_boat_10_n04273569_229.png
subject-01,1,955,1.21513891220093,chair,bicycle,4-3-10,0955_eid_s01_4-3-10_bicycle_10_n02835271_8618.png
subject-01,1,956,0.719340801239014,cat,boat,64-3-10,0956_eid_s01_64-3-10_boat_10_n04612504_3379.png
subject-01,1,957,0.946747064590454,elephant,elephant,1-3-10,0957_eid_s01_1-3-10_elephant_10_n02504458_7506.png
subject-01,1,958,0.682799100875854,cat,airplane,32-3-10,0958_eid_s01_32-3-10_airplane_10_n02690373_5130.png
subject-01,1,959,1.50010991096497,bear,boat,8-3-10,0959_eid_s01_8-3-10_boat_10_n03662601_17352.png
subject-01,1,960,1.04823994636536,oven,boat,32-3-10,0960_eid_s01_32-3-10_boat_10_n02951358_15413.png
subject-01,1,961,0.702263116836548,airplane,airplane,8-3-10,0961_eid_s01_8-3-10_airplane_10_n02690373_2851.png
subject-01,1,962,0.811848163604736,bicycle,bicycle,32-3-10,0962_eid_s01_32-3-10_bicycle_10_n03792782_11804.png
subject-01,1,963,1.06381297111511,oven,truck,16-3-10,0963_eid_s01_16-3-10_truck_10_n04467665_67726.png
subject-01,1,964,1.15371203422546,boat,boat,4-3-10,0964_eid_s01_4-3-10_boat_10_n03344393_3518.png
subject-01,1,965,0.459790945053101,cat,cat,2-3-10,0965_eid_s01_2-3-10_cat_10_n02123394_3339.png
subject-01,1,966,0.845540046691895,keyboard,bicycle,128-3-10,0966_eid_s01_128-3-10_bicycle_10_n02835271_3941.png
subject-01,1,967,0.871020078659058,bird,airplane,32-3-10,0967_eid_s01_32-3-10_airplane_10_n02690373_629.png
subject-01,1,968,1.08669495582581,truck,oven,64-3-10,0968_eid_s01_64-3-10_oven_10_n04111531_14178.png
