subj,Session,trial,rt,object_response,category,condition,imagename
subject-04,1,1,1.08663988113403,bear,dog,8-3-10,0001_eid_s04_8-3-10_dog_10_n02113624_8833.png
subject-04,1,2,1.24060893058777,bear,keyboard,64-3-10,0002_eid_s04_64-3-10_keyboard_10_n03085013_20852.png
subject-04,1,3,0.906409978866577,elephant,cat,64-3-10,0003_eid_s04_64-3-10_cat_10_n02123394_2153.png
subject-04,1,4,1.24826312065125,oven,oven,64-3-10,0004_eid_s04_64-3-10_oven_10_n04111531_2922.png
subject-04,1,5,1.50001311302185,bottle,knife,1-3-10,0005_eid_s04_1-3-10_knife_10_n03041632_29801.png
subject-04,1,6,NaN,na,knife,2-3-10,0006_eid_s04_2-3-10_knife_10_n03041632_43436.png
subject-04,1,7,1.19963192939758,elephant,boat,32-3-10,0007_eid_s04_32-3-10_boat_10_n03344393_2142.png
subject-04,1,8,0.815458059310913,elephant,keyboard,32-3-10,0008_eid_s04_32-3-10_keyboard_10_n04505470_5109.png
subject-04,1,9,0.871419191360474,bicycle,bicycle,4-3-10,0009_eid_s04_4-3-10_bicycle_10_n03792782_6152.png
subject-04,1,10,1.03110218048096,boat,boat,1-3-10,0010_eid_s04_1-3-10_boat_10_n03662601_34796.png
subject-04,1,11,1.16304612159729,bear,chair,16-3-10,0011_eid_s04_16-3-10_chair_10_n03376595_6986.png
subject-04,1,12,1.37870502471924,cat,car,64-3-10,0012_eid_s04_64-3-10_car_10_n04285008_8113.png
subject-04,1,13,1.43067502975464,dog,dog,64-3-10,0013_eid_s04_64-3-10_dog_10_n02087046_15420.png
subject-04,1,14,1.40647506713867,bottle,bottle,4-3-10,0014_eid_s04_4-3-10_bottle_10_n04557648_11642.png
subject-04,1,15,0.860095024108887,oven,truck,128-3-10,0015_eid_s04_128-3-10_truck_10_n03417042_13871.png
subject-04,1,16,0.780023097991943,knife,knife,1-3-10,0016_eid_s04_1-3-10_knife_10_n03041632_23129.png
subject-04,1,17,1.24389100074768,elephant,keyboard,32-3-10,0017_eid_s04_32-3-10_keyboard_10_n03085013_24336.png
subject-04,1,18,0.71769905090332,airplane,airplane,2-3-10,0018_eid_s04_2-3-10_airplane_10_n02690373_6978.png
subject-04,1,19,0.893533945083618,keyboard,clock,128-3-10,0019_eid_s04_128-3-10_clock_10_n04548280_4364.png
subject-04,1,20,0.695158004760742,bottle,bottle,1-3-10,0020_eid_s04_1-3-10_bottle_10_n04560804_32760.png
subject-04,1,21,0.791264057159424,oven,clock,64-3-10,0021_eid_s04_64-3-10_clock_10_n02708093_4893.png
subject-04,1,22,0.701092004776001,oven,clock,128-3-10,0022_eid_s04_128-3-10_clock_10_n02708093_3638.png
subject-04,1,23,0.813020944595337,cat,bear,8-3-10,0023_eid_s04_8-3-10_bear_10_n02133161_13556.png
subject-04,1,24,1.1863968372345,bear,truck,64-3-10,0024_eid_s04_64-3-10_truck_10_n04467665_64792.png
subject-04,1,25,1.1666259765625,boat,airplane,32-3-10,0025_eid_s04_32-3-10_airplane_10_n02690373_2619.png
subject-04,1,26,0.778120040893555,knife,knife,4-3-10,0026_eid_s04_4-3-10_knife_10_n03041632_15431.png
subject-04,1,27,0.877846002578735,chair,chair,1-3-10,0027_eid_s04_1-3-10_chair_10_n03376595_1149.png
subject-04,1,28,1.07975506782532,elephant,keyboard,128-3-10,0028_eid_s04_128-3-10_keyboard_10_n03085013_7879.png
subject-04,1,29,0.795512914657593,cat,bottle,64-3-10,0029_eid_s04_64-3-10_bottle_10_n03937543_2232.png
subject-04,1,30,1.10134506225586,cat,clock,128-3-10,0030_eid_s04_128-3-10_clock_10_n04548280_1535.png
subject-04,1,31,1.20905017852783,dog,cat,128-3-10,0031_eid_s04_128-3-10_cat_10_n02123045_9492.png
subject-04,1,32,1.37508583068848,bear,bottle,64-3-10,0032_eid_s04_64-3-10_bottle_10_n02823428_6793.png
subject-04,1,33,0.932920932769775,cat,boat,16-3-10,0033_eid_s04_16-3-10_boat_10_n04273569_10665.png
subject-04,1,34,1.5001208782196,oven,airplane,128-3-10,0034_eid_s04_128-3-10_airplane_10_n02690373_8740.png
subject-04,1,35,1.50014209747314,dog,boat,16-3-10,0035_eid_s04_16-3-10_boat_10_n02951358_1360.png
subject-04,1,36,1.21034002304077,car,oven,2-3-10,0036_eid_s04_2-3-10_oven_10_n04111531_6298.png
subject-04,1,37,0.93608283996582,elephant,airplane,128-3-10,0037_eid_s04_128-3-10_airplane_10_n02690373_4943.png
subject-04,1,38,1.50000286102295,bottle,bottle,1-3-10,0038_eid_s04_1-3-10_bottle_10_n03937543_2677.png
subject-04,1,39,0.981834888458252,boat,boat,16-3-10,0039_eid_s04_16-3-10_boat_10_n03344393_9712.png
subject-04,1,40,1.33154821395874,boat,airplane,128-3-10,0040_eid_s04_128-3-10_airplane_10_n02690373_9531.png
subject-04,1,41,1.50000309944153,knife,dog,128-3-10,0041_eid_s04_128-3-10_dog_10_n02095889_1087.png
subject-04,1,42,1.30116820335388,chair,bird,8-3-10,0042_eid_s04_8-3-10_bird_10_n02056570_9935.png
subject-04,1,43,1.27505803108215,oven,cat,128-3-10,0043_eid_s04_128-3-10_cat_10_n02125311_2622.png
subject-04,1,44,1.06869983673096,cat,chair,8-3-10,0044_eid_s04_8-3-10_chair_10_n04099969_72.png
subject-04,1,45,0.878635168075562,cat,cat,2-3-10,0045_eid_s04_2-3-10_cat_10_n02123394_2553.png
subject-04,1,46,0.766386032104492,boat,airplane,8-3-10,0046_eid_s04_8-3-10_airplane_10_n02690373_18864.png
subject-04,1,47,0.858070135116577,chair,clock,1-3-10,0047_eid_s04_1-3-10_clock_10_n04548280_5327.png
subject-04,1,48,0.853893995285034,airplane,airplane,4-3-10,0048_eid_s04_4-3-10_airplane_10_n02690373_9605.png
subject-04,1,49,1.2979109287262,dog,dog,2-3-10,0049_eid_s04_2-3-10_dog_10_n02090721_2242.png
subject-04,1,50,1.19958114624023,airplane,airplane,4-3-10,0050_eid_s04_4-3-10_airplane_10_n02690373_1996.png
subject-04,1,51,1.25933504104614,keyboard,keyboard,8-3-10,0051_eid_s04_8-3-10_keyboard_10_n03085013_15504.png
subject-04,1,52,1.29520297050476,bottle,airplane,128-3-10,0052_eid_s04_128-3-10_airplane_10_n02690373_845.png
subject-04,1,53,1.18310594558716,cat,oven,32-3-10,0053_eid_s04_32-3-10_oven_10_n04111531_681.png
subject-04,1,54,1.17890095710754,boat,car,16-3-10,0054_eid_s04_16-3-10_car_10_n02814533_32337.png
subject-04,1,55,0.90293288230896,cat,bear,32-3-10,0055_eid_s04_32-3-10_bear_10_n02134084_3479.png
subject-04,1,56,1.23449277877808,oven,bottle,4-3-10,0056_eid_s04_4-3-10_bottle_10_n04579145_6678.png
subject-04,1,57,0.84032416343689,knife,knife,8-3-10,0057_eid_s04_8-3-10_knife_10_n03041632_44738.png
subject-04,1,58,1.50008702278137,dog,boat,128-3-10,0058_eid_s04_128-3-10_boat_10_n03344393_6352.png
subject-04,1,59,1.50006198883057,bear,chair,16-3-10,0059_eid_s04_16-3-10_chair_10_n04429376_17917.png
subject-04,1,60,1.391597032547,oven,bird,128-3-10,0060_eid_s04_128-3-10_bird_10_n01560419_5447.png
subject-04,1,61,1.02173590660095,elephant,car,64-3-10,0061_eid_s04_64-3-10_car_10_n03100240_9101.png
subject-04,1,62,1.28140711784363,cat,elephant,16-3-10,0062_eid_s04_16-3-10_elephant_10_n02504013_4590.png
subject-04,1,63,NaN,na,bottle,16-3-10,0063_eid_s04_16-3-10_bottle_10_n04557648_4470.png
subject-04,1,64,1.42724013328552,keyboard,car,128-3-10,0064_eid_s04_128-3-10_car_10_n02814533_5888.png
subject-04,1,65,1.3828399181366,bottle,bear,16-3-10,0065_eid_s04_16-3-10_bear_10_n02134084_9307.png
subject-04,1,66,1.2388858795166,bear,keyboard,64-3-10,0066_eid_s04_64-3-10_keyboard_10_n03085013_24668.png
subject-04,1,67,0.696424961090088,clock,clock,1-3-10,0067_eid_s04_1-3-10_clock_10_n03196217_5399.png
subject-04,1,68,1.17221117019653,clock,knife,8-3-10,0068_eid_s04_8-3-10_knife_10_n03041632_94620.png
subject-04,1,69,0.998054981231689,bear,dog,32-3-10,0069_eid_s04_32-3-10_dog_10_n02108422_577.png
subject-04,1,70,0.965935945510864,bear,bear,1-3-10,0070_eid_s04_1-3-10_bear_10_n02133161_2851.png
subject-04,1,71,1.13208699226379,oven,elephant,4-3-10,0071_eid_s04_4-3-10_elephant_10_n02504458_1933.png
subject-04,1,72,0.855453968048096,car,car,8-3-10,0072_eid_s04_8-3-10_car_10_n02814533_3573.png
subject-04,1,73,1.17930293083191,cat,oven,16-3-10,0073_eid_s04_16-3-10_oven_10_n04111531_14758.png
subject-04,1,74,0.763421058654785,chair,chair,1-3-10,0074_eid_s04_1-3-10_chair_10_n04429376_18585.png
subject-04,1,75,1.15487313270569,cat,oven,64-3-10,0075_eid_s04_64-3-10_oven_10_n04111531_807.png
subject-04,1,76,0.754781007766724,bicycle,bicycle,2-3-10,0076_eid_s04_2-3-10_bicycle_10_n02835271_158.png
subject-04,1,77,0.744683980941772,car,truck,4-3-10,0077_eid_s04_4-3-10_truck_10_n04467665_58158.png
subject-04,1,78,1.09248900413513,truck,truck,8-3-10,0078_eid_s04_8-3-10_truck_10_n03417042_25458.png
subject-04,1,79,1.10450196266174,car,car,8-3-10,0079_eid_s04_8-3-10_car_10_n04285008_17059.png
subject-04,1,80,1.50014400482178,oven,airplane,16-3-10,0080_eid_s04_16-3-10_airplane_10_n02690373_7600.png
subject-04,1,81,0.801291942596436,oven,chair,64-3-10,0081_eid_s04_64-3-10_chair_10_n04099969_3430.png
subject-04,1,82,1.23715806007385,oven,bear,32-3-10,0082_eid_s04_32-3-10_bear_10_n02132136_1795.png
subject-04,1,83,1.49464797973633,oven,chair,64-3-10,0083_eid_s04_64-3-10_chair_10_n04099969_13789.png
subject-04,1,84,0.766871929168701,boat,boat,2-3-10,0084_eid_s04_2-3-10_boat_10_n03344393_10038.png
subject-04,1,85,0.920841932296753,truck,truck,1-3-10,0085_eid_s04_1-3-10_truck_10_n03417042_3845.png
subject-04,1,86,0.730173110961914,bicycle,airplane,64-3-10,0086_eid_s04_64-3-10_airplane_10_n02690373_2162.png
subject-04,1,87,1.09441494941711,oven,cat,32-3-10,0087_eid_s04_32-3-10_cat_10_n02123045_7240.png
subject-04,1,88,0.94380521774292,bear,elephant,64-3-10,0088_eid_s04_64-3-10_elephant_10_n02504458_6132.png
subject-04,1,89,0.761610984802246,cat,clock,16-3-10,0089_eid_s04_16-3-10_clock_10_n04548280_8171.png
subject-04,1,90,1.44949698448181,oven,truck,64-3-10,0090_eid_s04_64-3-10_truck_10_n03417042_12297.png
subject-04,1,91,1.21540307998657,elephant,elephant,64-3-10,0091_eid_s04_64-3-10_elephant_10_n02504013_6976.png
subject-04,1,92,1.1970841884613,bicycle,boat,8-3-10,0092_eid_s04_8-3-10_boat_10_n03662601_17352.png
subject-04,1,93,1.27298307418823,cat,clock,16-3-10,0093_eid_s04_16-3-10_clock_10_n03196217_10352.png
subject-04,1,94,0.69072699546814,bottle,bottle,1-3-10,0094_eid_s04_1-3-10_bottle_10_n04591713_3776.png
subject-04,1,95,1.42258191108704,elephant,oven,4-3-10,0095_eid_s04_4-3-10_oven_10_n04111531_6851.png
subject-04,1,96,1.12258505821228,cat,bottle,32-3-10,0096_eid_s04_32-3-10_bottle_10_n04557648_3675.png
subject-04,1,97,0.774248123168945,bottle,bottle,8-3-10,0097_eid_s04_8-3-10_bottle_10_n03983396_8552.png
subject-04,1,98,1.07023906707764,cat,cat,128-3-10,0098_eid_s04_128-3-10_cat_10_n02124075_12350.png
subject-04,1,99,1.09769892692566,knife,bottle,4-3-10,0099_eid_s04_4-3-10_bottle_10_n03937543_2135.png
subject-04,1,100,1.21150612831116,bear,dog,32-3-10,0100_eid_s04_32-3-10_dog_10_n02094114_424.png
subject-04,1,101,1.50009894371033,clock,knife,8-3-10,0101_eid_s04_8-3-10_knife_10_n03041632_84048.png
subject-04,1,102,0.751353025436401,cat,knife,64-3-10,0102_eid_s04_64-3-10_knife_10_n03041632_17285.png
subject-04,1,103,1.16100692749023,oven,chair,32-3-10,0103_eid_s04_32-3-10_chair_10_n04099969_3095.png
subject-04,1,104,0.705077886581421,boat,boat,4-3-10,0104_eid_s04_4-3-10_boat_10_n04273569_4518.png
subject-04,1,105,1.31872200965881,clock,truck,64-3-10,0105_eid_s04_64-3-10_truck_10_n04467665_21266.png
subject-04,1,106,1.07256412506104,bear,car,32-3-10,0106_eid_s04_32-3-10_car_10_n04285008_8363.png
subject-04,1,107,1.07221293449402,boat,elephant,32-3-10,0107_eid_s04_32-3-10_elephant_10_n02504458_7818.png
subject-04,1,108,0.838054895401001,chair,elephant,64-3-10,0108_eid_s04_64-3-10_elephant_10_n02504458_6163.png
subject-04,1,109,0.864115953445435,keyboard,keyboard,1-3-10,0109_eid_s04_1-3-10_keyboard_10_n04505470_2608.png
subject-04,1,110,1.50017309188843,oven,knife,32-3-10,0110_eid_s04_32-3-10_knife_10_n03041632_43506.png
subject-04,1,111,1.13775515556335,boat,bear,8-3-10,0111_eid_s04_8-3-10_bear_10_n02134418_2187.png
subject-04,1,112,1.39950919151306,bottle,knife,2-3-10,0112_eid_s04_2-3-10_knife_10_n03041632_3079.png
subject-04,1,113,1.50004887580872,truck,car,64-3-10,0113_eid_s04_64-3-10_car_10_n03100240_7626.png
subject-04,1,114,0.923118114471436,car,car,4-3-10,0114_eid_s04_4-3-10_car_10_n04285008_13595.png
subject-04,1,115,1.16289806365967,dog,dog,1-3-10,0115_eid_s04_1-3-10_dog_10_n02100236_9311.png
subject-04,1,116,0.916766881942749,dog,dog,1-3-10,0116_eid_s04_1-3-10_dog_10_n02111129_4423.png
subject-04,1,117,1.15483379364014,dog,bicycle,16-3-10,0117_eid_s04_16-3-10_bicycle_10_n03792782_7963.png
subject-04,1,118,1.22257590293884,bird,bird,8-3-10,0118_eid_s04_8-3-10_bird_10_n02025239_9177.png
subject-04,1,119,0.671986818313599,boat,boat,1-3-10,0119_eid_s04_1-3-10_boat_10_n04273569_12318.png
subject-04,1,120,0.692238092422485,airplane,airplane,16-3-10,0120_eid_s04_16-3-10_airplane_10_n02690373_848.png
subject-04,1,121,0.711816072463989,cat,chair,16-3-10,0121_eid_s04_16-3-10_chair_10_n03376595_6208.png
subject-04,1,122,1.50008106231689,keyboard,truck,128-3-10,0122_eid_s04_128-3-10_truck_10_n03417042_8998.png
subject-04,1,123,1.45935392379761,bottle,boat,128-3-10,0123_eid_s04_128-3-10_boat_10_n02951358_34418.png
subject-04,1,124,0.689148187637329,cat,bear,32-3-10,0124_eid_s04_32-3-10_bear_10_n02134418_280.png
subject-04,1,125,0.816839933395386,bottle,bottle,4-3-10,0125_eid_s04_4-3-10_bottle_10_n03983396_9604.png
subject-04,1,126,0.61896800994873,bicycle,bicycle,1-3-10,0126_eid_s04_1-3-10_bicycle_10_n02835271_15468.png
subject-04,1,127,0.976729869842529,keyboard,keyboard,8-3-10,0127_eid_s04_8-3-10_keyboard_10_n03085013_20884.png
subject-04,1,128,0.948461055755615,bicycle,bicycle,1-3-10,0128_eid_s04_1-3-10_bicycle_10_n02835271_790.png
subject-04,1,129,0.704531192779541,car,car,2-3-10,0129_eid_s04_2-3-10_car_10_n04285008_10563.png
subject-04,1,130,0.818087100982666,airplane,airplane,2-3-10,0130_eid_s04_2-3-10_airplane_10_n02690373_9762.png
subject-04,1,131,0.689806938171387,bottle,bottle,4-3-10,0131_eid_s04_4-3-10_bottle_10_n03983396_2305.png
subject-04,1,132,0.805799007415771,car,car,1-3-10,0132_eid_s04_1-3-10_car_10_n04285008_16856.png
subject-04,1,133,1.50010991096497,chair,knife,128-3-10,0133_eid_s04_128-3-10_knife_10_n03041632_31909.png
subject-04,1,134,1.50016188621521,bird,bird,1-3-10,0134_eid_s04_1-3-10_bird_10_n01616318_6098.png
subject-04,1,135,0.875143051147461,elephant,elephant,16-3-10,0135_eid_s04_16-3-10_elephant_10_n02504013_2431.png
subject-04,1,136,0.590894937515259,cat,knife,128-3-10,0136_eid_s04_128-3-10_knife_10_n03041632_18468.png
subject-04,1,137,1.16899514198303,boat,dog,128-3-10,0137_eid_s04_128-3-10_dog_10_n02113624_4844.png
subject-04,1,138,1.44642996788025,bottle,knife,32-3-10,0138_eid_s04_32-3-10_knife_10_n03041632_51617.png
subject-04,1,139,1.50000810623169,oven,cat,16-3-10,0139_eid_s04_16-3-10_cat_10_n02125311_15099.png
subject-04,1,140,0.702171087265015,cat,dog,64-3-10,0140_eid_s04_64-3-10_dog_10_n02100236_4549.png
subject-04,1,141,1.01804184913635,elephant,elephant,2-3-10,0141_eid_s04_2-3-10_elephant_10_n02504013_358.png
subject-04,1,142,0.812150001525879,oven,oven,1-3-10,0142_eid_s04_1-3-10_oven_10_n04111531_5093.png
subject-04,1,143,0.645554065704346,cat,cat,8-3-10,0143_eid_s04_8-3-10_cat_10_n02123394_8009.png
subject-04,1,144,0.907819986343384,car,car,8-3-10,0144_eid_s04_8-3-10_car_10_n04285008_13094.png
subject-04,1,145,0.905251979827881,cat,elephant,64-3-10,0145_eid_s04_64-3-10_elephant_10_n02504013_6862.png
subject-04,1,146,0.860995054244995,chair,chair,2-3-10,0146_eid_s04_2-3-10_chair_10_n04099969_1669.png
subject-04,1,147,0.694741010665894,cat,dog,128-3-10,0147_eid_s04_128-3-10_dog_10_n02088094_4195.png
subject-04,1,148,0.554767847061157,oven,oven,8-3-10,0148_eid_s04_8-3-10_oven_10_n04111531_8793.png
subject-04,1,149,0.700477123260498,cat,keyboard,32-3-10,0149_eid_s04_32-3-10_keyboard_10_n04505470_7335.png
subject-04,1,150,1.06432700157166,cat,cat,8-3-10,0150_eid_s04_8-3-10_cat_10_n02123597_10945.png
subject-04,1,151,1.12196707725525,knife,knife,2-3-10,0151_eid_s04_2-3-10_knife_10_n03041632_8321.png
subject-04,1,152,1.30576801300049,bicycle,bear,8-3-10,0152_eid_s04_8-3-10_bear_10_n02134084_4593.png
subject-04,1,153,0.959790945053101,cat,bird,64-3-10,0153_eid_s04_64-3-10_bird_10_n01531178_10630.png
subject-04,1,154,1.49367189407349,chair,chair,64-3-10,0154_eid_s04_64-3-10_chair_10_n04429376_22670.png
subject-04,1,155,0.575388193130493,bottle,bottle,2-3-10,0155_eid_s04_2-3-10_bottle_10_n02823428_13931.png
subject-04,1,156,0.719310998916626,boat,boat,4-3-10,0156_eid_s04_4-3-10_boat_10_n03662601_4619.png
subject-04,1,157,1.50004386901855,bird,car,16-3-10,0157_eid_s04_16-3-10_car_10_n03100240_14045.png
subject-04,1,158,0.890831232070923,keyboard,keyboard,8-3-10,0158_eid_s04_8-3-10_keyboard_10_n03085013_8339.png
subject-04,1,159,1.4586501121521,bottle,bottle,16-3-10,0159_eid_s04_16-3-10_bottle_10_n02823428_12643.png
subject-04,1,160,1.09440183639526,boat,boat,64-3-10,0160_eid_s04_64-3-10_boat_10_n04612504_5535.png
subject-04,1,161,1.50002312660217,keyboard,elephant,8-3-10,0161_eid_s04_8-3-10_elephant_10_n02504013_812.png
subject-04,1,162,0.594954967498779,car,car,1-3-10,0162_eid_s04_1-3-10_car_10_n02814533_37110.png
subject-04,1,163,0.714651107788086,keyboard,keyboard,16-3-10,0163_eid_s04_16-3-10_keyboard_10_n04505470_2737.png
subject-04,1,164,0.610481977462769,cat,dog,32-3-10,0164_eid_s04_32-3-10_dog_10_n02109961_53644.png
subject-04,1,165,1.1622998714447,bear,car,128-3-10,0165_eid_s04_128-3-10_car_10_n03100240_6552.png
subject-04,1,166,1.10016417503357,bottle,chair,8-3-10,0166_eid_s04_8-3-10_chair_10_n03376595_2667.png
subject-04,1,167,1.40402603149414,dog,dog,8-3-10,0167_eid_s04_8-3-10_dog_10_n02105056_1381.png
subject-04,1,168,1.42370104789734,oven,bottle,16-3-10,0168_eid_s04_16-3-10_bottle_10_n04560804_4145.png
subject-04,1,169,1.02768206596375,cat,cat,2-3-10,0169_eid_s04_2-3-10_cat_10_n02123394_3339.png
subject-04,1,170,1.40333890914917,oven,boat,64-3-10,0170_eid_s04_64-3-10_boat_10_n03662601_36741.png
subject-04,1,171,1.42911410331726,dog,bottle,128-3-10,0171_eid_s04_128-3-10_bottle_10_n04579145_1660.png
subject-04,1,172,0.839119911193848,airplane,airplane,8-3-10,0172_eid_s04_8-3-10_airplane_10_n02690373_945.png
subject-04,1,173,0.797060012817383,keyboard,keyboard,2-3-10,0173_eid_s04_2-3-10_keyboard_10_n03085013_2676.png
subject-04,1,174,0.832719087600708,cat,clock,128-3-10,0174_eid_s04_128-3-10_clock_10_n02708093_906.png
subject-04,1,175,1.15683507919312,boat,boat,1-3-10,0175_eid_s04_1-3-10_boat_10_n04273569_4136.png
subject-04,1,176,1.4104630947113,cat,airplane,64-3-10,0176_eid_s04_64-3-10_airplane_10_n02690373_1053.png
subject-04,1,177,1.50015687942505,dog,bear,8-3-10,0177_eid_s04_8-3-10_bear_10_n02133161_15481.png
subject-04,1,178,0.588038206100464,clock,clock,1-3-10,0178_eid_s04_1-3-10_clock_10_n04548280_3318.png
subject-04,1,179,1.23801302909851,keyboard,keyboard,8-3-10,0179_eid_s04_8-3-10_keyboard_10_n04505470_5125.png
subject-04,1,180,0.669541835784912,cat,airplane,64-3-10,0180_eid_s04_64-3-10_airplane_10_n02690373_2078.png
subject-04,1,181,1.09739279747009,bird,car,64-3-10,0181_eid_s04_64-3-10_car_10_n02814533_10069.png
subject-04,1,182,0.593255043029785,clock,clock,4-3-10,0182_eid_s04_4-3-10_clock_10_n04548280_2111.png
subject-04,1,183,1.01307916641235,boat,boat,32-3-10,0183_eid_s04_32-3-10_boat_10_n03662601_23409.png
subject-04,1,184,1.19084286689758,bottle,bottle,16-3-10,0184_eid_s04_16-3-10_bottle_10_n04560804_5441.png
subject-04,1,185,0.810877084732056,elephant,elephant,1-3-10,0185_eid_s04_1-3-10_elephant_10_n02504013_3425.png
subject-04,1,186,0.884438991546631,car,car,2-3-10,0186_eid_s04_2-3-10_car_10_n02814533_61501.png
subject-04,1,187,0.804140090942383,chair,chair,2-3-10,0187_eid_s04_2-3-10_chair_10_n03376595_13949.png
subject-04,1,188,0.932029962539673,cat,knife,128-3-10,0188_eid_s04_128-3-10_knife_10_n03041632_25498.png
subject-04,1,189,1.46965098381042,elephant,airplane,64-3-10,0189_eid_s04_64-3-10_airplane_10_n02690373_3090.png
subject-04,1,190,1.5001528263092,boat,oven,128-3-10,0190_eid_s04_128-3-10_oven_10_n04111531_14848.png
subject-04,1,191,1.50015091896057,bear,keyboard,128-3-10,0191_eid_s04_128-3-10_keyboard_10_n04505470_255.png
subject-04,1,192,0.791320085525513,dog,bear,4-3-10,0192_eid_s04_4-3-10_bear_10_n02132136_5517.png
subject-04,1,193,0.765161991119385,cat,oven,4-3-10,0193_eid_s04_4-3-10_oven_10_n04111531_2199.png
subject-04,1,194,0.79308009147644,cat,knife,128-3-10,0194_eid_s04_128-3-10_knife_10_n03041632_8540.png
subject-04,1,195,0.740698099136353,bottle,bottle,2-3-10,0195_eid_s04_2-3-10_bottle_10_n03937543_4964.png
subject-04,1,196,1.24838805198669,boat,oven,8-3-10,0196_eid_s04_8-3-10_oven_10_n04111531_6923.png
subject-04,1,197,0.650259971618652,boat,knife,16-3-10,0197_eid_s04_16-3-10_knife_10_n03041632_52371.png
subject-04,1,198,1.31805491447449,keyboard,keyboard,128-3-10,0198_eid_s04_128-3-10_keyboard_10_n04505470_4467.png
subject-04,1,199,1.36210584640503,chair,bicycle,128-3-10,0199_eid_s04_128-3-10_bicycle_10_n02835271_15028.png
subject-04,1,200,1.38174414634705,airplane,truck,16-3-10,0200_eid_s04_16-3-10_truck_10_n04467665_67726.png
subject-04,1,201,1.25181984901428,knife,knife,2-3-10,0201_eid_s04_2-3-10_knife_10_n03041632_91582.png
subject-04,1,202,1.50015711784363,bird,bicycle,128-3-10,0202_eid_s04_128-3-10_bicycle_10_n03792782_3815.png
subject-04,1,203,1.38311290740967,chair,chair,32-3-10,0203_eid_s04_32-3-10_chair_10_n02791124_9216.png
subject-04,1,204,1.02717113494873,bottle,dog,32-3-10,0204_eid_s04_32-3-10_dog_10_n02107574_5583.png
subject-04,1,205,1.50006794929504,bird,knife,128-3-10,0205_eid_s04_128-3-10_knife_10_n03041632_3247.png
subject-04,1,206,0.848787069320679,cat,airplane,32-3-10,0206_eid_s04_32-3-10_airplane_10_n02690373_5130.png
subject-04,1,207,1.18037295341492,dog,chair,32-3-10,0207_eid_s04_32-3-10_chair_10_n02791124_2611.png
subject-04,1,208,0.700237989425659,keyboard,knife,1-3-10,0208_eid_s04_1-3-10_knife_10_n03041632_76163.png
subject-04,1,209,1.22791504859924,cat,cat,64-3-10,0209_eid_s04_64-3-10_cat_10_n02125311_8090.png
subject-04,1,210,1.23192095756531,oven,keyboard,128-3-10,0210_eid_s04_128-3-10_keyboard_10_n03085013_20837.png
subject-04,1,211,0.768136978149414,truck,bicycle,128-3-10,0211_eid_s04_128-3-10_bicycle_10_n03792782_5494.png
subject-04,1,212,1.20154905319214,bottle,bicycle,16-3-10,0212_eid_s04_16-3-10_bicycle_10_n03792782_1682.png
subject-04,1,213,0.745413064956665,keyboard,oven,2-3-10,0213_eid_s04_2-3-10_oven_10_n04111531_8269.png
subject-04,1,214,1.37922191619873,bottle,car,64-3-10,0214_eid_s04_64-3-10_car_10_n03100240_17073.png
subject-04,1,215,NaN,na,oven,32-3-10,0215_eid_s04_32-3-10_oven_10_n04111531_14325.png
subject-04,1,216,1.43905186653137,oven,bottle,1-3-10,0216_eid_s04_1-3-10_bottle_10_n04557648_4133.png
subject-04,1,217,0.646929025650024,keyboard,keyboard,2-3-10,0217_eid_s04_2-3-10_keyboard_10_n04505470_4791.png
subject-04,1,218,0.650406122207642,airplane,airplane,1-3-10,0218_eid_s04_1-3-10_airplane_10_n02690373_5790.png
subject-04,1,219,1.00651812553406,keyboard,airplane,64-3-10,0219_eid_s04_64-3-10_airplane_10_n02690373_4364.png
subject-04,1,220,0.679986953735352,boat,boat,4-3-10,0220_eid_s04_4-3-10_boat_10_n03344393_7614.png
subject-04,1,221,0.753830909729004,boat,boat,2-3-10,0221_eid_s04_2-3-10_boat_10_n02951358_17870.png
subject-04,1,222,0.795567035675049,cat,boat,32-3-10,0222_eid_s04_32-3-10_boat_10_n03662601_19840.png
subject-04,1,223,1.42348098754883,truck,truck,1-3-10,0223_eid_s04_1-3-10_truck_10_n03417042_2074.png
subject-04,1,224,0.811455965042114,bottle,bottle,2-3-10,0224_eid_s04_2-3-10_bottle_10_n04579145_215.png
subject-04,1,225,0.993239164352417,truck,truck,1-3-10,0225_eid_s04_1-3-10_truck_10_n03417042_19596.png
subject-04,1,226,0.919038057327271,boat,boat,2-3-10,0226_eid_s04_2-3-10_boat_10_n04273569_7039.png
subject-04,1,227,0.586903095245361,cat,chair,8-3-10,0227_eid_s04_8-3-10_chair_10_n02791124_13704.png
subject-04,1,228,0.700495958328247,elephant,elephant,2-3-10,0228_eid_s04_2-3-10_elephant_10_n02504013_10793.png
subject-04,1,229,1.27651500701904,dog,bird,2-3-10,0229_eid_s04_2-3-10_bird_10_n01558993_869.png
subject-04,1,230,1.50006198883057,bear,elephant,32-3-10,0230_eid_s04_32-3-10_elephant_10_n02504013_7553.png
subject-04,1,231,0.627954006195068,bird,bird,4-3-10,0231_eid_s04_4-3-10_bird_10_n01560419_8247.png
subject-04,1,232,0.669815063476562,cat,cat,1-3-10,0232_eid_s04_1-3-10_cat_10_n02123394_384.png
subject-04,1,233,0.891561031341553,elephant,elephant,1-3-10,0233_eid_s04_1-3-10_elephant_10_n02504458_4058.png
subject-04,1,234,1.36526393890381,bear,oven,16-3-10,0234_eid_s04_16-3-10_oven_10_n04111531_1298.png
subject-04,1,235,0.767136812210083,boat,oven,32-3-10,0235_eid_s04_32-3-10_oven_10_n04111531_7469.png
subject-04,1,236,0.757089138031006,cat,cat,8-3-10,0236_eid_s04_8-3-10_cat_10_n02123394_3329.png
subject-04,1,237,1.08311700820923,boat,cat,2-3-10,0237_eid_s04_2-3-10_cat_10_n02125311_15293.png
subject-04,1,238,0.800584077835083,cat,cat,1-3-10,0238_eid_s04_1-3-10_cat_10_n02123159_3536.png
subject-04,1,239,0.83643913269043,bear,bear,2-3-10,0239_eid_s04_2-3-10_bear_10_n02133161_10314.png
subject-04,1,240,0.904253005981445,cat,dog,32-3-10,0240_eid_s04_32-3-10_dog_10_n02095889_1794.png
subject-04,1,241,0.868221998214722,cat,bicycle,16-3-10,0241_eid_s04_16-3-10_bicycle_10_n03792782_19116.png
subject-04,1,242,0.880034923553467,bear,bear,2-3-10,0242_eid_s04_2-3-10_bear_10_n02133161_2456.png
subject-04,1,243,1.23601698875427,dog,airplane,64-3-10,0243_eid_s04_64-3-10_airplane_10_n02690373_4671.png
subject-04,1,244,0.999838829040527,cat,cat,16-3-10,0244_eid_s04_16-3-10_cat_10_n02123394_3322.png
subject-04,1,245,0.703601837158203,bottle,bottle,4-3-10,0245_eid_s04_4-3-10_bottle_10_n02823428_6731.png
subject-04,1,246,1.50004816055298,bear,dog,64-3-10,0246_eid_s04_64-3-10_dog_10_n02111277_16090.png
subject-04,1,247,1.50002312660217,cat,knife,32-3-10,0247_eid_s04_32-3-10_knife_10_n03041632_23667.png
subject-04,1,248,0.627334117889404,cat,oven,128-3-10,0248_eid_s04_128-3-10_oven_10_n04111531_6590.png
subject-04,1,249,0.652935028076172,cat,bear,64-3-10,0249_eid_s04_64-3-10_bear_10_n02132136_11217.png
subject-04,1,250,1.33648490905762,dog,clock,64-3-10,0250_eid_s04_64-3-10_clock_10_n03196217_1187.png
subject-04,1,251,0.718413829803467,cat,cat,8-3-10,0251_eid_s04_8-3-10_cat_10_n02123045_12657.png
subject-04,1,252,0.704406976699829,keyboard,oven,1-3-10,0252_eid_s04_1-3-10_oven_10_n04111531_21963.png
subject-04,1,253,0.818196058273315,knife,knife,4-3-10,0253_eid_s04_4-3-10_knife_10_n03041632_24181.png
subject-04,1,254,1.39394402503967,bear,chair,128-3-10,0254_eid_s04_128-3-10_chair_10_n02791124_3198.png
subject-04,1,255,0.85779881477356,keyboard,oven,1-3-10,0255_eid_s04_1-3-10_oven_10_n04111531_15912.png
subject-04,1,256,1.39347720146179,airplane,boat,128-3-10,0256_eid_s04_128-3-10_boat_10_n04612504_804.png
subject-04,1,257,1.12956500053406,bear,oven,32-3-10,0257_eid_s04_32-3-10_oven_10_n04111531_17917.png
subject-04,1,258,1.48726201057434,oven,bottle,16-3-10,0258_eid_s04_16-3-10_bottle_10_n04557648_9415.png
subject-04,1,259,1.50014495849609,clock,bird,16-3-10,0259_eid_s04_16-3-10_bird_10_n01537544_23499.png
subject-04,1,260,0.750757932662964,keyboard,keyboard,2-3-10,0260_eid_s04_2-3-10_keyboard_10_n04505470_3941.png
subject-04,1,261,1.1066460609436,dog,keyboard,64-3-10,0261_eid_s04_64-3-10_keyboard_10_n03085013_6313.png
subject-04,1,262,1.50000500679016,bear,bicycle,32-3-10,0262_eid_s04_32-3-10_bicycle_10_n02835271_12025.png
subject-04,1,263,0.972275972366333,cat,keyboard,64-3-10,0263_eid_s04_64-3-10_keyboard_10_n03085013_26532.png
subject-04,1,264,1.01809310913086,elephant,dog,2-3-10,0264_eid_s04_2-3-10_dog_10_n02090622_5368.png
subject-04,1,265,0.709732055664062,truck,truck,1-3-10,0265_eid_s04_1-3-10_truck_10_n03417042_7869.png
subject-04,1,266,0.949699878692627,chair,chair,4-3-10,0266_eid_s04_4-3-10_chair_10_n04429376_11813.png
subject-04,1,267,1.05352020263672,truck,truck,4-3-10,0267_eid_s04_4-3-10_truck_10_n03417042_13013.png
subject-04,1,268,0.955472946166992,cat,bottle,64-3-10,0268_eid_s04_64-3-10_bottle_10_n04557648_3109.png
subject-04,1,269,1.08539390563965,cat,dog,16-3-10,0269_eid_s04_16-3-10_dog_10_n02089867_6106.png
subject-04,1,270,0.800837993621826,cat,truck,32-3-10,0270_eid_s04_32-3-10_truck_10_n03417042_11062.png
subject-04,1,271,0.664493083953857,bear,bear,1-3-10,0271_eid_s04_1-3-10_bear_10_n02132136_11198.png
subject-04,1,272,1.36448502540588,dog,bird,64-3-10,0272_eid_s04_64-3-10_bird_10_n01843383_4667.png
subject-04,1,273,1.28831791877747,clock,keyboard,128-3-10,0273_eid_s04_128-3-10_keyboard_10_n03085013_24399.png
subject-04,1,274,0.736104011535645,chair,chair,2-3-10,0274_eid_s04_2-3-10_chair_10_n03376595_16212.png
subject-04,1,275,1.48186802864075,bear,chair,64-3-10,0275_eid_s04_64-3-10_chair_10_n02791124_15756.png
subject-04,1,276,1.19798994064331,bear,car,32-3-10,0276_eid_s04_32-3-10_car_10_n03100240_7935.png
subject-04,1,277,1.22158002853394,chair,bear,1-3-10,0277_eid_s04_1-3-10_bear_10_n02134084_424.png
subject-04,1,278,1.34337496757507,clock,truck,16-3-10,0278_eid_s04_16-3-10_truck_10_n03796401_4311.png
subject-04,1,279,1.25128197669983,cat,dog,128-3-10,0279_eid_s04_128-3-10_dog_10_n02086240_11622.png
subject-04,1,280,0.975101947784424,bottle,bottle,1-3-10,0280_eid_s04_1-3-10_bottle_10_n04557648_10167.png
subject-04,1,281,0.848623991012573,car,car,8-3-10,0281_eid_s04_8-3-10_car_10_n02814533_31384.png
subject-04,1,282,0.95487904548645,cat,truck,64-3-10,0282_eid_s04_64-3-10_truck_10_n03417042_25947.png
subject-04,1,283,1.16240882873535,knife,oven,8-3-10,0283_eid_s04_8-3-10_oven_10_n04111531_11848.png
subject-04,1,284,0.836393117904663,keyboard,keyboard,4-3-10,0284_eid_s04_4-3-10_keyboard_10_n04505470_4452.png
subject-04,1,285,0.79407811164856,bottle,bottle,4-3-10,0285_eid_s04_4-3-10_bottle_10_n03937543_2143.png
subject-04,1,286,1.10204195976257,boat,boat,4-3-10,0286_eid_s04_4-3-10_boat_10_n03344393_3518.png
subject-04,1,287,1.20593404769897,knife,knife,2-3-10,0287_eid_s04_2-3-10_knife_10_n03041632_43289.png
subject-04,1,288,0.741421937942505,bear,bear,64-3-10,0288_eid_s04_64-3-10_bear_10_n02133161_5267.png
subject-04,1,289,1.50004386901855,dog,bicycle,16-3-10,0289_eid_s04_16-3-10_bicycle_10_n02835271_1499.png
subject-04,1,290,0.701126098632812,boat,bird,4-3-10,0290_eid_s04_4-3-10_bird_10_n02018207_2282.png
subject-04,1,291,0.977004051208496,oven,boat,4-3-10,0291_eid_s04_4-3-10_boat_10_n04612504_7566.png
subject-04,1,292,1.08872699737549,car,knife,32-3-10,0292_eid_s04_32-3-10_knife_10_n03041632_43634.png
subject-04,1,293,0.778695106506348,bottle,clock,16-3-10,0293_eid_s04_16-3-10_clock_10_n03196217_6185.png
subject-04,1,294,1.21480298042297,bear,keyboard,16-3-10,0294_eid_s04_16-3-10_keyboard_10_n03085013_21649.png
subject-04,1,295,1.50007486343384,oven,bird,64-3-10,0295_eid_s04_64-3-10_bird_10_n01530575_33354.png
subject-04,1,296,0.77606201171875,bottle,bottle,2-3-10,0296_eid_s04_2-3-10_bottle_10_n03937543_6003.png
subject-04,1,297,1.45601987838745,keyboard,chair,128-3-10,0297_eid_s04_128-3-10_chair_10_n04099969_44784.png
subject-04,1,298,0.709635972976685,keyboard,keyboard,1-3-10,0298_eid_s04_1-3-10_keyboard_10_n03085013_23834.png
subject-04,1,299,0.791547060012817,keyboard,keyboard,1-3-10,0299_eid_s04_1-3-10_keyboard_10_n03085013_3539.png
subject-04,1,300,0.621291875839233,keyboard,keyboard,8-3-10,0300_eid_s04_8-3-10_keyboard_10_n04505470_1903.png
subject-04,1,301,1.41514492034912,elephant,dog,128-3-10,0301_eid_s04_128-3-10_dog_10_n02095570_601.png
subject-04,1,302,1.28276300430298,dog,keyboard,16-3-10,0302_eid_s04_16-3-10_keyboard_10_n04505470_1117.png
subject-04,1,303,0.966791152954102,bear,airplane,128-3-10,0303_eid_s04_128-3-10_airplane_10_n02690373_3561.png
subject-04,1,304,0.914417028427124,cat,oven,128-3-10,0304_eid_s04_128-3-10_oven_10_n04111531_5077.png
subject-04,1,305,1.37226295471191,knife,dog,64-3-10,0305_eid_s04_64-3-10_dog_10_n02090379_605.png
subject-04,1,306,1.49450182914734,bottle,oven,64-3-10,0306_eid_s04_64-3-10_oven_10_n04111531_605.png
subject-04,1,307,1.03002214431763,cat,bird,16-3-10,0307_eid_s04_16-3-10_bird_10_n01819313_5388.png
subject-04,1,308,1.4780969619751,chair,dog,64-3-10,0308_eid_s04_64-3-10_dog_10_n02100877_8862.png
subject-04,1,309,0.761878967285156,oven,elephant,16-3-10,0309_eid_s04_16-3-10_elephant_10_n02504458_3172.png
subject-04,1,310,1.06142807006836,keyboard,bottle,8-3-10,0310_eid_s04_8-3-10_bottle_10_n04560804_8385.png
subject-04,1,311,0.807393074035645,cat,cat,4-3-10,0311_eid_s04_4-3-10_cat_10_n02123394_283.png
subject-04,1,312,0.685441970825195,cat,cat,4-3-10,0312_eid_s04_4-3-10_cat_10_n02125311_58887.png
subject-04,1,313,0.550714015960693,airplane,airplane,2-3-10,0313_eid_s04_2-3-10_airplane_10_n02690373_190.png
subject-04,1,314,0.922760963439941,bear,bear,2-3-10,0314_eid_s04_2-3-10_bear_10_n02133161_10167.png
subject-04,1,315,0.738584041595459,cat,bird,64-3-10,0315_eid_s04_64-3-10_bird_10_n01582220_9392.png
subject-04,1,316,0.78015398979187,cat,knife,64-3-10,0316_eid_s04_64-3-10_knife_10_n03041632_28129.png
subject-04,1,317,0.754228115081787,cat,truck,16-3-10,0317_eid_s04_16-3-10_truck_10_n03417042_17099.png
subject-04,1,318,1.50009512901306,oven,bottle,128-3-10,0318_eid_s04_128-3-10_bottle_10_n03937543_7191.png
subject-04,1,319,1.00365519523621,bear,bear,8-3-10,0319_eid_s04_8-3-10_bear_10_n02134084_15913.png
subject-04,1,320,1.04771614074707,bottle,bird,4-3-10,0320_eid_s04_4-3-10_bird_10_n02056570_4807.png
subject-04,1,321,0.730560064315796,clock,clock,4-3-10,0321_eid_s04_4-3-10_clock_10_n02708093_8204.png
subject-04,1,322,1.4683849811554,dog,bear,32-3-10,0322_eid_s04_32-3-10_bear_10_n02134418_5849.png
subject-04,1,323,1.45423913002014,car,elephant,128-3-10,0323_eid_s04_128-3-10_elephant_10_n02504458_6696.png
subject-04,1,324,0.79233717918396,truck,truck,8-3-10,0324_eid_s04_8-3-10_truck_10_n03417042_12133.png
subject-04,1,325,0.811933040618896,keyboard,truck,128-3-10,0325_eid_s04_128-3-10_truck_10_n03796401_6977.png
subject-04,1,326,0.589656829833984,cat,cat,4-3-10,0326_eid_s04_4-3-10_cat_10_n02124075_13719.png
subject-04,1,327,0.881722211837769,cat,cat,1-3-10,0327_eid_s04_1-3-10_cat_10_n02123159_4157.png
subject-04,1,328,1.3092188835144,bear,dog,16-3-10,0328_eid_s04_16-3-10_dog_10_n02108000_1538.png
subject-04,1,329,0.999058961868286,bird,bird,1-3-10,0329_eid_s04_1-3-10_bird_10_n01560419_19608.png
subject-04,1,330,1.17496609687805,elephant,boat,128-3-10,0330_eid_s04_128-3-10_boat_10_n03662601_17001.png
subject-04,1,331,1.26457810401917,dog,cat,2-3-10,0331_eid_s04_2-3-10_cat_10_n02123597_13839.png
subject-04,1,332,0.984463930130005,bird,bird,2-3-10,0332_eid_s04_2-3-10_bird_10_n01534433_26061.png
subject-04,1,333,1.07838797569275,truck,truck,1-3-10,0333_eid_s04_1-3-10_truck_10_n03417042_4761.png
subject-04,1,334,1.09006595611572,cat,elephant,128-3-10,0334_eid_s04_128-3-10_elephant_10_n02504013_6141.png
subject-04,1,335,0.77184796333313,bear,bear,2-3-10,0335_eid_s04_2-3-10_bear_10_n02134084_7193.png
subject-04,1,336,0.964065074920654,cat,bear,64-3-10,0336_eid_s04_64-3-10_bear_10_n02134418_4384.png
subject-04,1,337,0.991513013839722,oven,oven,2-3-10,0337_eid_s04_2-3-10_oven_10_n04111531_6958.png
subject-04,1,338,0.979742050170898,truck,truck,2-3-10,0338_eid_s04_2-3-10_truck_10_n03417042_15482.png
subject-04,1,339,0.82108998298645,bear,bear,4-3-10,0339_eid_s04_4-3-10_bear_10_n02134084_6869.png
subject-04,1,340,1.27711915969849,airplane,bear,32-3-10,0340_eid_s04_32-3-10_bear_10_n02134084_22032.png
subject-04,1,341,0.850809097290039,cat,cat,1-3-10,0341_eid_s04_1-3-10_cat_10_n02124075_5369.png
subject-04,1,342,1.07662892341614,dog,keyboard,64-3-10,0342_eid_s04_64-3-10_keyboard_10_n03085013_16057.png
subject-04,1,343,0.870414972305298,car,car,1-3-10,0343_eid_s04_1-3-10_car_10_n04285008_11240.png
subject-04,1,344,1.2702910900116,oven,bicycle,1-3-10,0344_eid_s04_1-3-10_bicycle_10_n02835271_15717.png
subject-04,1,345,1.47816610336304,elephant,elephant,4-3-10,0345_eid_s04_4-3-10_elephant_10_n02504458_12449.png
subject-04,1,346,1.42595219612122,cat,bear,128-3-10,0346_eid_s04_128-3-10_bear_10_n02133161_5708.png
subject-04,1,347,1.50015211105347,bicycle,bicycle,1-3-10,0347_eid_s04_1-3-10_bicycle_10_n02835271_21439.png
subject-04,1,348,1.50002503395081,cat,cat,128-3-10,0348_eid_s04_128-3-10_cat_10_n02123394_6505.png
subject-04,1,349,1.00922703742981,cat,dog,32-3-10,0349_eid_s04_32-3-10_dog_10_n02093754_4949.png
subject-04,1,350,1.45718193054199,cat,chair,128-3-10,0350_eid_s04_128-3-10_chair_10_n04099969_18678.png
subject-04,1,351,1.32109117507935,dog,bear,16-3-10,0351_eid_s04_16-3-10_bear_10_n02133161_2400.png
subject-04,1,352,0.876687049865723,car,bear,4-3-10,0352_eid_s04_4-3-10_bear_10_n02134418_2013.png
subject-04,1,353,1.04453182220459,keyboard,keyboard,8-3-10,0353_eid_s04_8-3-10_keyboard_10_n04505470_4228.png
subject-04,1,354,1.37076377868652,chair,elephant,2-3-10,0354_eid_s04_2-3-10_elephant_10_n02504458_5882.png
subject-04,1,355,1.21023797988892,oven,cat,16-3-10,0355_eid_s04_16-3-10_cat_10_n02125311_46738.png
subject-04,1,356,0.962048053741455,truck,truck,8-3-10,0356_eid_s04_8-3-10_truck_10_n04467665_23905.png
subject-04,1,357,1.18572902679443,boat,bicycle,8-3-10,0357_eid_s04_8-3-10_bicycle_10_n03792782_9833.png
subject-04,1,358,1.25971293449402,oven,car,32-3-10,0358_eid_s04_32-3-10_car_10_n04285008_15570.png
subject-04,1,359,0.807489156723022,airplane,airplane,4-3-10,0359_eid_s04_4-3-10_airplane_10_n02690373_5869.png
subject-04,1,360,0.957633018493652,knife,knife,8-3-10,0360_eid_s04_8-3-10_knife_10_n03041632_9671.png
subject-04,1,361,1.05498194694519,boat,boat,2-3-10,0361_eid_s04_2-3-10_boat_10_n02951358_3556.png
subject-04,1,362,0.887336015701294,car,car,1-3-10,0362_eid_s04_1-3-10_car_10_n03100240_2052.png
subject-04,1,363,0.670791864395142,keyboard,cat,128-3-10,0363_eid_s04_128-3-10_cat_10_n02123394_141.png
subject-04,1,364,1.4243700504303,elephant,bottle,32-3-10,0364_eid_s04_32-3-10_bottle_10_n04579145_2276.png
subject-04,1,365,1.38046717643738,boat,bicycle,128-3-10,0365_eid_s04_128-3-10_bicycle_10_n03792782_26306.png
subject-04,1,366,1.34623980522156,airplane,knife,16-3-10,0366_eid_s04_16-3-10_knife_10_n03041632_23548.png
subject-04,1,367,1.50002193450928,bear,bear,2-3-10,0367_eid_s04_2-3-10_bear_10_n02134418_2254.png
subject-04,1,368,1.39780902862549,dog,chair,64-3-10,0368_eid_s04_64-3-10_chair_10_n04099969_48169.png
subject-04,1,369,1.50013089179993,bird,chair,16-3-10,0369_eid_s04_16-3-10_chair_10_n04099969_28601.png
subject-04,1,370,0.771508932113647,cat,truck,64-3-10,0370_eid_s04_64-3-10_truck_10_n03796401_6285.png
subject-04,1,371,0.859249114990234,dog,dog,1-3-10,0371_eid_s04_1-3-10_dog_10_n02097658_816.png
subject-04,1,372,1.3895468711853,bird,elephant,64-3-10,0372_eid_s04_64-3-10_elephant_10_n02504013_3418.png
subject-04,1,373,1.29712200164795,clock,oven,8-3-10,0373_eid_s04_8-3-10_oven_10_n04111531_2758.png
subject-04,1,374,0.608752012252808,chair,chair,4-3-10,0374_eid_s04_4-3-10_chair_10_n04099969_2398.png
subject-04,1,375,0.840539932250977,keyboard,bottle,128-3-10,0375_eid_s04_128-3-10_bottle_10_n04560804_9922.png
subject-04,1,376,1.1323139667511,clock,chair,4-3-10,0376_eid_s04_4-3-10_chair_10_n04429376_12617.png
subject-04,1,377,1.27622580528259,boat,clock,128-3-10,0377_eid_s04_128-3-10_clock_10_n04548280_6115.png
subject-04,1,378,0.933948993682861,cat,bicycle,128-3-10,0378_eid_s04_128-3-10_bicycle_10_n02835271_31939.png
subject-04,1,379,1.01185083389282,bottle,bird,4-3-10,0379_eid_s04_4-3-10_bird_10_n01537544_20.png
subject-04,1,380,0.713815927505493,airplane,airplane,1-3-10,0380_eid_s04_1-3-10_airplane_10_n02690373_6332.png
subject-04,1,381,NaN,na,bear,16-3-10,0381_eid_s04_16-3-10_bear_10_n02134418_2604.png
subject-04,1,382,1.20305204391479,dog,dog,16-3-10,0382_eid_s04_16-3-10_dog_10_n02109525_3364.png
subject-04,1,383,0.925030946731567,cat,cat,64-3-10,0383_eid_s04_64-3-10_cat_10_n02125311_17933.png
subject-04,1,384,1.50013899803162,boat,clock,32-3-10,0384_eid_s04_32-3-10_clock_10_n03196217_6357.png
subject-04,1,385,1.50008821487427,chair,oven,64-3-10,0385_eid_s04_64-3-10_oven_10_n04111531_15296.png
subject-04,1,386,0.722553014755249,bottle,bottle,2-3-10,0386_eid_s04_2-3-10_bottle_10_n04557648_2575.png
subject-04,1,387,1.32239484786987,bird,car,16-3-10,0387_eid_s04_16-3-10_car_10_n04285008_3651.png
subject-04,1,388,1.13607692718506,dog,boat,32-3-10,0388_eid_s04_32-3-10_boat_10_n04273569_4087.png
subject-04,1,389,0.576133966445923,keyboard,keyboard,8-3-10,0389_eid_s04_8-3-10_keyboard_10_n04505470_10041.png
subject-04,1,390,0.893680095672607,keyboard,elephant,1-3-10,0390_eid_s04_1-3-10_elephant_10_n02504458_7506.png
subject-04,1,391,1.46175312995911,bird,bicycle,2-3-10,0391_eid_s04_2-3-10_bicycle_10_n03792782_16837.png
subject-04,1,392,1.50006198883057,keyboard,clock,64-3-10,0392_eid_s04_64-3-10_clock_10_n04548280_11068.png
subject-04,1,393,1.08119511604309,bird,keyboard,32-3-10,0393_eid_s04_32-3-10_keyboard_10_n04505470_8244.png
subject-04,1,394,1.11490821838379,bird,elephant,16-3-10,0394_eid_s04_16-3-10_elephant_10_n02504013_8052.png
subject-04,1,395,0.64284086227417,airplane,airplane,2-3-10,0395_eid_s04_2-3-10_airplane_10_n02690373_4024.png
subject-04,1,396,1.48857188224792,bird,airplane,32-3-10,0396_eid_s04_32-3-10_airplane_10_n02690373_2564.png
subject-04,1,397,1.11232495307922,truck,truck,8-3-10,0397_eid_s04_8-3-10_truck_10_n03417042_4016.png
subject-04,1,398,0.732385158538818,bottle,bottle,4-3-10,0398_eid_s04_4-3-10_bottle_10_n02823428_4387.png
subject-04,1,399,0.999921083450317,bottle,clock,4-3-10,0399_eid_s04_4-3-10_clock_10_n03196217_10384.png
subject-04,1,400,0.965718030929565,car,truck,2-3-10,0400_eid_s04_2-3-10_truck_10_n04467665_71055.png
subject-04,1,401,0.839555978775024,elephant,bear,1-3-10,0401_eid_s04_1-3-10_bear_10_n02134418_3148.png
subject-04,1,402,0.749556064605713,dog,dog,8-3-10,0402_eid_s04_8-3-10_dog_10_n02113624_246.png
subject-04,1,403,0.949273824691772,bear,bottle,32-3-10,0403_eid_s04_32-3-10_bottle_10_n04557648_53.png
subject-04,1,404,0.700872898101807,elephant,elephant,1-3-10,0404_eid_s04_1-3-10_elephant_10_n02504013_2984.png
subject-04,1,405,0.843070030212402,bicycle,bicycle,1-3-10,0405_eid_s04_1-3-10_bicycle_10_n03792782_5404.png
subject-04,1,406,0.840845823287964,airplane,airplane,4-3-10,0406_eid_s04_4-3-10_airplane_10_n02690373_4350.png
subject-04,1,407,1.0144259929657,boat,keyboard,4-3-10,0407_eid_s04_4-3-10_keyboard_10_n04505470_2378.png
subject-04,1,408,0.63625693321228,keyboard,keyboard,1-3-10,0408_eid_s04_1-3-10_keyboard_10_n03085013_17256.png
subject-04,1,409,0.810391902923584,bicycle,bird,1-3-10,0409_eid_s04_1-3-10_bird_10_n02002556_18595.png
subject-04,1,410,1.26583504676819,bottle,dog,64-3-10,0410_eid_s04_64-3-10_dog_10_n02110806_24067.png
subject-04,1,411,1.04160308837891,cat,bear,8-3-10,0411_eid_s04_8-3-10_bear_10_n02134418_1642.png
subject-04,1,412,0.719568014144897,knife,knife,2-3-10,0412_eid_s04_2-3-10_knife_10_n03041632_50648.png
subject-04,1,413,0.745326995849609,truck,truck,1-3-10,0413_eid_s04_1-3-10_truck_10_n03417042_1263.png
subject-04,1,414,0.757138013839722,cat,truck,32-3-10,0414_eid_s04_32-3-10_truck_10_n03796401_4454.png
subject-04,1,415,0.790899991989136,cat,bottle,32-3-10,0415_eid_s04_32-3-10_bottle_10_n02823428_13488.png
subject-04,1,416,0.766771793365479,clock,clock,2-3-10,0416_eid_s04_2-3-10_clock_10_n04548280_3352.png
subject-04,1,417,1.19857788085938,knife,bicycle,16-3-10,0417_eid_s04_16-3-10_bicycle_10_n02835271_12608.png
subject-04,1,418,1.50009703636169,dog,knife,64-3-10,0418_eid_s04_64-3-10_knife_10_n03041632_20576.png
subject-04,1,419,1.03447985649109,oven,cat,32-3-10,0419_eid_s04_32-3-10_cat_10_n02123597_10214.png
subject-04,1,420,0.654211044311523,keyboard,keyboard,2-3-10,0420_eid_s04_2-3-10_keyboard_10_n03085013_24192.png
subject-04,1,421,0.633702993392944,boat,boat,2-3-10,0421_eid_s04_2-3-10_boat_10_n03344393_4221.png
subject-04,1,422,1.33184599876404,cat,chair,16-3-10,0422_eid_s04_16-3-10_chair_10_n02791124_12486.png
subject-04,1,423,1.03151798248291,boat,elephant,8-3-10,0423_eid_s04_8-3-10_elephant_10_n02504013_6303.png
subject-04,1,424,0.79742693901062,keyboard,oven,2-3-10,0424_eid_s04_2-3-10_oven_10_n04111531_550.png
subject-04,1,425,1.50007104873657,chair,clock,128-3-10,0425_eid_s04_128-3-10_clock_10_n03196217_5137.png
subject-04,1,426,0.830847024917603,truck,truck,8-3-10,0426_eid_s04_8-3-10_truck_10_n04467665_3098.png
subject-04,1,427,0.816751956939697,keyboard,oven,4-3-10,0427_eid_s04_4-3-10_oven_10_n04111531_1230.png
subject-04,1,428,1.02248907089233,cat,clock,32-3-10,0428_eid_s04_32-3-10_clock_10_n03196217_2805.png
subject-04,1,429,1.09448289871216,dog,oven,64-3-10,0429_eid_s04_64-3-10_oven_10_n04111531_9910.png
subject-04,1,430,0.588136196136475,cat,cat,2-3-10,0430_eid_s04_2-3-10_cat_10_n02123159_5749.png
subject-04,1,431,1.08616614341736,truck,knife,1-3-10,0431_eid_s04_1-3-10_knife_10_n03041632_36247.png
subject-04,1,432,0.841777086257935,cat,car,128-3-10,0432_eid_s04_128-3-10_car_10_n02814533_3384.png
subject-04,1,433,0.953671932220459,oven,clock,4-3-10,0433_eid_s04_4-3-10_clock_10_n04548280_4249.png
subject-04,1,434,0.761496067047119,clock,clock,2-3-10,0434_eid_s04_2-3-10_clock_10_n04548280_9533.png
subject-04,1,435,1.27927803993225,bear,bear,1-3-10,0435_eid_s04_1-3-10_bear_10_n02132136_276.png
subject-04,1,436,1.10309505462646,elephant,elephant,1-3-10,0436_eid_s04_1-3-10_elephant_10_n02504013_23590.png
subject-04,1,437,0.81700587272644,knife,knife,4-3-10,0437_eid_s04_4-3-10_knife_10_n03041632_126.png
subject-04,1,438,0.782894134521484,clock,clock,2-3-10,0438_eid_s04_2-3-10_clock_10_n03196217_11657.png
subject-04,1,439,0.738377094268799,car,car,2-3-10,0439_eid_s04_2-3-10_car_10_n02814533_65093.png
subject-04,1,440,0.914303064346313,cat,cat,32-3-10,0440_eid_s04_32-3-10_cat_10_n02123045_13340.png
subject-04,1,441,0.930149793624878,cat,elephant,32-3-10,0441_eid_s04_32-3-10_elephant_10_n02504458_12191.png
subject-04,1,442,1.22799301147461,cat,truck,8-3-10,0442_eid_s04_8-3-10_truck_10_n04467665_80629.png
subject-04,1,443,0.927863121032715,bear,bottle,128-3-10,0443_eid_s04_128-3-10_bottle_10_n03983396_5148.png
subject-04,1,444,1.42164611816406,bottle,elephant,128-3-10,0444_eid_s04_128-3-10_elephant_10_n02504013_7701.png
subject-04,1,445,1.47147798538208,clock,boat,128-3-10,0445_eid_s04_128-3-10_boat_10_n02951358_4810.png
subject-04,1,446,0.865283966064453,bear,bear,4-3-10,0446_eid_s04_4-3-10_bear_10_n02134084_12070.png
subject-04,1,447,0.821000099182129,bear,bird,4-3-10,0447_eid_s04_4-3-10_bird_10_n01860187_20777.png
subject-04,1,448,0.963222980499268,boat,knife,128-3-10,0448_eid_s04_128-3-10_knife_10_n03041632_38535.png
subject-04,1,449,1.50011801719666,chair,bottle,128-3-10,0449_eid_s04_128-3-10_bottle_10_n03937543_6624.png
subject-04,1,450,0.632508993148804,cat,chair,16-3-10,0450_eid_s04_16-3-10_chair_10_n04099969_3623.png
subject-04,1,451,0.878334999084473,bottle,bottle,4-3-10,0451_eid_s04_4-3-10_bottle_10_n04579145_4186.png
subject-04,1,452,0.529999971389771,clock,clock,2-3-10,0452_eid_s04_2-3-10_clock_10_n04548280_353.png
subject-04,1,453,1.50009512901306,knife,bicycle,1-3-10,0453_eid_s04_1-3-10_bicycle_10_n03792782_6716.png
subject-04,1,454,0.795766115188599,cat,chair,32-3-10,0454_eid_s04_32-3-10_chair_10_n02791124_2212.png
subject-04,1,455,0.77542781829834,cat,oven,32-3-10,0455_eid_s04_32-3-10_oven_10_n04111531_2027.png
subject-04,1,456,1.17744112014771,bottle,bottle,16-3-10,0456_eid_s04_16-3-10_bottle_10_n03983396_13630.png
subject-04,1,457,1.10139107704163,cat,bottle,64-3-10,0457_eid_s04_64-3-10_bottle_10_n02823428_12997.png
subject-04,1,458,1.44105505943298,bird,knife,16-3-10,0458_eid_s04_16-3-10_knife_10_n03041632_11358.png
subject-04,1,459,1.48289895057678,car,car,2-3-10,0459_eid_s04_2-3-10_car_10_n04285008_8641.png
subject-04,1,460,1.50007605552673,dog,knife,128-3-10,0460_eid_s04_128-3-10_knife_10_n03041632_21723.png
subject-04,1,461,1.31869697570801,elephant,oven,128-3-10,0461_eid_s04_128-3-10_oven_10_n04111531_9702.png
subject-04,1,462,1.50010895729065,cat,car,64-3-10,0462_eid_s04_64-3-10_car_10_n04285008_12996.png
subject-04,1,463,1.05011796951294,dog,airplane,32-3-10,0463_eid_s04_32-3-10_airplane_10_n02690373_629.png
subject-04,1,464,1.0639111995697,bird,truck,128-3-10,0464_eid_s04_128-3-10_truck_10_n03417042_5493.png
subject-04,1,465,0.715687990188599,keyboard,keyboard,8-3-10,0465_eid_s04_8-3-10_keyboard_10_n04505470_4905.png
subject-04,1,466,1.50006008148193,car,car,1-3-10,0466_eid_s04_1-3-10_car_10_n04285008_11291.png
subject-04,1,467,1.50005483627319,car,car,2-3-10,0467_eid_s04_2-3-10_car_10_n03100240_9387.png
subject-04,1,468,1.4792468547821,truck,truck,1-3-10,0468_eid_s04_1-3-10_truck_10_n03796401_3488.png
subject-04,1,469,1.3790020942688,keyboard,keyboard,4-3-10,0469_eid_s04_4-3-10_keyboard_10_n04505470_1371.png
subject-04,1,470,1.47669911384583,airplane,airplane,16-3-10,0470_eid_s04_16-3-10_airplane_10_n02690373_3753.png
subject-04,1,471,1.50008797645569,chair,chair,4-3-10,0471_eid_s04_4-3-10_chair_10_n04099969_195.png
subject-04,1,472,1.28036713600159,car,car,1-3-10,0472_eid_s04_1-3-10_car_10_n02814533_49499.png
subject-04,1,473,NaN,na,boat,16-3-10,0473_eid_s04_16-3-10_boat_10_n04612504_13446.png
subject-04,1,474,1.28397297859192,clock,clock,2-3-10,0474_eid_s04_2-3-10_clock_10_n04548280_319.png
subject-04,1,475,1.50006818771362,car,car,2-3-10,0475_eid_s04_2-3-10_car_10_n04285008_8255.png
subject-04,1,476,1.50003290176392,bear,truck,8-3-10,0476_eid_s04_8-3-10_truck_10_n03417042_29849.png
subject-04,1,477,1.50015211105347,oven,oven,4-3-10,0477_eid_s04_4-3-10_oven_10_n04111531_4012.png
subject-04,1,478,1.38735508918762,bear,bottle,16-3-10,0478_eid_s04_16-3-10_bottle_10_n02823428_7704.png
subject-04,1,479,1.50013613700867,knife,bear,8-3-10,0479_eid_s04_8-3-10_bear_10_n02133161_12161.png
subject-04,1,480,1.50014591217041,cat,oven,16-3-10,0480_eid_s04_16-3-10_oven_10_n04111531_10064.png
subject-04,1,481,1.35456585884094,cat,bird,32-3-10,0481_eid_s04_32-3-10_bird_10_n01622779_12117.png
subject-04,1,482,0.998483896255493,clock,clock,2-3-10,0482_eid_s04_2-3-10_clock_10_n04548280_6792.png
subject-04,1,483,1.17210793495178,cat,clock,128-3-10,0483_eid_s04_128-3-10_clock_10_n02708093_3361.png
subject-04,1,484,1.49613499641418,elephant,bear,2-3-10,0484_eid_s04_2-3-10_bear_10_n02133161_7332.png
subject-04,1,485,1.44819402694702,oven,keyboard,32-3-10,0485_eid_s04_32-3-10_keyboard_10_n03085013_15825.png
subject-04,1,486,0.895815849304199,bird,bird,2-3-10,0486_eid_s04_2-3-10_bird_10_n02037110_27907.png
subject-04,1,487,1.04943013191223,bird,knife,4-3-10,0487_eid_s04_4-3-10_knife_10_n03041632_19971.png
subject-04,1,488,1.18148803710938,boat,bottle,1-3-10,0488_eid_s04_1-3-10_bottle_10_n04560804_23356.png
subject-04,1,489,1.33707880973816,boat,boat,2-3-10,0489_eid_s04_2-3-10_boat_10_n04612504_27320.png
subject-04,1,490,1.5001049041748,dog,keyboard,64-3-10,0490_eid_s04_64-3-10_keyboard_10_n03085013_23828.png
subject-04,1,491,1.17072486877441,cat,elephant,32-3-10,0491_eid_s04_32-3-10_elephant_10_n02504458_6398.png
subject-04,1,492,0.640490055084229,airplane,airplane,4-3-10,0492_eid_s04_4-3-10_airplane_10_n02690373_6682.png
subject-04,1,493,1.01047015190125,chair,oven,2-3-10,0493_eid_s04_2-3-10_oven_10_n04111531_15367.png
subject-04,1,494,0.818254232406616,cat,keyboard,16-3-10,0494_eid_s04_16-3-10_keyboard_10_n03085013_6834.png
subject-04,1,495,0.63208794593811,cat,bird,32-3-10,0495_eid_s04_32-3-10_bird_10_n02002724_1235.png
subject-04,1,496,0.767924070358276,cat,boat,128-3-10,0496_eid_s04_128-3-10_boat_10_n02951358_588.png
subject-04,1,497,0.763737201690674,elephant,elephant,2-3-10,0497_eid_s04_2-3-10_elephant_10_n02504013_7001.png
subject-04,1,498,0.923373937606812,keyboard,keyboard,2-3-10,0498_eid_s04_2-3-10_keyboard_10_n03085013_6740.png
subject-04,1,499,0.879304885864258,cat,bicycle,64-3-10,0499_eid_s04_64-3-10_bicycle_10_n02835271_1344.png
subject-04,1,500,0.923156023025513,bear,bird,64-3-10,0500_eid_s04_64-3-10_bird_10_n02056570_27055.png
subject-04,1,501,0.721020221710205,airplane,airplane,2-3-10,0501_eid_s04_2-3-10_airplane_10_n02690373_7457.png
subject-04,1,502,1.1706748008728,dog,dog,8-3-10,0502_eid_s04_8-3-10_dog_10_n02099267_15002.png
subject-04,1,503,1.48437309265137,bicycle,keyboard,128-3-10,0503_eid_s04_128-3-10_keyboard_10_n03085013_24115.png
subject-04,1,504,0.976518154144287,knife,knife,1-3-10,0504_eid_s04_1-3-10_knife_10_n03041632_22570.png
subject-04,1,505,1.09047508239746,keyboard,oven,1-3-10,0505_eid_s04_1-3-10_oven_10_n04111531_9308.png
subject-04,1,506,1.20995903015137,knife,knife,4-3-10,0506_eid_s04_4-3-10_knife_10_n03041632_30196.png
subject-04,1,507,0.899761915206909,bear,clock,16-3-10,0507_eid_s04_16-3-10_clock_10_n04548280_575.png
subject-04,1,508,0.951407194137573,elephant,keyboard,32-3-10,0508_eid_s04_32-3-10_keyboard_10_n03085013_24626.png
subject-04,1,509,1.22728705406189,bear,oven,16-3-10,0509_eid_s04_16-3-10_oven_10_n04111531_14329.png
subject-04,1,510,0.737232208251953,bicycle,bicycle,8-3-10,0510_eid_s04_8-3-10_bicycle_10_n02835271_20099.png
subject-04,1,511,0.896993160247803,bird,bear,16-3-10,0511_eid_s04_16-3-10_bear_10_n02132136_33437.png
subject-04,1,512,0.892589092254639,car,car,1-3-10,0512_eid_s04_1-3-10_car_10_n03100240_84.png
subject-04,1,513,0.91062593460083,cat,bird,2-3-10,0513_eid_s04_2-3-10_bird_10_n02011460_9401.png
subject-04,1,514,1.21831798553467,bird,bird,32-3-10,0514_eid_s04_32-3-10_bird_10_n02009229_6228.png
subject-04,1,515,1.46416306495667,bicycle,bicycle,8-3-10,0515_eid_s04_8-3-10_bicycle_10_n03792782_6841.png
subject-04,1,516,1.15405583381653,keyboard,car,1-3-10,0516_eid_s04_1-3-10_car_10_n03100240_15284.png
subject-04,1,517,0.558071136474609,boat,boat,2-3-10,0517_eid_s04_2-3-10_boat_10_n02951358_34051.png
subject-04,1,518,0.689620971679688,keyboard,oven,128-3-10,0518_eid_s04_128-3-10_oven_10_n04111531_15568.png
subject-04,1,519,1.24751091003418,boat,bear,16-3-10,0519_eid_s04_16-3-10_bear_10_n02132136_19290.png
subject-04,1,520,1.10957312583923,truck,truck,2-3-10,0520_eid_s04_2-3-10_truck_10_n03417042_6247.png
subject-04,1,521,1.47913193702698,boat,car,32-3-10,0521_eid_s04_32-3-10_car_10_n02814533_34289.png
subject-04,1,522,1.30100607872009,bear,bicycle,32-3-10,0522_eid_s04_32-3-10_bicycle_10_n03792782_14476.png
subject-04,1,523,0.778923988342285,elephant,elephant,4-3-10,0523_eid_s04_4-3-10_elephant_10_n02504013_1740.png
subject-04,1,524,0.944606065750122,truck,truck,2-3-10,0524_eid_s04_2-3-10_truck_10_n04467665_1101.png
subject-04,1,525,1.1122670173645,bear,bottle,32-3-10,0525_eid_s04_32-3-10_bottle_10_n02823428_13280.png
subject-04,1,526,1.11832094192505,cat,boat,128-3-10,0526_eid_s04_128-3-10_boat_10_n03662601_9628.png
subject-04,1,527,0.650358915328979,knife,knife,2-3-10,0527_eid_s04_2-3-10_knife_10_n03041632_79317.png
subject-04,1,528,1.26587986946106,elephant,clock,16-3-10,0528_eid_s04_16-3-10_clock_10_n04548280_6134.png
subject-04,1,529,1.26757907867432,chair,knife,32-3-10,0529_eid_s04_32-3-10_knife_10_n03041632_39883.png
subject-04,1,530,1.33963012695312,elephant,truck,128-3-10,0530_eid_s04_128-3-10_truck_10_n03796401_1335.png
subject-04,1,531,0.699111938476562,bear,clock,32-3-10,0531_eid_s04_32-3-10_clock_10_n02708093_3790.png
subject-04,1,532,1.38897490501404,oven,clock,8-3-10,0532_eid_s04_8-3-10_clock_10_n02708093_2588.png
subject-04,1,533,0.774739027023315,car,car,4-3-10,0533_eid_s04_4-3-10_car_10_n02814533_52674.png
subject-04,1,534,1.29872012138367,bear,truck,16-3-10,0534_eid_s04_16-3-10_truck_10_n03417042_2767.png
subject-04,1,535,1.50007200241089,chair,dog,16-3-10,0535_eid_s04_16-3-10_dog_10_n02096051_5524.png
subject-04,1,536,NaN,na,elephant,16-3-10,0536_eid_s04_16-3-10_elephant_10_n02504013_1900.png
subject-04,1,537,0.630141019821167,elephant,elephant,1-3-10,0537_eid_s04_1-3-10_elephant_10_n02504458_6888.png
subject-04,1,538,1.07216596603394,cat,cat,8-3-10,0538_eid_s04_8-3-10_cat_10_n02123045_8636.png
subject-04,1,539,1.41170811653137,car,boat,8-3-10,0539_eid_s04_8-3-10_boat_10_n03344393_7557.png
subject-04,1,540,1.24989295005798,bear,bear,2-3-10,0540_eid_s04_2-3-10_bear_10_n02134084_18596.png
subject-04,1,541,1.03344106674194,cat,elephant,128-3-10,0541_eid_s04_128-3-10_elephant_10_n02504458_2068.png
subject-04,1,542,1.13517904281616,oven,car,128-3-10,0542_eid_s04_128-3-10_car_10_n04285008_4069.png
subject-04,1,543,1.50008392333984,bear,bird,16-3-10,0543_eid_s04_16-3-10_bird_10_n01582220_32464.png
subject-04,1,544,0.962873935699463,knife,knife,1-3-10,0544_eid_s04_1-3-10_knife_10_n03041632_94202.png
subject-04,1,545,1.14466905593872,bear,boat,16-3-10,0545_eid_s04_16-3-10_boat_10_n04612504_673.png
subject-04,1,546,1.50003099441528,bear,elephant,8-3-10,0546_eid_s04_8-3-10_elephant_10_n02504458_8141.png
subject-04,1,547,1.01450395584106,elephant,elephant,16-3-10,0547_eid_s04_16-3-10_elephant_10_n02504013_6904.png
subject-04,1,548,0.954532861709595,cat,car,32-3-10,0548_eid_s04_32-3-10_car_10_n03100240_5946.png
subject-04,1,549,0.661922931671143,keyboard,keyboard,4-3-10,0549_eid_s04_4-3-10_keyboard_10_n03085013_16636.png
subject-04,1,550,1.46158003807068,oven,bear,128-3-10,0550_eid_s04_128-3-10_bear_10_n02133161_5020.png
subject-04,1,551,1.46166086196899,bottle,bottle,128-3-10,0551_eid_s04_128-3-10_bottle_10_n03983396_18508.png
subject-04,1,552,0.649534940719604,bicycle,bicycle,4-3-10,0552_eid_s04_4-3-10_bicycle_10_n02835271_8180.png
subject-04,1,553,0.669166803359985,car,car,4-3-10,0553_eid_s04_4-3-10_car_10_n03100240_13673.png
subject-04,1,554,0.820841073989868,bear,bear,1-3-10,0554_eid_s04_1-3-10_bear_10_n02133161_4223.png
subject-04,1,555,0.808835029602051,bird,car,16-3-10,0555_eid_s04_16-3-10_car_10_n02814533_12310.png
subject-04,1,556,1.20265817642212,bottle,dog,8-3-10,0556_eid_s04_8-3-10_dog_10_n02107574_2354.png
subject-04,1,557,0.948550939559937,airplane,airplane,8-3-10,0557_eid_s04_8-3-10_airplane_10_n02690373_5010.png
subject-04,1,558,0.952213048934937,bear,knife,64-3-10,0558_eid_s04_64-3-10_knife_10_n03041632_48071.png
subject-04,1,559,0.736067056655884,bottle,chair,2-3-10,0559_eid_s04_2-3-10_chair_10_n02791124_2649.png
subject-04,1,560,1.04424691200256,bottle,chair,4-3-10,0560_eid_s04_4-3-10_chair_10_n04429376_22734.png
subject-04,1,561,0.950929164886475,bicycle,bicycle,2-3-10,0561_eid_s04_2-3-10_bicycle_10_n02835271_3956.png
subject-04,1,562,1.46072196960449,chair,oven,1-3-10,0562_eid_s04_1-3-10_oven_10_n04111531_8350.png
subject-04,1,563,0.812617063522339,cat,dog,128-3-10,0563_eid_s04_128-3-10_dog_10_n02100583_1343.png
subject-04,1,564,1.29228901863098,keyboard,oven,8-3-10,0564_eid_s04_8-3-10_oven_10_n04111531_5473.png
subject-04,1,565,1.45622086524963,bottle,chair,2-3-10,0565_eid_s04_2-3-10_chair_10_n04429376_6029.png
subject-04,1,566,0.802007913589478,oven,cat,1-3-10,0566_eid_s04_1-3-10_cat_10_n02123394_5700.png
subject-04,1,567,1.48419690132141,elephant,car,64-3-10,0567_eid_s04_64-3-10_car_10_n03100240_362.png
subject-04,1,568,1.49759101867676,cat,dog,64-3-10,0568_eid_s04_64-3-10_dog_10_n02092002_6122.png
subject-04,1,569,1.44349718093872,dog,bear,2-3-10,0569_eid_s04_2-3-10_bear_10_n02134084_14360.png
subject-04,1,570,0.893424034118652,bear,bear,4-3-10,0570_eid_s04_4-3-10_bear_10_n02133161_11422.png
subject-04,1,571,0.871079921722412,bottle,bottle,2-3-10,0571_eid_s04_2-3-10_bottle_10_n02823428_4068.png
subject-04,1,572,0.982721090316772,dog,dog,8-3-10,0572_eid_s04_8-3-10_dog_10_n02096294_5781.png
subject-04,1,573,1.03301811218262,bear,clock,32-3-10,0573_eid_s04_32-3-10_clock_10_n02708093_8104.png
subject-04,1,574,0.760437965393066,cat,car,16-3-10,0574_eid_s04_16-3-10_car_10_n03100240_8012.png
subject-04,1,575,1.46235108375549,airplane,bicycle,16-3-10,0575_eid_s04_16-3-10_bicycle_10_n02835271_4246.png
subject-04,1,576,1.500079870224,airplane,knife,128-3-10,0576_eid_s04_128-3-10_knife_10_n03041632_7119.png
subject-04,1,577,0.872051000595093,dog,dog,1-3-10,0577_eid_s04_1-3-10_dog_10_n02106166_476.png
subject-04,1,578,0.857717990875244,car,car,4-3-10,0578_eid_s04_4-3-10_car_10_n02814533_95669.png
subject-04,1,579,1.47936701774597,bottle,bicycle,64-3-10,0579_eid_s04_64-3-10_bicycle_10_n03792782_551.png
subject-04,1,580,1.02119493484497,cat,bear,128-3-10,0580_eid_s04_128-3-10_bear_10_n02133161_5723.png
subject-04,1,581,1.21941304206848,car,chair,4-3-10,0581_eid_s04_4-3-10_chair_10_n02791124_7987.png
subject-04,1,582,0.807054996490479,bird,bird,2-3-10,0582_eid_s04_2-3-10_bird_10_n01855032_7457.png
subject-04,1,583,0.830724000930786,chair,bear,2-3-10,0583_eid_s04_2-3-10_bear_10_n02134418_860.png
subject-04,1,584,1.0385799407959,boat,boat,8-3-10,0584_eid_s04_8-3-10_boat_10_n02951358_4650.png
subject-04,1,585,0.852218151092529,bird,bird,4-3-10,0585_eid_s04_4-3-10_bird_10_n01855672_14476.png
subject-04,1,586,1.2261438369751,truck,truck,2-3-10,0586_eid_s04_2-3-10_truck_10_n04467665_7975.png
subject-04,1,587,1.19010090827942,cat,oven,1-3-10,0587_eid_s04_1-3-10_oven_10_n04111531_19274.png
subject-04,1,588,1.22419190406799,oven,bird,8-3-10,0588_eid_s04_8-3-10_bird_10_n02011460_3761.png
subject-04,1,589,1.16567301750183,bear,bicycle,4-3-10,0589_eid_s04_4-3-10_bicycle_10_n03792782_7667.png
subject-04,1,590,0.831309080123901,cat,cat,8-3-10,0590_eid_s04_8-3-10_cat_10_n02124075_5828.png
subject-04,1,591,1.17926096916199,bird,knife,8-3-10,0591_eid_s04_8-3-10_knife_10_n03041632_24114.png
subject-04,1,592,1.5000479221344,airplane,oven,32-3-10,0592_eid_s04_32-3-10_oven_10_n04111531_7134.png
subject-04,1,593,1.50008106231689,dog,bottle,16-3-10,0593_eid_s04_16-3-10_bottle_10_n03983396_2746.png
subject-04,1,594,1.27061414718628,oven,boat,128-3-10,0594_eid_s04_128-3-10_boat_10_n03662601_21992.png
subject-04,1,595,0.960596084594727,knife,chair,64-3-10,0595_eid_s04_64-3-10_chair_10_n04429376_10476.png
subject-04,1,596,1.12836313247681,bottle,knife,8-3-10,0596_eid_s04_8-3-10_knife_10_n03041632_20433.png
subject-04,1,597,1.2780749797821,dog,bear,16-3-10,0597_eid_s04_16-3-10_bear_10_n02133161_79.png
subject-04,1,598,1.50009107589722,airplane,airplane,16-3-10,0598_eid_s04_16-3-10_airplane_10_n02690373_7279.png
subject-04,1,599,1.4957640171051,elephant,chair,64-3-10,0599_eid_s04_64-3-10_chair_10_n04099969_34351.png
subject-04,1,600,0.581962108612061,airplane,airplane,8-3-10,0600_eid_s04_8-3-10_airplane_10_n02690373_7465.png
subject-04,1,601,1.32726192474365,dog,cat,64-3-10,0601_eid_s04_64-3-10_cat_10_n02125311_2869.png
subject-04,1,602,1.50004506111145,elephant,cat,4-3-10,0602_eid_s04_4-3-10_cat_10_n02125311_26954.png
subject-04,1,603,0.594967126846313,clock,clock,8-3-10,0603_eid_s04_8-3-10_clock_10_n04548280_6477.png
subject-04,1,604,0.873315095901489,bear,bear,16-3-10,0604_eid_s04_16-3-10_bear_10_n02132136_1211.png
subject-04,1,605,1.50016903877258,cat,elephant,4-3-10,0605_eid_s04_4-3-10_elephant_10_n02504013_7271.png
subject-04,1,606,1.09457612037659,oven,knife,32-3-10,0606_eid_s04_32-3-10_knife_10_n03041632_45326.png
subject-04,1,607,0.996228933334351,knife,knife,4-3-10,0607_eid_s04_4-3-10_knife_10_n03041632_4443.png
subject-04,1,608,1.36016702651978,dog,clock,64-3-10,0608_eid_s04_64-3-10_clock_10_n03196217_6809.png
subject-04,1,609,0.682001113891602,cat,boat,32-3-10,0609_eid_s04_32-3-10_boat_10_n02951358_15413.png
subject-04,1,610,1.50007700920105,bottle,cat,32-3-10,0610_eid_s04_32-3-10_cat_10_n02124075_10162.png
subject-04,1,611,1.49759197235107,car,truck,64-3-10,0611_eid_s04_64-3-10_truck_10_n03417042_4934.png
subject-04,1,612,0.883245944976807,oven,oven,4-3-10,0612_eid_s04_4-3-10_oven_10_n04111531_13520.png
subject-04,1,613,1.35925602912903,clock,cat,32-3-10,0613_eid_s04_32-3-10_cat_10_n02123045_4252.png
subject-04,1,614,0.807097911834717,knife,boat,1-3-10,0614_eid_s04_1-3-10_boat_10_n02951358_1136.png
subject-04,1,615,1.50007605552673,clock,keyboard,64-3-10,0615_eid_s04_64-3-10_keyboard_10_n04505470_4824.png
subject-04,1,616,0.686707973480225,bear,bear,1-3-10,0616_eid_s04_1-3-10_bear_10_n02134418_9829.png
subject-04,1,617,1.18849301338196,bear,keyboard,16-3-10,0617_eid_s04_16-3-10_keyboard_10_n03085013_3439.png
subject-04,1,618,1.41817212104797,cat,boat,64-3-10,0618_eid_s04_64-3-10_boat_10_n04273569_13044.png
subject-04,1,619,1.50003910064697,elephant,clock,128-3-10,0619_eid_s04_128-3-10_clock_10_n03196217_7795.png
subject-04,1,620,1.17196202278137,dog,elephant,32-3-10,0620_eid_s04_32-3-10_elephant_10_n02504458_1211.png
subject-04,1,621,1.1815619468689,dog,knife,64-3-10,0621_eid_s04_64-3-10_knife_10_n03041632_13194.png
subject-04,1,622,0.997514963150024,bottle,clock,4-3-10,0622_eid_s04_4-3-10_clock_10_n03196217_1376.png
subject-04,1,623,0.641271829605103,airplane,airplane,2-3-10,0623_eid_s04_2-3-10_airplane_10_n02690373_19345.png
subject-04,1,624,1.03500390052795,boat,boat,4-3-10,0624_eid_s04_4-3-10_boat_10_n03662601_14818.png
subject-04,1,625,0.882893800735474,bear,truck,16-3-10,0625_eid_s04_16-3-10_truck_10_n04467665_3038.png
subject-04,1,626,1.05856990814209,car,truck,4-3-10,0626_eid_s04_4-3-10_truck_10_n03417042_6654.png
subject-04,1,627,0.920603036880493,car,car,4-3-10,0627_eid_s04_4-3-10_car_10_n02814533_55326.png
subject-04,1,628,1.0783851146698,boat,chair,16-3-10,0628_eid_s04_16-3-10_chair_10_n03376595_6864.png
subject-04,1,629,0.838268041610718,bicycle,bicycle,1-3-10,0629_eid_s04_1-3-10_bicycle_10_n03792782_4864.png
subject-04,1,630,0.942002058029175,boat,oven,1-3-10,0630_eid_s04_1-3-10_oven_10_n04111531_18916.png
subject-04,1,631,0.881683111190796,cat,truck,16-3-10,0631_eid_s04_16-3-10_truck_10_n03796401_2751.png
subject-04,1,632,0.683528900146484,keyboard,keyboard,1-3-10,0632_eid_s04_1-3-10_keyboard_10_n04505470_1351.png
subject-04,1,633,1.12160110473633,knife,bird,16-3-10,0633_eid_s04_16-3-10_bird_10_n01833805_3242.png
subject-04,1,634,1.38941979408264,bear,bear,64-3-10,0634_eid_s04_64-3-10_bear_10_n02134418_14850.png
subject-04,1,635,1.39102411270142,cat,knife,16-3-10,0635_eid_s04_16-3-10_knife_10_n03041632_32004.png
subject-04,1,636,0.636960983276367,bottle,bottle,1-3-10,0636_eid_s04_1-3-10_bottle_10_n03937543_1358.png
subject-04,1,637,0.624644994735718,keyboard,keyboard,2-3-10,0637_eid_s04_2-3-10_keyboard_10_n04505470_4294.png
subject-04,1,638,0.93254017829895,elephant,elephant,4-3-10,0638_eid_s04_4-3-10_elephant_10_n02504013_6065.png
subject-04,1,639,1.49999809265137,bird,boat,128-3-10,0639_eid_s04_128-3-10_boat_10_n04612504_2225.png
subject-04,1,640,1.35003399848938,oven,oven,16-3-10,0640_eid_s04_16-3-10_oven_10_n04111531_4467.png
subject-04,1,641,1.05460095405579,cat,clock,16-3-10,0641_eid_s04_16-3-10_clock_10_n04548280_64.png
subject-04,1,642,1.31646513938904,elephant,oven,8-3-10,0642_eid_s04_8-3-10_oven_10_n04111531_1002.png
subject-04,1,643,0.968297004699707,elephant,bottle,64-3-10,0643_eid_s04_64-3-10_bottle_10_n03937543_4523.png
subject-04,1,644,0.814188957214355,bear,airplane,128-3-10,0644_eid_s04_128-3-10_airplane_10_n02690373_2967.png
subject-04,1,645,1.46606206893921,oven,knife,16-3-10,0645_eid_s04_16-3-10_knife_10_n03041632_8528.png
subject-04,1,646,1.13010692596436,car,car,8-3-10,0646_eid_s04_8-3-10_car_10_n04285008_2395.png
subject-04,1,647,0.833460092544556,knife,knife,1-3-10,0647_eid_s04_1-3-10_knife_10_n03041632_36277.png
subject-04,1,648,0.955339193344116,oven,truck,32-3-10,0648_eid_s04_32-3-10_truck_10_n03417042_5180.png
subject-04,1,649,0.895517110824585,boat,boat,1-3-10,0649_eid_s04_1-3-10_boat_10_n04273569_24526.png
subject-04,1,650,0.600817918777466,cat,keyboard,16-3-10,0650_eid_s04_16-3-10_keyboard_10_n04505470_3388.png
subject-04,1,651,1.17265677452087,airplane,airplane,16-3-10,0651_eid_s04_16-3-10_airplane_10_n02690373_5714.png
subject-04,1,652,1.14689803123474,airplane,knife,16-3-10,0652_eid_s04_16-3-10_knife_10_n03041632_3210.png
subject-04,1,653,1.0044150352478,airplane,airplane,16-3-10,0653_eid_s04_16-3-10_airplane_10_n02690373_1038.png
subject-04,1,654,1.50005793571472,clock,oven,16-3-10,0654_eid_s04_16-3-10_oven_10_n04111531_8537.png
subject-04,1,655,0.7080979347229,airplane,airplane,4-3-10,0655_eid_s04_4-3-10_airplane_10_n02690373_5992.png
subject-04,1,656,1.38974404335022,dog,knife,64-3-10,0656_eid_s04_64-3-10_knife_10_n03041632_19571.png
subject-04,1,657,0.773968935012817,car,car,4-3-10,0657_eid_s04_4-3-10_car_10_n03100240_12560.png
subject-04,1,658,0.651695013046265,oven,oven,1-3-10,0658_eid_s04_1-3-10_oven_10_n04111531_10093.png
subject-04,1,659,1.47719097137451,boat,clock,16-3-10,0659_eid_s04_16-3-10_clock_10_n04548280_1041.png
subject-04,1,660,0.761174201965332,boat,boat,8-3-10,0660_eid_s04_8-3-10_boat_10_n02951358_30908.png
subject-04,1,661,0.747086048126221,cat,bicycle,64-3-10,0661_eid_s04_64-3-10_bicycle_10_n03792782_20007.png
subject-04,1,662,1.21887302398682,bird,bird,1-3-10,0662_eid_s04_1-3-10_bird_10_n02011460_6726.png
subject-04,1,663,1.20658707618713,airplane,dog,2-3-10,0663_eid_s04_2-3-10_dog_10_n02092339_3615.png
subject-04,1,664,1.0744891166687,cat,car,64-3-10,0664_eid_s04_64-3-10_car_10_n04285008_2887.png
subject-04,1,665,1.10215592384338,cat,clock,128-3-10,0665_eid_s04_128-3-10_clock_10_n04548280_377.png
subject-04,1,666,1.18229198455811,keyboard,boat,64-3-10,0666_eid_s04_64-3-10_boat_10_n02951358_4544.png
subject-04,1,667,0.777657985687256,cat,bird,64-3-10,0667_eid_s04_64-3-10_bird_10_n01601694_935.png
subject-04,1,668,0.758111000061035,bear,truck,64-3-10,0668_eid_s04_64-3-10_truck_10_n04467665_79576.png
subject-04,1,669,1.48745703697205,car,car,8-3-10,0669_eid_s04_8-3-10_car_10_n03100240_327.png
subject-04,1,670,1.46736598014832,bicycle,bicycle,4-3-10,0670_eid_s04_4-3-10_bicycle_10_n03792782_1833.png
subject-04,1,671,1.13308191299438,keyboard,keyboard,4-3-10,0671_eid_s04_4-3-10_keyboard_10_n03085013_21272.png
subject-04,1,672,1.48109316825867,bicycle,bicycle,4-3-10,0672_eid_s04_4-3-10_bicycle_10_n03792782_16212.png
subject-04,1,673,1.50014686584473,bear,bear,64-3-10,0673_eid_s04_64-3-10_bear_10_n02134418_2964.png
subject-04,1,674,0.570617914199829,oven,oven,2-3-10,0674_eid_s04_2-3-10_oven_10_n04111531_3902.png
subject-04,1,675,0.488327980041504,clock,clock,1-3-10,0675_eid_s04_1-3-10_clock_10_n04548280_2937.png
subject-04,1,676,1.49209499359131,airplane,boat,32-3-10,0676_eid_s04_32-3-10_boat_10_n04273569_5593.png
subject-04,1,677,0.751866102218628,boat,boat,2-3-10,0677_eid_s04_2-3-10_boat_10_n02951358_8184.png
subject-04,1,678,1.00399899482727,cat,oven,128-3-10,0678_eid_s04_128-3-10_oven_10_n04111531_986.png
subject-04,1,679,1.421706199646,bird,chair,8-3-10,0679_eid_s04_8-3-10_chair_10_n02791124_16926.png
subject-04,1,680,1.20131707191467,bottle,chair,1-3-10,0680_eid_s04_1-3-10_chair_10_n03376595_8252.png
subject-04,1,681,1.49322605133057,boat,bottle,32-3-10,0681_eid_s04_32-3-10_bottle_10_n04557648_3768.png
subject-04,1,682,1.50012302398682,oven,clock,8-3-10,0682_eid_s04_8-3-10_clock_10_n03196217_564.png
subject-04,1,683,1.40291905403137,chair,oven,4-3-10,0683_eid_s04_4-3-10_oven_10_n04111531_6217.png
subject-04,1,684,1.09267902374268,oven,bicycle,32-3-10,0684_eid_s04_32-3-10_bicycle_10_n02835271_8203.png
subject-04,1,685,1.14845204353333,elephant,elephant,8-3-10,0685_eid_s04_8-3-10_elephant_10_n02504013_10638.png
subject-04,1,686,1.0263831615448,chair,chair,1-3-10,0686_eid_s04_1-3-10_chair_10_n04429376_2915.png
subject-04,1,687,0.958263874053955,knife,oven,4-3-10,0687_eid_s04_4-3-10_oven_10_n04111531_12903.png
subject-04,1,688,0.929909944534302,bottle,knife,2-3-10,0688_eid_s04_2-3-10_knife_10_n03041632_30666.png
subject-04,1,689,0.969989061355591,bicycle,bicycle,2-3-10,0689_eid_s04_2-3-10_bicycle_10_n02835271_8654.png
subject-04,1,690,0.847596168518066,bear,bicycle,64-3-10,0690_eid_s04_64-3-10_bicycle_10_n02835271_22448.png
subject-04,1,691,1.11547493934631,dog,bird,16-3-10,0691_eid_s04_16-3-10_bird_10_n01532829_4776.png
subject-04,1,692,1.23503518104553,dog,chair,8-3-10,0692_eid_s04_8-3-10_chair_10_n04099969_20421.png
subject-04,1,693,1.0409369468689,dog,dog,16-3-10,0693_eid_s04_16-3-10_dog_10_n02112350_4795.png
subject-04,1,694,1.36282300949097,elephant,bicycle,128-3-10,0694_eid_s04_128-3-10_bicycle_10_n03792782_70724.png
subject-04,1,695,0.880717039108276,keyboard,keyboard,4-3-10,0695_eid_s04_4-3-10_keyboard_10_n03085013_5819.png
subject-04,1,696,1.02283620834351,bear,bear,8-3-10,0696_eid_s04_8-3-10_bear_10_n02134418_4406.png
subject-04,1,697,0.904392004013062,bird,bird,1-3-10,0697_eid_s04_1-3-10_bird_10_n01820546_4457.png
subject-04,1,698,0.967880010604858,bear,bear,32-3-10,0698_eid_s04_32-3-10_bear_10_n02134084_11781.png
subject-04,1,699,1.07997798919678,truck,truck,2-3-10,0699_eid_s04_2-3-10_truck_10_n04467665_68785.png
subject-04,1,700,0.825610876083374,bird,bird,1-3-10,0700_eid_s04_1-3-10_bird_10_n02033041_4140.png
subject-04,1,701,1.21961402893066,bear,bottle,64-3-10,0701_eid_s04_64-3-10_bottle_10_n03937543_49.png
subject-04,1,702,1.50005984306335,elephant,car,128-3-10,0702_eid_s04_128-3-10_car_10_n03100240_688.png
subject-04,1,703,0.986963033676147,airplane,airplane,16-3-10,0703_eid_s04_16-3-10_airplane_10_n02690373_8611.png
subject-04,1,704,1.47488498687744,dog,keyboard,32-3-10,0704_eid_s04_32-3-10_keyboard_10_n04505470_524.png
subject-04,1,705,1.15718603134155,bear,oven,16-3-10,0705_eid_s04_16-3-10_oven_10_n04111531_23668.png
subject-04,1,706,0.804586172103882,chair,chair,2-3-10,0706_eid_s04_2-3-10_chair_10_n04429376_6496.png
subject-04,1,707,0.948245048522949,clock,clock,1-3-10,0707_eid_s04_1-3-10_clock_10_n02708093_51.png
subject-04,1,708,0.848149061203003,bird,bird,8-3-10,0708_eid_s04_8-3-10_bird_10_n01614925_47.png
subject-04,1,709,0.992099046707153,boat,boat,8-3-10,0709_eid_s04_8-3-10_boat_10_n03344393_5177.png
subject-04,1,710,1.07168579101562,bear,bicycle,64-3-10,0710_eid_s04_64-3-10_bicycle_10_n02835271_262.png
subject-04,1,711,0.941895008087158,bird,bear,16-3-10,0711_eid_s04_16-3-10_bear_10_n02133161_3850.png
subject-04,1,712,0.819410085678101,bear,bear,4-3-10,0712_eid_s04_4-3-10_bear_10_n02133161_5325.png
subject-04,1,713,1.4312379360199,bird,airplane,64-3-10,0713_eid_s04_64-3-10_airplane_10_n02690373_3377.png
subject-04,1,714,0.58119797706604,oven,cat,1-3-10,0714_eid_s04_1-3-10_cat_10_n02125311_7527.png
subject-04,1,715,1.13281106948853,elephant,cat,4-3-10,0715_eid_s04_4-3-10_cat_10_n02125311_20388.png
subject-04,1,716,1.13462114334106,bird,clock,64-3-10,0716_eid_s04_64-3-10_clock_10_n03196217_1000.png
subject-04,1,717,1.42030906677246,keyboard,car,32-3-10,0717_eid_s04_32-3-10_car_10_n02814533_70922.png
subject-04,1,718,1.00830698013306,bear,elephant,8-3-10,0718_eid_s04_8-3-10_elephant_10_n02504013_848.png
subject-04,1,719,0.871987104415894,dog,dog,16-3-10,0719_eid_s04_16-3-10_dog_10_n02094258_2981.png
subject-04,1,720,0.777869939804077,elephant,elephant,8-3-10,0720_eid_s04_8-3-10_elephant_10_n02504458_13245.png
subject-04,1,721,1.24576306343079,oven,boat,64-3-10,0721_eid_s04_64-3-10_boat_10_n02951358_35073.png
subject-04,1,722,1.46762299537659,bottle,keyboard,64-3-10,0722_eid_s04_64-3-10_keyboard_10_n03085013_3098.png
subject-04,1,723,1.27963185310364,bottle,oven,4-3-10,0723_eid_s04_4-3-10_oven_10_n04111531_6445.png
subject-04,1,724,0.64153790473938,airplane,airplane,8-3-10,0724_eid_s04_8-3-10_airplane_10_n02690373_7535.png
subject-04,1,725,1.48704409599304,cat,boat,32-3-10,0725_eid_s04_32-3-10_boat_10_n04273569_9604.png
subject-04,1,726,0.778957843780518,bird,dog,8-3-10,0726_eid_s04_8-3-10_dog_10_n02096585_2118.png
subject-04,1,727,1.056715965271,cat,oven,16-3-10,0727_eid_s04_16-3-10_oven_10_n04111531_3270.png
subject-04,1,728,1.24654603004456,bottle,knife,16-3-10,0728_eid_s04_16-3-10_knife_10_n03041632_42185.png
subject-04,1,729,1.39619207382202,bear,car,16-3-10,0729_eid_s04_16-3-10_car_10_n04285008_7909.png
subject-04,1,730,1.12626004219055,knife,knife,1-3-10,0730_eid_s04_1-3-10_knife_10_n03041632_9963.png
subject-04,1,731,1.30004405975342,keyboard,bottle,8-3-10,0731_eid_s04_8-3-10_bottle_10_n04591713_3534.png
subject-04,1,732,0.693859100341797,bottle,bottle,8-3-10,0732_eid_s04_8-3-10_bottle_10_n04557648_5935.png
subject-04,1,733,1.06353521347046,bird,bear,8-3-10,0733_eid_s04_8-3-10_bear_10_n02132136_648.png
subject-04,1,734,1.50006413459778,keyboard,bicycle,32-3-10,0734_eid_s04_32-3-10_bicycle_10_n02835271_12288.png
subject-04,1,735,0.733339786529541,elephant,elephant,1-3-10,0735_eid_s04_1-3-10_elephant_10_n02504013_6615.png
subject-04,1,736,0.79107403755188,bottle,oven,8-3-10,0736_eid_s04_8-3-10_oven_10_n04111531_14280.png
subject-04,1,737,0.997102022171021,bottle,chair,4-3-10,0737_eid_s04_4-3-10_chair_10_n02791124_2023.png
subject-04,1,738,0.724905014038086,oven,keyboard,16-3-10,0738_eid_s04_16-3-10_keyboard_10_n03085013_2166.png
subject-04,1,739,0.860569953918457,dog,dog,1-3-10,0739_eid_s04_1-3-10_dog_10_n02091134_5848.png
subject-04,1,740,0.918586015701294,cat,bear,64-3-10,0740_eid_s04_64-3-10_bear_10_n02134084_34375.png
subject-04,1,741,0.960031032562256,cat,elephant,128-3-10,0741_eid_s04_128-3-10_elephant_10_n02504458_12165.png
subject-04,1,742,0.711929798126221,bear,bird,16-3-10,0742_eid_s04_16-3-10_bird_10_n02011460_23755.png
subject-04,1,743,1.50010299682617,airplane,truck,128-3-10,0743_eid_s04_128-3-10_truck_10_n03796401_6923.png
subject-04,1,744,1.25785613059998,oven,airplane,64-3-10,0744_eid_s04_64-3-10_airplane_10_n02690373_7107.png
subject-04,1,745,0.705436944961548,clock,clock,2-3-10,0745_eid_s04_2-3-10_clock_10_n04548280_4583.png
subject-04,1,746,0.989093065261841,bear,bear,8-3-10,0746_eid_s04_8-3-10_bear_10_n02132136_1694.png
subject-04,1,747,0.928975820541382,cat,boat,16-3-10,0747_eid_s04_16-3-10_boat_10_n02951358_9103.png
subject-04,1,748,0.852900981903076,chair,chair,2-3-10,0748_eid_s04_2-3-10_chair_10_n04099969_24235.png
subject-04,1,749,0.862529993057251,boat,boat,4-3-10,0749_eid_s04_4-3-10_boat_10_n03344393_7362.png
subject-04,1,750,0.998395919799805,knife,keyboard,8-3-10,0750_eid_s04_8-3-10_keyboard_10_n03085013_19512.png
subject-04,1,751,0.830157041549683,oven,oven,64-3-10,0751_eid_s04_64-3-10_oven_10_n04111531_892.png
subject-04,1,752,1.06185483932495,dog,dog,2-3-10,0752_eid_s04_2-3-10_dog_10_n02106382_5226.png
subject-04,1,753,0.625931024551392,boat,keyboard,2-3-10,0753_eid_s04_2-3-10_keyboard_10_n03085013_29042.png
subject-04,1,754,1.43378090858459,chair,truck,16-3-10,0754_eid_s04_16-3-10_truck_10_n03796401_8523.png
subject-04,1,755,0.689357042312622,boat,oven,32-3-10,0755_eid_s04_32-3-10_oven_10_n04111531_22797.png
subject-04,1,756,0.837563991546631,bird,bird,4-3-10,0756_eid_s04_4-3-10_bird_10_n01828970_2306.png
subject-04,1,757,1.0671169757843,bear,cat,8-3-10,0757_eid_s04_8-3-10_cat_10_n02123159_7239.png
subject-04,1,758,0.882824182510376,cat,oven,2-3-10,0758_eid_s04_2-3-10_oven_10_n04111531_2797.png
subject-04,1,759,0.770586967468262,cat,dog,64-3-10,0759_eid_s04_64-3-10_dog_10_n02096294_3014.png
subject-04,1,760,0.69045615196228,airplane,airplane,8-3-10,0760_eid_s04_8-3-10_airplane_10_n02690373_2851.png
subject-04,1,761,0.918498039245605,knife,knife,4-3-10,0761_eid_s04_4-3-10_knife_10_n03041632_27898.png
subject-04,1,762,0.749963998794556,cat,cat,4-3-10,0762_eid_s04_4-3-10_cat_10_n02124075_2113.png
subject-04,1,763,0.809850931167603,airplane,truck,8-3-10,0763_eid_s04_8-3-10_truck_10_n03417042_18127.png
subject-04,1,764,0.749659776687622,cat,knife,32-3-10,0764_eid_s04_32-3-10_knife_10_n03041632_30286.png
subject-04,1,765,0.7935950756073,elephant,elephant,4-3-10,0765_eid_s04_4-3-10_elephant_10_n02504458_2343.png
subject-04,1,766,1.05330300331116,dog,truck,32-3-10,0766_eid_s04_32-3-10_truck_10_n04467665_37953.png
subject-04,1,767,1.08131313323975,bear,bird,8-3-10,0767_eid_s04_8-3-10_bird_10_n01820546_1941.png
subject-04,1,768,1.02101802825928,keyboard,knife,8-3-10,0768_eid_s04_8-3-10_knife_10_n03041632_30958.png
subject-04,1,769,0.890733957290649,truck,truck,4-3-10,0769_eid_s04_4-3-10_truck_10_n04467665_71098.png
subject-04,1,770,1.07309508323669,dog,elephant,64-3-10,0770_eid_s04_64-3-10_elephant_10_n02504458_11345.png
subject-04,1,771,1.50012016296387,oven,bear,1-3-10,0771_eid_s04_1-3-10_bear_10_n02133161_1656.png
subject-04,1,772,0.936604022979736,truck,truck,1-3-10,0772_eid_s04_1-3-10_truck_10_n03417042_4900.png
subject-04,1,773,0.916165113449097,keyboard,bicycle,2-3-10,0773_eid_s04_2-3-10_bicycle_10_n02835271_14879.png
subject-04,1,774,1.44977688789368,airplane,airplane,128-3-10,0774_eid_s04_128-3-10_airplane_10_n02690373_9312.png
subject-04,1,775,0.763792037963867,dog,dog,2-3-10,0775_eid_s04_2-3-10_dog_10_n02093428_16887.png
subject-04,1,776,1.42367696762085,elephant,bottle,32-3-10,0776_eid_s04_32-3-10_bottle_10_n04560804_16815.png
subject-04,1,777,0.823337078094482,truck,truck,4-3-10,0777_eid_s04_4-3-10_truck_10_n04467665_1840.png
subject-04,1,778,1.49934601783752,chair,oven,32-3-10,0778_eid_s04_32-3-10_oven_10_n04111531_22466.png
subject-04,1,779,1.10106110572815,dog,dog,2-3-10,0779_eid_s04_2-3-10_dog_10_n02102040_988.png
subject-04,1,780,1.00481605529785,boat,airplane,2-3-10,0780_eid_s04_2-3-10_airplane_10_n02690373_6665.png
subject-04,1,781,1.3969829082489,dog,chair,128-3-10,0781_eid_s04_128-3-10_chair_10_n04429376_9165.png
subject-04,1,782,0.610579967498779,chair,bottle,2-3-10,0782_eid_s04_2-3-10_bottle_10_n04591713_2485.png
subject-04,1,783,0.73070502281189,dog,dog,2-3-10,0783_eid_s04_2-3-10_dog_10_n02100877_3973.png
subject-04,1,784,1.01593995094299,car,car,2-3-10,0784_eid_s04_2-3-10_car_10_n02814533_88088.png
subject-04,1,785,1.11776804924011,elephant,bird,64-3-10,0785_eid_s04_64-3-10_bird_10_n02033041_2480.png
subject-04,1,786,0.987797975540161,elephant,elephant,4-3-10,0786_eid_s04_4-3-10_elephant_10_n02504458_847.png
subject-04,1,787,0.61352276802063,boat,boat,8-3-10,0787_eid_s04_8-3-10_boat_10_n03344393_5063.png
subject-04,1,788,0.867208003997803,chair,chair,1-3-10,0788_eid_s04_1-3-10_chair_10_n04099969_9425.png
subject-04,1,789,1.50002598762512,bicycle,airplane,64-3-10,0789_eid_s04_64-3-10_airplane_10_n02690373_2109.png
subject-04,1,790,1.16893601417542,bird,bird,1-3-10,0790_eid_s04_1-3-10_bird_10_n01855672_11580.png
subject-04,1,791,0.710724830627441,clock,clock,4-3-10,0791_eid_s04_4-3-10_clock_10_n04548280_10686.png
subject-04,1,792,1.30060696601868,dog,airplane,32-3-10,0792_eid_s04_32-3-10_airplane_10_n02690373_3669.png
subject-04,1,793,0.896807909011841,elephant,chair,32-3-10,0793_eid_s04_32-3-10_chair_10_n03376595_6115.png
subject-04,1,794,0.798166990280151,airplane,airplane,4-3-10,0794_eid_s04_4-3-10_airplane_10_n02690373_20326.png
subject-04,1,795,1.50004601478577,keyboard,cat,32-3-10,0795_eid_s04_32-3-10_cat_10_n02123597_8698.png
subject-04,1,796,0.620240926742554,cat,boat,64-3-10,0796_eid_s04_64-3-10_boat_10_n03344393_6799.png
subject-04,1,797,1.02159094810486,elephant,elephant,2-3-10,0797_eid_s04_2-3-10_elephant_10_n02504013_2549.png
subject-04,1,798,1.00970697402954,truck,truck,4-3-10,0798_eid_s04_4-3-10_truck_10_n03417042_17215.png
subject-04,1,799,0.687412977218628,keyboard,keyboard,4-3-10,0799_eid_s04_4-3-10_keyboard_10_n04505470_4492.png
subject-04,1,800,1.04911184310913,cat,keyboard,128-3-10,0800_eid_s04_128-3-10_keyboard_10_n04505470_54.png
subject-04,1,801,0.673362970352173,boat,boat,1-3-10,0801_eid_s04_1-3-10_boat_10_n03662601_26396.png
subject-04,1,802,1.12320017814636,oven,cat,32-3-10,0802_eid_s04_32-3-10_cat_10_n02123045_4089.png
subject-04,1,803,1.39090895652771,bear,chair,16-3-10,0803_eid_s04_16-3-10_chair_10_n02791124_5238.png
subject-04,1,804,NaN,na,dog,4-3-10,0804_eid_s04_4-3-10_dog_10_n02098105_2333.png
subject-04,1,805,1.49660491943359,elephant,elephant,128-3-10,0805_eid_s04_128-3-10_elephant_10_n02504458_4263.png
subject-04,1,806,0.740683078765869,oven,oven,1-3-10,0806_eid_s04_1-3-10_oven_10_n04111531_1770.png
subject-04,1,807,0.752326965332031,bear,elephant,8-3-10,0807_eid_s04_8-3-10_elephant_10_n02504013_718.png
subject-04,1,808,1.07589602470398,bottle,dog,2-3-10,0808_eid_s04_2-3-10_dog_10_n02088364_11105.png
subject-04,1,809,0.671732902526855,clock,clock,8-3-10,0809_eid_s04_8-3-10_clock_10_n03196217_7985.png
subject-04,1,810,0.783939838409424,bicycle,bicycle,2-3-10,0810_eid_s04_2-3-10_bicycle_10_n03792782_4559.png
subject-04,1,811,1.07739400863647,boat,boat,8-3-10,0811_eid_s04_8-3-10_boat_10_n04612504_1613.png
subject-04,1,812,1.50012111663818,dog,bird,4-3-10,0812_eid_s04_4-3-10_bird_10_n02056570_8865.png
subject-04,1,813,1.39109516143799,cat,car,128-3-10,0813_eid_s04_128-3-10_car_10_n03100240_7219.png
subject-04,1,814,1.17486810684204,elephant,cat,64-3-10,0814_eid_s04_64-3-10_cat_10_n02123597_4700.png
subject-04,1,815,1.4106650352478,bicycle,boat,16-3-10,0815_eid_s04_16-3-10_boat_10_n03344393_8022.png
subject-04,1,816,0.882544994354248,elephant,bicycle,32-3-10,0816_eid_s04_32-3-10_bicycle_10_n03792782_13160.png
subject-04,1,817,0.878489971160889,bear,airplane,128-3-10,0817_eid_s04_128-3-10_airplane_10_n02690373_2525.png
subject-04,1,818,1.40416097640991,bird,truck,64-3-10,0818_eid_s04_64-3-10_truck_10_n04467665_4492.png
subject-04,1,819,1.06240892410278,elephant,bicycle,64-3-10,0819_eid_s04_64-3-10_bicycle_10_n02835271_75.png
subject-04,1,820,1.30578708648682,chair,chair,1-3-10,0820_eid_s04_1-3-10_chair_10_n04099969_755.png
subject-04,1,821,1.26359605789185,bird,knife,64-3-10,0821_eid_s04_64-3-10_knife_10_n03041632_32774.png
subject-04,1,822,0.821297883987427,airplane,airplane,1-3-10,0822_eid_s04_1-3-10_airplane_10_n02690373_3912.png
subject-04,1,823,0.963135004043579,clock,clock,1-3-10,0823_eid_s04_1-3-10_clock_10_n04548280_18914.png
subject-04,1,824,1.38898992538452,dog,oven,16-3-10,0824_eid_s04_16-3-10_oven_10_n04111531_7097.png
subject-04,1,825,0.724992990493774,airplane,bicycle,1-3-10,0825_eid_s04_1-3-10_bicycle_10_n02835271_21707.png
subject-04,1,826,0.972862005233765,bird,bird,1-3-10,0826_eid_s04_1-3-10_bird_10_n01824575_6186.png
subject-04,1,827,1.50002002716064,airplane,elephant,32-3-10,0827_eid_s04_32-3-10_elephant_10_n02504013_4071.png
subject-04,1,828,0.682187080383301,boat,chair,2-3-10,0828_eid_s04_2-3-10_chair_10_n03376595_6518.png
subject-04,1,829,1.41419100761414,cat,elephant,128-3-10,0829_eid_s04_128-3-10_elephant_10_n02504013_13223.png
subject-04,1,830,1.03773903846741,bottle,knife,1-3-10,0830_eid_s04_1-3-10_knife_10_n03041632_24376.png
subject-04,1,831,0.856067895889282,truck,truck,8-3-10,0831_eid_s04_8-3-10_truck_10_n04467665_9331.png
subject-04,1,832,0.743903875350952,clock,clock,4-3-10,0832_eid_s04_4-3-10_clock_10_n04548280_2127.png
subject-04,1,833,1.17346906661987,bird,bear,128-3-10,0833_eid_s04_128-3-10_bear_10_n02132136_15262.png
subject-04,1,834,1.48942494392395,dog,cat,16-3-10,0834_eid_s04_16-3-10_cat_10_n02123045_9465.png
subject-04,1,835,1.33524417877197,oven,chair,4-3-10,0835_eid_s04_4-3-10_chair_10_n04099969_31891.png
subject-04,1,836,1.33475708961487,keyboard,knife,32-3-10,0836_eid_s04_32-3-10_knife_10_n03041632_27963.png
subject-04,1,837,0.74052095413208,boat,airplane,1-3-10,0837_eid_s04_1-3-10_airplane_10_n02690373_2632.png
subject-04,1,838,0.962333917617798,bottle,keyboard,1-3-10,0838_eid_s04_1-3-10_keyboard_10_n03085013_18989.png
subject-04,1,839,1.20623397827148,dog,dog,4-3-10,0839_eid_s04_4-3-10_dog_10_n02086240_1183.png
subject-04,1,840,1.13828086853027,bird,boat,32-3-10,0840_eid_s04_32-3-10_boat_10_n02951358_31101.png
subject-04,1,841,0.986155033111572,bear,boat,64-3-10,0841_eid_s04_64-3-10_boat_10_n04273569_5901.png
subject-04,1,842,1.14362502098083,keyboard,dog,128-3-10,0842_eid_s04_128-3-10_dog_10_n02092339_6406.png
subject-04,1,843,0.945450067520142,bear,truck,32-3-10,0843_eid_s04_32-3-10_truck_10_n03417042_18374.png
subject-04,1,844,1.10342597961426,dog,chair,64-3-10,0844_eid_s04_64-3-10_chair_10_n04099969_2354.png
subject-04,1,845,1.46335887908936,bear,cat,16-3-10,0845_eid_s04_16-3-10_cat_10_n02123159_798.png
subject-04,1,846,1.44692587852478,oven,cat,16-3-10,0846_eid_s04_16-3-10_cat_10_n02123597_3921.png
subject-04,1,847,1.07284307479858,dog,clock,32-3-10,0847_eid_s04_32-3-10_clock_10_n02708093_4286.png
subject-04,1,848,1.38858795166016,bear,cat,16-3-10,0848_eid_s04_16-3-10_cat_10_n02123045_5932.png
subject-04,1,849,0.818311929702759,bird,bird,1-3-10,0849_eid_s04_1-3-10_bird_10_n01817953_8025.png
subject-04,1,850,0.926170825958252,bird,bear,32-3-10,0850_eid_s04_32-3-10_bear_10_n02133161_628.png
subject-04,1,851,1.07832717895508,dog,bird,16-3-10,0851_eid_s04_16-3-10_bird_10_n01843383_3274.png
subject-04,1,852,0.893857002258301,truck,truck,4-3-10,0852_eid_s04_4-3-10_truck_10_n03796401_20943.png
subject-04,1,853,1.00583410263062,dog,dog,1-3-10,0853_eid_s04_1-3-10_dog_10_n02093256_5845.png
subject-04,1,854,1.50005483627319,dog,keyboard,128-3-10,0854_eid_s04_128-3-10_keyboard_10_n04505470_9457.png
subject-04,1,855,1.50010895729065,elephant,dog,128-3-10,0855_eid_s04_128-3-10_dog_10_n02086079_6578.png
subject-04,1,856,1.3951141834259,bird,bottle,8-3-10,0856_eid_s04_8-3-10_bottle_10_n03983396_3880.png
subject-04,1,857,1.10686683654785,bear,bicycle,16-3-10,0857_eid_s04_16-3-10_bicycle_10_n02835271_1426.png
subject-04,1,858,1.07076120376587,dog,oven,128-3-10,0858_eid_s04_128-3-10_oven_10_n04111531_6134.png
subject-04,1,859,1.50006318092346,bicycle,cat,128-3-10,0859_eid_s04_128-3-10_cat_10_n02123045_6629.png
subject-04,1,860,0.874377012252808,airplane,knife,1-3-10,0860_eid_s04_1-3-10_knife_10_n03041632_9635.png
subject-04,1,861,0.720184803009033,boat,clock,128-3-10,0861_eid_s04_128-3-10_clock_10_n03196217_1079.png
subject-04,1,862,0.769992113113403,bicycle,bicycle,2-3-10,0862_eid_s04_2-3-10_bicycle_10_n02835271_14846.png
subject-04,1,863,0.561671018600464,cat,clock,32-3-10,0863_eid_s04_32-3-10_clock_10_n03196217_11445.png
subject-04,1,864,1.50003600120544,oven,oven,128-3-10,0864_eid_s04_128-3-10_oven_10_n04111531_9427.png
subject-04,1,865,1.35387897491455,keyboard,keyboard,2-3-10,0865_eid_s04_2-3-10_keyboard_10_n03085013_19416.png
subject-04,1,866,1.50001001358032,bear,dog,8-3-10,0866_eid_s04_8-3-10_dog_10_n02110185_11414.png
subject-04,1,867,0.985159873962402,chair,chair,1-3-10,0867_eid_s04_1-3-10_chair_10_n02791124_8788.png
subject-04,1,868,1.19490694999695,boat,car,32-3-10,0868_eid_s04_32-3-10_car_10_n02814533_32802.png
subject-04,1,869,1.104660987854,dog,cat,16-3-10,0869_eid_s04_16-3-10_cat_10_n02123159_13611.png
subject-04,1,870,0.930606842041016,bird,bicycle,8-3-10,0870_eid_s04_8-3-10_bicycle_10_n03792782_1288.png
subject-04,1,871,1.06233501434326,cat,cat,32-3-10,0871_eid_s04_32-3-10_cat_10_n02123597_6548.png
subject-04,1,872,0.610121011734009,chair,chair,2-3-10,0872_eid_s04_2-3-10_chair_10_n03376595_2512.png
subject-04,1,873,0.651778936386108,chair,chair,1-3-10,0873_eid_s04_1-3-10_chair_10_n03376595_12524.png
subject-04,1,874,1.1356348991394,bottle,dog,4-3-10,0874_eid_s04_4-3-10_dog_10_n02093256_1653.png
subject-04,1,875,0.989413022994995,elephant,bicycle,8-3-10,0875_eid_s04_8-3-10_bicycle_10_n03792782_11609.png
subject-04,1,876,1.21937417984009,cat,cat,128-3-10,0876_eid_s04_128-3-10_cat_10_n02123597_7269.png
subject-04,1,877,1.13520121574402,cat,bottle,64-3-10,0877_eid_s04_64-3-10_bottle_10_n04591713_6961.png
subject-04,1,878,1.39889407157898,oven,bird,16-3-10,0878_eid_s04_16-3-10_bird_10_n01614925_6637.png
subject-04,1,879,0.916652917861938,bear,bear,4-3-10,0879_eid_s04_4-3-10_bear_10_n02134084_10112.png
subject-04,1,880,1.35848999023438,bottle,oven,32-3-10,0880_eid_s04_32-3-10_oven_10_n04111531_6975.png
subject-04,1,881,0.992044925689697,car,oven,4-3-10,0881_eid_s04_4-3-10_oven_10_n04111531_11655.png
subject-04,1,882,0.818039894104004,keyboard,bottle,1-3-10,0882_eid_s04_1-3-10_bottle_10_n02823428_11018.png
subject-04,1,883,1.13181400299072,bear,chair,32-3-10,0883_eid_s04_32-3-10_chair_10_n02791124_15539.png
subject-04,1,884,1.44758105278015,chair,chair,1-3-10,0884_eid_s04_1-3-10_chair_10_n04429376_294.png
subject-04,1,885,0.609264850616455,car,car,4-3-10,0885_eid_s04_4-3-10_car_10_n03100240_310.png
subject-04,1,886,1.19510984420776,boat,airplane,16-3-10,0886_eid_s04_16-3-10_airplane_10_n02690373_7093.png
subject-04,1,887,0.931329965591431,clock,bear,128-3-10,0887_eid_s04_128-3-10_bear_10_n02133161_5157.png
subject-04,1,888,0.89484691619873,airplane,airplane,2-3-10,0888_eid_s04_2-3-10_airplane_10_n02690373_4591.png
subject-04,1,889,1.29273009300232,car,car,2-3-10,0889_eid_s04_2-3-10_car_10_n03100240_6836.png
subject-04,1,890,1.45867514610291,bottle,bicycle,16-3-10,0890_eid_s04_16-3-10_bicycle_10_n02835271_5152.png
subject-04,1,891,0.880500078201294,airplane,airplane,4-3-10,0891_eid_s04_4-3-10_airplane_10_n02690373_7075.png
subject-04,1,892,1.03608179092407,bird,oven,16-3-10,0892_eid_s04_16-3-10_oven_10_n04111531_2091.png
subject-04,1,893,0.685972929000854,keyboard,keyboard,4-3-10,0893_eid_s04_4-3-10_keyboard_10_n03085013_9209.png
subject-04,1,894,0.914131879806519,bird,car,16-3-10,0894_eid_s04_16-3-10_car_10_n02814533_47325.png
subject-04,1,895,0.627624988555908,oven,oven,2-3-10,0895_eid_s04_2-3-10_oven_10_n04111531_4146.png
subject-04,1,896,1.34552121162415,oven,bicycle,32-3-10,0896_eid_s04_32-3-10_bicycle_10_n03792782_63201.png
subject-04,1,897,1.47339081764221,elephant,chair,128-3-10,0897_eid_s04_128-3-10_chair_10_n03376595_4033.png
subject-04,1,898,0.875025033950806,chair,chair,4-3-10,0898_eid_s04_4-3-10_chair_10_n04429376_16370.png
subject-04,1,899,1.48673391342163,dog,chair,32-3-10,0899_eid_s04_32-3-10_chair_10_n04429376_29223.png
subject-04,1,900,1.38466382026672,cat,airplane,8-3-10,0900_eid_s04_8-3-10_airplane_10_n02690373_7499.png
subject-04,1,901,1.00440812110901,chair,clock,4-3-10,0901_eid_s04_4-3-10_clock_10_n04548280_2522.png
subject-04,1,902,1.11659097671509,bear,bear,128-3-10,0902_eid_s04_128-3-10_bear_10_n02134084_635.png
subject-04,1,903,1.00198006629944,bear,clock,32-3-10,0903_eid_s04_32-3-10_clock_10_n03196217_2859.png
subject-04,1,904,0.987706184387207,airplane,airplane,2-3-10,0904_eid_s04_2-3-10_airplane_10_n02690373_939.png
subject-04,1,905,0.827865123748779,dog,dog,4-3-10,0905_eid_s04_4-3-10_dog_10_n02102318_11155.png
subject-04,1,906,1.47545194625854,bird,cat,64-3-10,0906_eid_s04_64-3-10_cat_10_n02123159_7386.png
subject-04,1,907,1.23716497421265,dog,dog,4-3-10,0907_eid_s04_4-3-10_dog_10_n02097658_1775.png
subject-04,1,908,0.771284818649292,clock,clock,8-3-10,0908_eid_s04_8-3-10_clock_10_n02708093_1431.png
subject-04,1,909,0.974858045578003,dog,boat,64-3-10,0909_eid_s04_64-3-10_boat_10_n03344393_8642.png
subject-04,1,910,0.632737874984741,airplane,airplane,1-3-10,0910_eid_s04_1-3-10_airplane_10_n02690373_10404.png
subject-04,1,911,1.25281715393066,dog,dog,4-3-10,0911_eid_s04_4-3-10_dog_10_n02098105_526.png
subject-04,1,912,1.50007200241089,bottle,cat,32-3-10,0912_eid_s04_32-3-10_cat_10_n02123045_7248.png
subject-04,1,913,0.77458381652832,bird,bird,4-3-10,0913_eid_s04_4-3-10_bird_10_n01531178_13010.png
subject-04,1,914,1.50016188621521,chair,knife,4-3-10,0914_eid_s04_4-3-10_knife_10_n03041632_21165.png
subject-04,1,915,0.87817907333374,elephant,truck,16-3-10,0915_eid_s04_16-3-10_truck_10_n04467665_58456.png
subject-04,1,916,1.12753200531006,dog,clock,16-3-10,0916_eid_s04_16-3-10_clock_10_n02708093_3621.png
subject-04,1,917,0.835617065429688,bird,car,32-3-10,0917_eid_s04_32-3-10_car_10_n02814533_14653.png
subject-04,1,918,0.627341985702515,keyboard,keyboard,4-3-10,0918_eid_s04_4-3-10_keyboard_10_n03085013_15365.png
subject-04,1,919,0.897149085998535,bottle,dog,32-3-10,0919_eid_s04_32-3-10_dog_10_n02113712_2715.png
subject-04,1,920,0.671205043792725,elephant,elephant,1-3-10,0920_eid_s04_1-3-10_elephant_10_n02504013_1132.png
subject-04,1,921,1.36046385765076,keyboard,keyboard,1-3-10,0921_eid_s04_1-3-10_keyboard_10_n03085013_20709.png
subject-04,1,922,1.30848693847656,dog,elephant,64-3-10,0922_eid_s04_64-3-10_elephant_10_n02504458_6130.png
subject-04,1,923,1.27460289001465,bird,clock,32-3-10,0923_eid_s04_32-3-10_clock_10_n04548280_1323.png
subject-04,1,924,0.814188957214355,truck,bottle,64-3-10,0924_eid_s04_64-3-10_bottle_10_n04591713_2826.png
subject-04,1,925,0.856091022491455,airplane,airplane,16-3-10,0925_eid_s04_16-3-10_airplane_10_n02690373_20042.png
subject-04,1,926,0.953771114349365,cat,cat,16-3-10,0926_eid_s04_16-3-10_cat_10_n02125311_22073.png
subject-04,1,927,1.49999499320984,clock,bird,64-3-10,0927_eid_s04_64-3-10_bird_10_n01796340_1230.png
subject-04,1,928,1.40579891204834,oven,elephant,64-3-10,0928_eid_s04_64-3-10_elephant_10_n02504013_7746.png
subject-04,1,929,1.5000147819519,clock,chair,4-3-10,0929_eid_s04_4-3-10_chair_10_n04429376_11383.png
subject-04,1,930,0.842941045761108,airplane,bicycle,4-3-10,0930_eid_s04_4-3-10_bicycle_10_n02835271_6278.png
subject-04,1,931,1.34688901901245,bottle,clock,16-3-10,0931_eid_s04_16-3-10_clock_10_n04548280_2283.png
subject-04,1,932,1.34447383880615,bottle,bicycle,8-3-10,0932_eid_s04_8-3-10_bicycle_10_n03792782_63054.png
subject-04,1,933,1.41642594337463,bird,car,128-3-10,0933_eid_s04_128-3-10_car_10_n03100240_5489.png
subject-04,1,934,1.46621108055115,bottle,airplane,128-3-10,0934_eid_s04_128-3-10_airplane_10_n02690373_9059.png
subject-04,1,935,0.768221139907837,bottle,bear,64-3-10,0935_eid_s04_64-3-10_bear_10_n02133161_6946.png
subject-04,1,936,0.808013916015625,bird,bird,2-3-10,0936_eid_s04_2-3-10_bird_10_n01828970_6924.png
subject-04,1,937,0.803644895553589,car,car,8-3-10,0937_eid_s04_8-3-10_car_10_n04285008_13.png
subject-04,1,938,0.917458057403564,clock,clock,8-3-10,0938_eid_s04_8-3-10_clock_10_n04548280_2334.png
subject-04,1,939,0.935461044311523,boat,boat,4-3-10,0939_eid_s04_4-3-10_boat_10_n02951358_12333.png
subject-04,1,940,0.780979871749878,bottle,bottle,8-3-10,0940_eid_s04_8-3-10_bottle_10_n04591713_1764.png
subject-04,1,941,1.46504998207092,oven,clock,64-3-10,0941_eid_s04_64-3-10_clock_10_n02708093_2875.png
subject-04,1,942,0.742671012878418,airplane,airplane,1-3-10,0942_eid_s04_1-3-10_airplane_10_n02690373_427.png
subject-04,1,943,0.798489093780518,cat,elephant,4-3-10,0943_eid_s04_4-3-10_elephant_10_n02504013_8270.png
subject-04,1,944,0.630814790725708,clock,clock,8-3-10,0944_eid_s04_8-3-10_clock_10_n02708093_1975.png
subject-04,1,945,0.894181966781616,bird,bird,8-3-10,0945_eid_s04_8-3-10_bird_10_n01798484_3266.png
subject-04,1,946,1.42196798324585,oven,bird,128-3-10,0946_eid_s04_128-3-10_bird_10_n01616318_13293.png
subject-04,1,947,1.41591191291809,bird,knife,8-3-10,0947_eid_s04_8-3-10_knife_10_n03041632_91967.png
subject-04,1,948,1.17982602119446,chair,knife,4-3-10,0948_eid_s04_4-3-10_knife_10_n03041632_101810.png
subject-04,1,949,1.30953884124756,truck,truck,2-3-10,0949_eid_s04_2-3-10_truck_10_n03796401_3651.png
subject-04,1,950,0.561186075210571,keyboard,keyboard,4-3-10,0950_eid_s04_4-3-10_keyboard_10_n04505470_7721.png
subject-04,1,951,1.3311460018158,cat,bear,64-3-10,0951_eid_s04_64-3-10_bear_10_n02133161_2226.png
subject-04,1,952,0.834913969039917,knife,cat,4-3-10,0952_eid_s04_4-3-10_cat_10_n02123159_6728.png
subject-04,1,953,1.50006699562073,oven,dog,64-3-10,0953_eid_s04_64-3-10_dog_10_n02091244_9305.png
subject-04,1,954,1.12258791923523,cat,cat,2-3-10,0954_eid_s04_2-3-10_cat_10_n02123045_2721.png
subject-04,1,955,1.49999785423279,oven,car,128-3-10,0955_eid_s04_128-3-10_car_10_n03100240_21971.png
subject-04,1,956,1.50004506111145,keyboard,bottle,8-3-10,0956_eid_s04_8-3-10_bottle_10_n04591713_715.png
subject-04,1,957,1.50003719329834,chair,boat,4-3-10,0957_eid_s04_4-3-10_boat_10_n02951358_9146.png
subject-04,1,958,1.35164213180542,truck,truck,2-3-10,0958_eid_s04_2-3-10_truck_10_n03796401_6472.png
subject-04,1,959,1.01159691810608,cat,knife,64-3-10,0959_eid_s04_64-3-10_knife_10_n03041632_22241.png
subject-04,1,960,1.23136401176453,oven,oven,2-3-10,0960_eid_s04_2-3-10_oven_10_n04111531_16696.png
subject-04,1,961,1.24816584587097,elephant,elephant,16-3-10,0961_eid_s04_16-3-10_elephant_10_n02504458_1127.png
subject-04,1,962,1.16783308982849,keyboard,truck,64-3-10,0962_eid_s04_64-3-10_truck_10_n03417042_8139.png
subject-04,1,963,1.10168409347534,bird,airplane,16-3-10,0963_eid_s04_16-3-10_airplane_10_n02690373_1044.png
subject-04,1,964,1.24744391441345,dog,elephant,64-3-10,0964_eid_s04_64-3-10_elephant_10_n02504013_4183.png
subject-04,1,965,1.03121113777161,airplane,bird,128-3-10,0965_eid_s04_128-3-10_bird_10_n02018207_6819.png
subject-04,1,966,1.15916585922241,dog,dog,16-3-10,0966_eid_s04_16-3-10_dog_10_n02111129_1065.png
subject-04,1,967,0.743156909942627,car,car,4-3-10,0967_eid_s04_4-3-10_car_10_n03100240_4537.png
subject-04,1,968,1.1727499961853,dog,bottle,128-3-10,0968_eid_s04_128-3-10_bottle_10_n04560804_5540.png
subject-04,1,969,0.716709852218628,elephant,elephant,4-3-10,0969_eid_s04_4-3-10_elephant_10_n02504458_4725.png
subject-04,1,970,1.48643398284912,elephant,dog,128-3-10,0970_eid_s04_128-3-10_dog_10_n02105855_10394.png
subject-04,1,971,0.706218957901001,clock,clock,8-3-10,0971_eid_s04_8-3-10_clock_10_n02708093_2717.png
subject-04,1,972,1.44198703765869,elephant,truck,64-3-10,0972_eid_s04_64-3-10_truck_10_n03417042_27581.png
subject-04,1,973,1.10405492782593,bird,clock,4-3-10,0973_eid_s04_4-3-10_clock_10_n04548280_5096.png
