subj,Session,trial,rt,object_response,category,condition,imagename
subject-02,1,1,1.38158011436462,car,elephant,true,0001_fc_s02_true_elephant_35_n02504458_5144.png
subject-02,1,2,0.755852937698364,knife,bottle,true,0002_fc_s02_true_bottle_35_n04591713_4030.png
subject-02,1,3,0.629132032394409,boat,boat,true,0003_fc_s02_true_boat_35_n03662601_34124.png
subject-02,1,4,0.587040901184082,keyboard,keyboard,true,0004_fc_s02_true_keyboard_35_n04505470_4033.png
subject-02,1,5,0.989115953445435,elephant,elephant,true,0005_fc_s02_true_elephant_35_n02504013_3307.png
subject-02,1,6,0.692512035369873,cat,cat,true,0006_fc_s02_true_cat_35_n02124075_4377.png
subject-02,1,7,0.712280035018921,truck,truck,false,0007_fc_s02_false_truck_35_n04467665_197.png
subject-02,1,8,0.778232097625732,boat,boat,true,0008_fc_s02_true_boat_35_n03662601_8221.png
subject-02,1,9,0.76441216468811,cat,cat,true,0009_fc_s02_true_cat_35_n02123597_2099.png
subject-02,1,10,0.735885858535767,bottle,bottle,true,0010_fc_s02_true_bottle_35_n04557648_4420.png
subject-02,1,11,0.849725008010864,bottle,bottle,true,0011_fc_s02_true_bottle_35_n04557648_2512.png
subject-02,1,12,0.853325128555298,chair,chair,false,0012_fc_s02_false_chair_35_n04099969_6189.png
subject-02,1,13,0.975381851196289,elephant,elephant,true,0013_fc_s02_true_elephant_35_n02504458_3197.png
subject-02,1,14,0.705054998397827,bottle,bottle,true,0014_fc_s02_true_bottle_35_n02823428_3178.png
subject-02,1,15,0.753194093704224,clock,clock,false,0015_fc_s02_false_clock_35_n03196217_3050.png
subject-02,1,16,0.814748048782349,elephant,elephant,false,0016_fc_s02_false_elephant_35_n02504013_5027.png
subject-02,1,17,0.746454000473022,bicycle,bicycle,false,0017_fc_s02_false_bicycle_35_n02835271_9672.png
subject-02,1,18,0.680346012115479,bicycle,bicycle,false,0018_fc_s02_false_bicycle_35_n03792782_50569.png
subject-02,1,19,0.636120080947876,cat,cat,false,0019_fc_s02_false_cat_35_n02123597_1153.png
subject-02,1,20,0.639995098114014,boat,airplane,false,0020_fc_s02_false_airplane_35_n02690373_6524.png
subject-02,1,21,0.76971697807312,elephant,elephant,false,0021_fc_s02_false_elephant_35_n02504013_11073.png
subject-02,1,22,0.593616008758545,clock,clock,false,0022_fc_s02_false_clock_35_n04548280_7872.png
subject-02,1,23,0.629255056381226,car,car,true,0023_fc_s02_true_car_35_n04285008_10006.png
subject-02,1,24,0.649296045303345,clock,clock,true,0024_fc_s02_true_clock_35_n04548280_1055.png
subject-02,1,25,0.725131988525391,dog,dog,true,0025_fc_s02_true_dog_35_n02091831_7969.png
subject-02,1,26,0.795102834701538,dog,dog,false,0026_fc_s02_false_dog_35_n02093754_5867.png
subject-02,1,27,0.786689043045044,dog,dog,true,0027_fc_s02_true_dog_35_n02108551_11297.png
subject-02,1,28,1.01067495346069,oven,oven,false,0028_fc_s02_false_oven_35_n04111531_4452.png
subject-02,1,29,0.686169862747192,airplane,airplane,true,0029_fc_s02_true_airplane_35_n02690373_1615.png
subject-02,1,30,0.932030200958252,knife,knife,false,0030_fc_s02_false_knife_35_n03041632_25512.png
subject-02,1,31,0.587813138961792,car,car,true,0031_fc_s02_true_car_35_n03100240_5865.png
subject-02,1,32,1.45574998855591,dog,cat,false,0032_fc_s02_false_cat_35_n02124075_7880.png
subject-02,1,33,0.741574048995972,clock,chair,false,0033_fc_s02_false_chair_35_n04429376_10453.png
subject-02,1,34,0.613440036773682,oven,oven,true,0034_fc_s02_true_oven_35_n04111531_13822.png
subject-02,1,35,0.96125316619873,bear,bear,true,0035_fc_s02_true_bear_35_n02134418_2022.png
subject-02,1,36,0.685027122497559,chair,chair,false,0036_fc_s02_false_chair_35_n03376595_787.png
subject-02,1,37,0.758822917938232,airplane,airplane,false,0037_fc_s02_false_airplane_35_n02690373_13585.png
subject-02,1,38,0.794426918029785,airplane,airplane,false,0038_fc_s02_false_airplane_35_n02690373_4198.png
subject-02,1,39,0.978240966796875,bottle,bottle,false,0039_fc_s02_false_bottle_35_n03937543_211.png
subject-02,1,40,0.598186016082764,boat,boat,false,0040_fc_s02_false_boat_35_n03662601_25404.png
subject-02,1,41,1.08802509307861,truck,truck,false,0041_fc_s02_false_truck_35_n04467665_47050.png
subject-02,1,42,0.693639039993286,bear,bear,true,0042_fc_s02_true_bear_35_n02134084_4490.png
subject-02,1,43,0.635626077651978,chair,chair,true,0043_fc_s02_true_chair_35_n03376595_606.png
subject-02,1,44,1.169349193573,bear,bear,false,0044_fc_s02_false_bear_35_n02134418_5033.png
subject-02,1,45,0.793230056762695,elephant,elephant,true,0045_fc_s02_true_elephant_35_n02504458_4819.png
subject-02,1,46,0.758907079696655,knife,knife,false,0046_fc_s02_false_knife_35_n03041632_45636.png
subject-02,1,47,0.873218059539795,truck,truck,false,0047_fc_s02_false_truck_35_n03796401_6727.png
subject-02,1,48,1.22081279754639,bird,bird,false,0048_fc_s02_false_bird_35_n01614925_19918.png
subject-02,1,49,0.684847116470337,bird,bird,true,0049_fc_s02_true_bird_35_n01795545_14857.png
subject-02,1,50,0.618386030197144,clock,clock,true,0050_fc_s02_true_clock_35_n03196217_3669.png
subject-02,1,51,0.618305921554565,cat,cat,true,0051_fc_s02_true_cat_35_n02124075_11466.png
subject-02,1,52,0.666053056716919,chair,chair,false,0052_fc_s02_false_chair_35_n04099969_7718.png
subject-02,1,53,0.685817003250122,airplane,airplane,false,0053_fc_s02_false_airplane_35_n02690373_1442.png
subject-02,1,54,0.753627777099609,truck,truck,true,0054_fc_s02_true_truck_35_n03796401_3386.png
subject-02,1,55,0.7012939453125,cat,cat,false,0055_fc_s02_false_cat_35_n02123597_23346.png
subject-02,1,56,0.969166994094849,bird,bird,true,0056_fc_s02_true_bird_35_n01843383_9064.png
subject-02,1,57,0.977283000946045,dog,cat,false,0057_fc_s02_false_cat_35_n02123394_9541.png
subject-02,1,58,0.60466480255127,clock,clock,false,0058_fc_s02_false_clock_35_n03196217_3508.png
subject-02,1,59,0.866859912872314,bear,bicycle,true,0059_fc_s02_true_bicycle_35_n03792782_7050.png
subject-02,1,60,0.660439968109131,keyboard,keyboard,false,0060_fc_s02_false_keyboard_35_n03085013_24001.png
subject-02,1,61,0.64812183380127,truck,truck,true,0061_fc_s02_true_truck_35_n03796401_19058.png
subject-02,1,62,0.846174001693726,truck,truck,true,0062_fc_s02_true_truck_35_n03417042_22828.png
subject-02,1,63,0.823907136917114,bottle,bottle,true,0063_fc_s02_true_bottle_35_n03983396_6116.png
subject-02,1,64,0.671759843826294,cat,cat,false,0064_fc_s02_false_cat_35_n02124075_5874.png
subject-02,1,65,1.0753858089447,knife,knife,false,0065_fc_s02_false_knife_35_n03041632_92063.png
subject-02,1,66,0.785229921340942,bicycle,bicycle,true,0066_fc_s02_true_bicycle_35_n02835271_12752.png
subject-02,1,67,1.0272011756897,bicycle,truck,false,0067_fc_s02_false_truck_35_n03417042_4587.png
subject-02,1,68,1.2389280796051,bicycle,bicycle,false,0068_fc_s02_false_bicycle_35_n03792782_14966.png
subject-02,1,69,0.668839931488037,bicycle,bicycle,false,0069_fc_s02_false_bicycle_35_n03792782_4382.png
subject-02,1,70,0.860536813735962,truck,truck,true,0070_fc_s02_true_truck_35_n03417042_9018.png
subject-02,1,71,0.782244920730591,car,truck,false,0071_fc_s02_false_truck_35_n03417042_768.png
subject-02,1,72,0.707963943481445,elephant,elephant,true,0072_fc_s02_true_elephant_35_n02504458_5412.png
subject-02,1,73,0.858190059661865,keyboard,keyboard,true,0073_fc_s02_true_keyboard_35_n04505470_3864.png
subject-02,1,74,0.765646934509277,clock,clock,true,0074_fc_s02_true_clock_35_n03196217_11252.png
subject-02,1,75,1.17326903343201,truck,truck,true,0075_fc_s02_true_truck_35_n04467665_22051.png
subject-02,1,76,0.721244096755981,knife,knife,false,0076_fc_s02_false_knife_35_n03041632_38535.png
subject-02,1,77,0.647292137145996,bicycle,bicycle,true,0077_fc_s02_true_bicycle_35_n02835271_4191.png
subject-02,1,78,0.873281002044678,bicycle,truck,false,0078_fc_s02_false_truck_35_n03417042_7313.png
subject-02,1,79,0.806673049926758,truck,truck,true,0079_fc_s02_true_truck_35_n03796401_16337.png
subject-02,1,80,0.732615947723389,cat,cat,true,0080_fc_s02_true_cat_35_n02123159_2339.png
subject-02,1,81,0.901639938354492,bird,bird,true,0081_fc_s02_true_bird_35_n02013706_10478.png
subject-02,1,82,0.589323043823242,cat,cat,false,0082_fc_s02_false_cat_35_n02123159_6089.png
subject-02,1,83,0.6892409324646,keyboard,keyboard,true,0083_fc_s02_true_keyboard_35_n03085013_19439.png
subject-02,1,84,0.592928171157837,keyboard,keyboard,false,0084_fc_s02_false_keyboard_35_n03085013_16724.png
subject-02,1,85,0.522948980331421,cat,cat,false,0085_fc_s02_false_cat_35_n02123045_15010.png
subject-02,1,86,0.616605043411255,clock,clock,false,0086_fc_s02_false_clock_35_n02708093_585.png
subject-02,1,87,1.47241520881653,chair,knife,true,0087_fc_s02_true_knife_35_n03041632_98864.png
subject-02,1,88,0.496423959732056,cat,cat,false,0088_fc_s02_false_cat_35_n02123159_6728.png
subject-02,1,89,0.614284038543701,airplane,airplane,true,0089_fc_s02_true_airplane_35_n02690373_10926.png
subject-02,1,90,0.687958002090454,elephant,elephant,true,0090_fc_s02_true_elephant_35_n02504458_12165.png
subject-02,1,91,0.63373589515686,chair,chair,true,0091_fc_s02_true_chair_35_n03376595_10153.png
subject-02,1,92,0.637385845184326,airplane,airplane,true,0092_fc_s02_true_airplane_35_n02690373_2447.png
subject-02,1,93,0.937371015548706,bicycle,bicycle,false,0093_fc_s02_false_bicycle_35_n03792782_626.png
subject-02,1,94,0.665073156356812,bicycle,bicycle,true,0094_fc_s02_true_bicycle_35_n02835271_4446.png
subject-02,1,95,0.542791843414307,clock,clock,true,0095_fc_s02_true_clock_35_n02708093_3759.png
subject-02,1,96,1.49301099777222,cat,chair,false,0096_fc_s02_false_chair_35_n04099969_16350.png
subject-02,1,97,0.6529381275177,bottle,bottle,false,0097_fc_s02_false_bottle_35_n03983396_22979.png
subject-02,1,98,0.580346822738647,bicycle,bicycle,true,0098_fc_s02_true_bicycle_35_n02835271_31.png
subject-02,1,99,0.678096055984497,chair,chair,false,0099_fc_s02_false_chair_35_n04429376_5067.png
subject-02,1,100,0.66603684425354,bird,bird,true,0100_fc_s02_true_bird_35_n01855672_13403.png
subject-02,1,101,0.789541959762573,bicycle,bicycle,false,0101_fc_s02_false_bicycle_35_n03792782_8333.png
subject-02,1,102,0.645546913146973,truck,truck,true,0102_fc_s02_true_truck_35_n03796401_3434.png
subject-02,1,103,1.21968698501587,boat,boat,false,0103_fc_s02_false_boat_35_n03344393_994.png
subject-02,1,104,0.711027145385742,knife,knife,false,0104_fc_s02_false_knife_35_n03041632_36235.png
subject-02,1,105,0.755168914794922,elephant,elephant,false,0105_fc_s02_false_elephant_35_n02504458_4849.png
subject-02,1,106,0.887267112731934,dog,dog,true,0106_fc_s02_true_dog_35_n02111129_6560.png
subject-02,1,107,0.888636827468872,bottle,bottle,true,0107_fc_s02_true_bottle_35_n03983396_3331.png
subject-02,1,108,0.752425909042358,car,car,true,0108_fc_s02_true_car_35_n03100240_49.png
subject-02,1,109,0.654388904571533,truck,truck,false,0109_fc_s02_false_truck_35_n04467665_49656.png
subject-02,1,110,0.887944936752319,chair,chair,true,0110_fc_s02_true_chair_35_n04429376_22734.png
subject-02,1,111,0.741976976394653,bicycle,bicycle,false,0111_fc_s02_false_bicycle_35_n02835271_6554.png
subject-02,1,112,0.597836017608643,dog,dog,true,0112_fc_s02_true_dog_35_n02095570_11142.png
subject-02,1,113,0.621490955352783,keyboard,keyboard,false,0113_fc_s02_false_keyboard_35_n04505470_5354.png
subject-02,1,114,1.21330904960632,knife,chair,false,0114_fc_s02_false_chair_35_n02791124_885.png
subject-02,1,115,0.799490928649902,truck,truck,false,0115_fc_s02_false_truck_35_n03796401_124.png
subject-02,1,116,0.656907081604004,elephant,elephant,false,0116_fc_s02_false_elephant_35_n02504458_6878.png
subject-02,1,117,0.732603073120117,keyboard,keyboard,false,0117_fc_s02_false_keyboard_35_n03085013_28584.png
subject-02,1,118,0.618704080581665,bicycle,bicycle,true,0118_fc_s02_true_bicycle_35_n03792782_47426.png
subject-02,1,119,0.692586898803711,dog,dog,false,0119_fc_s02_false_dog_35_n02087394_9938.png
subject-02,1,120,0.642518043518066,keyboard,keyboard,true,0120_fc_s02_true_keyboard_35_n04505470_489.png
subject-02,1,121,1.08398413658142,oven,oven,false,0121_fc_s02_false_oven_35_n04111531_4574.png
subject-02,1,122,0.803809881210327,car,car,true,0122_fc_s02_true_car_35_n04285008_15049.png
subject-02,1,123,0.799468040466309,cat,cat,true,0123_fc_s02_true_cat_35_n02123159_6184.png
subject-02,1,124,0.623424053192139,bottle,bottle,false,0124_fc_s02_false_bottle_35_n02823428_4043.png
subject-02,1,125,0.725285053253174,keyboard,keyboard,true,0125_fc_s02_true_keyboard_35_n03085013_6862.png
subject-02,1,126,0.901000022888184,truck,truck,true,0126_fc_s02_true_truck_35_n03417042_26865.png
subject-02,1,127,0.556724071502686,bicycle,bicycle,false,0127_fc_s02_false_bicycle_35_n03792782_3069.png
subject-02,1,128,0.862545013427734,knife,knife,true,0128_fc_s02_true_knife_35_n03041632_8151.png
subject-02,1,129,0.614574909210205,airplane,airplane,false,0129_fc_s02_false_airplane_35_n02690373_2095.png
subject-02,1,130,0.610181093215942,cat,cat,true,0130_fc_s02_true_cat_35_n02125311_17068.png
subject-02,1,131,0.588499069213867,airplane,airplane,true,0131_fc_s02_true_airplane_35_n02690373_3383.png
subject-02,1,132,0.66185998916626,bottle,bottle,false,0132_fc_s02_false_bottle_35_n04591713_4035.png
subject-02,1,133,0.571989059448242,keyboard,keyboard,true,0133_fc_s02_true_keyboard_35_n04505470_882.png
subject-02,1,134,0.673794984817505,dog,dog,true,0134_fc_s02_true_dog_35_n02102177_7737.png
subject-02,1,135,0.637356996536255,bird,bird,true,0135_fc_s02_true_bird_35_n01819313_5634.png
subject-02,1,136,0.797296047210693,bird,bird,false,0136_fc_s02_false_bird_35_n01843383_12917.png
subject-02,1,137,0.722863912582397,elephant,elephant,true,0137_fc_s02_true_elephant_35_n02504458_3099.png
subject-02,1,138,0.640798807144165,boat,boat,false,0138_fc_s02_false_boat_35_n03344393_1595.png
subject-02,1,139,0.902670860290527,boat,boat,false,0139_fc_s02_false_boat_35_n03344393_4012.png
subject-02,1,140,0.786218166351318,chair,chair,true,0140_fc_s02_true_chair_35_n02791124_1557.png
subject-02,1,141,0.876190900802612,car,car,true,0141_fc_s02_true_car_35_n03100240_9171.png
subject-02,1,142,1.01030683517456,bear,bicycle,true,0142_fc_s02_true_bicycle_35_n03792782_8098.png
subject-02,1,143,0.757790803909302,boat,boat,false,0143_fc_s02_false_boat_35_n03344393_5501.png
subject-02,1,144,0.535684108734131,oven,oven,true,0144_fc_s02_true_oven_35_n04111531_12510.png
subject-02,1,145,0.583407878875732,boat,boat,true,0145_fc_s02_true_boat_35_n03344393_4496.png
subject-02,1,146,0.861220836639404,cat,bear,false,0146_fc_s02_false_bear_35_n02132136_10988.png
subject-02,1,147,0.775001049041748,boat,boat,false,0147_fc_s02_false_boat_35_n03662601_12323.png
subject-02,1,148,1.3967490196228,truck,boat,true,0148_fc_s02_true_boat_35_n03662601_17571.png
subject-02,1,149,0.538635015487671,chair,chair,true,0149_fc_s02_true_chair_35_n04099969_45461.png
subject-02,1,150,0.748400926589966,elephant,elephant,true,0150_fc_s02_true_elephant_35_n02504458_7660.png
subject-02,1,151,0.572299957275391,clock,clock,true,0151_fc_s02_true_clock_35_n04548280_8942.png
subject-02,1,152,0.994204044342041,dog,dog,false,0152_fc_s02_false_dog_35_n02097209_3172.png
subject-02,1,153,0.693866014480591,truck,truck,true,0153_fc_s02_true_truck_35_n03796401_6596.png
subject-02,1,154,0.469695091247559,oven,oven,true,0154_fc_s02_true_oven_35_n04111531_8553.png
subject-02,1,155,1.05741596221924,dog,cat,true,0155_fc_s02_true_cat_35_n02123597_4591.png
subject-02,1,156,0.727381944656372,cat,dog,true,0156_fc_s02_true_dog_35_n02094258_1036.png
subject-02,1,157,1.49535298347473,truck,car,false,0157_fc_s02_false_car_35_n04285008_3269.png
subject-02,1,158,0.689037084579468,bear,bear,true,0158_fc_s02_true_bear_35_n02132136_8619.png
subject-02,1,159,0.664967060089111,cat,cat,true,0159_fc_s02_true_cat_35_n02123159_8144.png
subject-02,1,160,1.42078900337219,bird,elephant,false,0160_fc_s02_false_elephant_35_n02504013_5934.png
subject-02,1,161,0.811511993408203,knife,knife,true,0161_fc_s02_true_knife_35_n03041632_86251.png
subject-02,1,162,0.807214975357056,cat,bear,true,0162_fc_s02_true_bear_35_n02132136_14829.png
subject-02,1,163,0.881090879440308,knife,airplane,false,0163_fc_s02_false_airplane_35_n02690373_1912.png
subject-02,1,164,0.688927888870239,airplane,airplane,true,0164_fc_s02_true_airplane_35_n02690373_2796.png
subject-02,1,165,0.959002017974854,oven,clock,true,0165_fc_s02_true_clock_35_n03196217_3351.png
subject-02,1,166,0.700867891311646,bottle,bottle,false,0166_fc_s02_false_bottle_35_n03937543_5062.png
subject-02,1,167,1.00060486793518,bear,bear,false,0167_fc_s02_false_bear_35_n02133161_6983.png
subject-02,1,168,0.674355030059814,car,car,true,0168_fc_s02_true_car_35_n03100240_7064.png
subject-02,1,169,0.634549856185913,cat,cat,false,0169_fc_s02_false_cat_35_n02123045_7167.png
subject-02,1,170,0.769952058792114,clock,clock,false,0170_fc_s02_false_clock_35_n02708093_2242.png
subject-02,1,171,0.899877786636353,boat,boat,false,0171_fc_s02_false_boat_35_n04612504_20125.png
subject-02,1,172,0.715641975402832,bottle,bottle,true,0172_fc_s02_true_bottle_35_n04557648_11594.png
subject-02,1,173,1.17926502227783,chair,chair,false,0173_fc_s02_false_chair_35_n04099969_20390.png
subject-02,1,174,1.47760200500488,knife,knife,true,0174_fc_s02_true_knife_35_n03041632_22480.png
subject-02,1,175,0.736961841583252,dog,dog,true,0175_fc_s02_true_dog_35_n02086646_6849.png
subject-02,1,176,0.982743978500366,car,car,true,0176_fc_s02_true_car_35_n04285008_5440.png
subject-02,1,177,0.89275598526001,knife,knife,false,0177_fc_s02_false_knife_35_n03041632_13742.png
subject-02,1,178,0.968453168869019,elephant,elephant,false,0178_fc_s02_false_elephant_35_n02504458_5191.png
subject-02,1,179,0.766234159469604,airplane,airplane,false,0179_fc_s02_false_airplane_35_n02690373_6856.png
subject-02,1,180,1.05804300308228,oven,oven,true,0180_fc_s02_true_oven_35_n04111531_4227.png
subject-02,1,181,1.05394506454468,car,car,true,0181_fc_s02_true_car_35_n03100240_2632.png
subject-02,1,182,0.713629007339478,boat,boat,true,0182_fc_s02_true_boat_35_n03662601_11862.png
subject-02,1,183,1.03539800643921,oven,oven,true,0183_fc_s02_true_oven_35_n04111531_5897.png
subject-02,1,184,0.687319040298462,truck,truck,false,0184_fc_s02_false_truck_35_n04467665_56815.png
subject-02,1,185,0.681268930435181,airplane,airplane,false,0185_fc_s02_false_airplane_35_n02690373_12896.png
subject-02,1,186,0.884803056716919,car,car,true,0186_fc_s02_true_car_35_n02814533_46508.png
subject-02,1,187,0.676719903945923,boat,boat,true,0187_fc_s02_true_boat_35_n02951358_31514.png
subject-02,1,188,0.910509824752808,dog,dog,false,0188_fc_s02_false_dog_35_n02110185_14056.png
subject-02,1,189,0.992326974868774,cat,bear,false,0189_fc_s02_false_bear_35_n02134418_2440.png
subject-02,1,190,0.830239772796631,car,car,true,0190_fc_s02_true_car_35_n04285008_2841.png
subject-02,1,191,1.09987711906433,elephant,elephant,true,0191_fc_s02_true_elephant_35_n02504013_2558.png
subject-02,1,192,0.68379020690918,cat,cat,true,0192_fc_s02_true_cat_35_n02123597_5081.png
subject-02,1,193,0.617600917816162,clock,clock,false,0193_fc_s02_false_clock_35_n03196217_6999.png
subject-02,1,194,1.31732511520386,knife,knife,false,0194_fc_s02_false_knife_35_n03041632_16104.png
subject-02,1,195,0.905225992202759,knife,knife,true,0195_fc_s02_true_knife_35_n03041632_18748.png
subject-02,1,196,1.2370970249176,bird,bird,false,0196_fc_s02_false_bird_35_n01833805_4819.png
subject-02,1,197,0.78479790687561,boat,airplane,false,0197_fc_s02_false_airplane_35_n02690373_9659.png
subject-02,1,198,0.690510988235474,airplane,airplane,true,0198_fc_s02_true_airplane_35_n02690373_866.png
subject-02,1,199,0.904311895370483,elephant,elephant,false,0199_fc_s02_false_elephant_35_n02504013_637.png
subject-02,1,200,0.688256025314331,knife,knife,true,0200_fc_s02_true_knife_35_n03041632_84869.png
subject-02,1,201,0.806066989898682,chair,clock,true,0201_fc_s02_true_clock_35_n04548280_3245.png
subject-02,1,202,0.723915100097656,knife,knife,false,0202_fc_s02_false_knife_35_n03041632_11285.png
subject-02,1,203,0.687649011611938,bottle,bottle,true,0203_fc_s02_true_bottle_35_n04557648_1791.png
subject-02,1,204,1.01538896560669,chair,knife,true,0204_fc_s02_true_knife_35_n03041632_1143.png
subject-02,1,205,0.845169067382812,airplane,airplane,true,0205_fc_s02_true_airplane_35_n02690373_4175.png
subject-02,1,206,0.681046962738037,bird,bird,false,0206_fc_s02_false_bird_35_n02013706_5736.png
subject-02,1,207,0.840749979019165,airplane,airplane,false,0207_fc_s02_false_airplane_35_n02690373_6363.png
subject-02,1,208,0.61887001991272,bottle,bottle,true,0208_fc_s02_true_bottle_35_n04579145_1705.png
subject-02,1,209,1.00866103172302,dog,dog,true,0209_fc_s02_true_dog_35_n02108551_262.png
subject-02,1,210,0.810185194015503,dog,dog,false,0210_fc_s02_false_dog_35_n02097130_2470.png
subject-02,1,211,0.680484771728516,clock,clock,false,0211_fc_s02_false_clock_35_n02708093_2744.png
subject-02,1,212,0.686010122299194,truck,truck,true,0212_fc_s02_true_truck_35_n04467665_43410.png
subject-02,1,213,0.668056964874268,oven,oven,true,0213_fc_s02_true_oven_35_n04111531_13479.png
subject-02,1,214,0.827666997909546,bicycle,bicycle,true,0214_fc_s02_true_bicycle_35_n03792782_634.png
subject-02,1,215,0.933241128921509,chair,keyboard,true,0215_fc_s02_true_keyboard_35_n03085013_21769.png
subject-02,1,216,0.951255083084106,keyboard,clock,false,0216_fc_s02_false_clock_35_n02708093_260.png
subject-02,1,217,0.745203971862793,bear,bear,true,0217_fc_s02_true_bear_35_n02134418_11557.png
subject-02,1,218,0.674798965454102,bicycle,bicycle,true,0218_fc_s02_true_bicycle_35_n02835271_15930.png
subject-02,1,219,0.710809946060181,clock,clock,true,0219_fc_s02_true_clock_35_n04548280_7794.png
subject-02,1,220,0.948545932769775,bottle,bottle,true,0220_fc_s02_true_bottle_35_n04591713_5518.png
subject-02,1,221,0.852106809616089,bear,bear,true,0221_fc_s02_true_bear_35_n02134418_6244.png
subject-02,1,222,0.708024024963379,bicycle,bicycle,true,0222_fc_s02_true_bicycle_35_n02835271_6137.png
subject-02,1,223,0.913712978363037,car,car,true,0223_fc_s02_true_car_35_n03100240_20935.png
subject-02,1,224,0.953541994094849,keyboard,keyboard,false,0224_fc_s02_false_keyboard_35_n04505470_3499.png
subject-02,1,225,0.761563062667847,bicycle,bicycle,true,0225_fc_s02_true_bicycle_35_n03792782_4403.png
subject-02,1,226,NaN,na,bear,false,0226_fc_s02_false_bear_35_n02134084_21407.png
subject-02,1,227,0.805053949356079,clock,clock,false,0227_fc_s02_false_clock_35_n02708093_616.png
subject-02,1,228,0.730888843536377,bird,bird,false,0228_fc_s02_false_bird_35_n02007558_13217.png
subject-02,1,229,0.940674066543579,bear,bear,true,0229_fc_s02_true_bear_35_n02133161_713.png
subject-02,1,230,0.714553117752075,keyboard,keyboard,true,0230_fc_s02_true_keyboard_35_n04505470_4500.png
subject-02,1,231,0.576433181762695,boat,boat,true,0231_fc_s02_true_boat_35_n03344393_2919.png
subject-02,1,232,0.869956970214844,keyboard,bicycle,true,0232_fc_s02_true_bicycle_35_n03792782_7388.png
subject-02,1,233,0.897852182388306,truck,truck,false,0233_fc_s02_false_truck_35_n03796401_6503.png
subject-02,1,234,0.806061029434204,bicycle,bicycle,false,0234_fc_s02_false_bicycle_35_n02835271_13404.png
subject-02,1,235,0.857885122299194,bird,bird,true,0235_fc_s02_true_bird_35_n01818515_8330.png
subject-02,1,236,0.79550313949585,clock,clock,true,0236_fc_s02_true_clock_35_n04548280_9828.png
subject-02,1,237,0.917532920837402,bear,bear,false,0237_fc_s02_false_bear_35_n02132136_7754.png
subject-02,1,238,0.91314697265625,dog,dog,false,0238_fc_s02_false_dog_35_n02107574_3387.png
subject-02,1,239,0.693018913269043,car,car,false,0239_fc_s02_false_car_35_n03100240_10706.png
subject-02,1,240,1.5000422000885,knife,cat,true,0240_fc_s02_true_cat_35_n02123159_7762.png
subject-02,1,241,0.965053081512451,bottle,knife,true,0241_fc_s02_true_knife_35_n03041632_3926.png
subject-02,1,242,0.708728075027466,elephant,elephant,true,0242_fc_s02_true_elephant_35_n02504458_6721.png
subject-02,1,243,0.666491985321045,bird,bird,true,0243_fc_s02_true_bird_35_n01601694_4224.png
subject-02,1,244,0.708451986312866,dog,dog,false,0244_fc_s02_false_dog_35_n02113712_913.png
subject-02,1,245,0.858114957809448,boat,boat,true,0245_fc_s02_true_boat_35_n04273569_26182.png
subject-02,1,246,0.64988112449646,chair,chair,true,0246_fc_s02_true_chair_35_n03376595_4322.png
subject-02,1,247,0.899848937988281,keyboard,keyboard,false,0247_fc_s02_false_keyboard_35_n03085013_20957.png
subject-02,1,248,0.677524089813232,boat,boat,true,0248_fc_s02_true_boat_35_n03662601_1926.png
subject-02,1,249,0.765180110931396,bear,bear,true,0249_fc_s02_true_bear_35_n02134418_1809.png
subject-02,1,250,0.629083156585693,keyboard,keyboard,true,0250_fc_s02_true_keyboard_35_n04505470_3234.png
subject-02,1,251,0.778932809829712,truck,truck,true,0251_fc_s02_true_truck_35_n04467665_3094.png
subject-02,1,252,0.82266902923584,oven,chair,false,0252_fc_s02_false_chair_35_n02791124_13701.png
subject-02,1,253,0.622431039810181,cat,cat,false,0253_fc_s02_false_cat_35_n02124075_3592.png
subject-02,1,254,0.812236070632935,keyboard,bottle,true,0254_fc_s02_true_bottle_35_n04591713_7133.png
subject-02,1,255,0.754248142242432,bird,bird,true,0255_fc_s02_true_bird_35_n01798484_9155.png
subject-02,1,256,0.981965065002441,car,airplane,false,0256_fc_s02_false_airplane_35_n02690373_2075.png
subject-02,1,257,0.56768798828125,boat,boat,false,0257_fc_s02_false_boat_35_n04273569_9873.png
subject-02,1,258,0.587692975997925,clock,clock,true,0258_fc_s02_true_clock_35_n04548280_8071.png
subject-02,1,259,0.653455972671509,boat,boat,true,0259_fc_s02_true_boat_35_n04273569_9282.png
subject-02,1,260,0.633279085159302,chair,chair,false,0260_fc_s02_false_chair_35_n03376595_14748.png
subject-02,1,261,0.68314003944397,car,car,false,0261_fc_s02_false_car_35_n03100240_23804.png
subject-02,1,262,0.618666172027588,oven,oven,true,0262_fc_s02_true_oven_35_n04111531_547.png
subject-02,1,263,0.710802793502808,bear,bear,true,0263_fc_s02_true_bear_35_n02134418_379.png
subject-02,1,264,0.694586992263794,dog,dog,true,0264_fc_s02_true_dog_35_n02087046_4409.png
subject-02,1,265,0.576153039932251,oven,oven,false,0265_fc_s02_false_oven_35_n04111531_4918.png
subject-02,1,266,0.924203872680664,knife,knife,true,0266_fc_s02_true_knife_35_n03041632_2390.png
subject-02,1,267,0.653955936431885,car,car,false,0267_fc_s02_false_car_35_n03100240_6311.png
subject-02,1,268,1.0715229511261,keyboard,keyboard,true,0268_fc_s02_true_keyboard_35_n04505470_3002.png
subject-02,1,269,0.853422164916992,chair,chair,true,0269_fc_s02_true_chair_35_n02791124_958.png
subject-02,1,270,0.785212993621826,clock,chair,true,0270_fc_s02_true_chair_35_n04429376_17646.png
subject-02,1,271,0.703041076660156,car,car,true,0271_fc_s02_true_car_35_n03100240_9497.png
subject-02,1,272,0.898825883865356,bottle,knife,false,0272_fc_s02_false_knife_35_n03041632_99875.png
subject-02,1,273,0.932713985443115,bicycle,bicycle,false,0273_fc_s02_false_bicycle_35_n02835271_927.png
subject-02,1,274,1.03240394592285,dog,dog,true,0274_fc_s02_true_dog_35_n02088094_9498.png
subject-02,1,275,0.682365894317627,truck,truck,false,0275_fc_s02_false_truck_35_n04467665_3529.png
subject-02,1,276,1.21835494041443,bird,bird,false,0276_fc_s02_false_bird_35_n01531178_53368.png
subject-02,1,277,0.790024042129517,bottle,bottle,true,0277_fc_s02_true_bottle_35_n04591713_13349.png
subject-02,1,278,0.667827129364014,bird,bird,false,0278_fc_s02_false_bird_35_n01592084_4087.png
subject-02,1,279,0.741631984710693,clock,truck,false,0279_fc_s02_false_truck_35_n03417042_2155.png
subject-02,1,280,0.811367988586426,bottle,oven,true,0280_fc_s02_true_oven_35_n04111531_12929.png
subject-02,1,281,0.855217933654785,keyboard,oven,true,0281_fc_s02_true_oven_35_n04111531_22563.png
subject-02,1,282,0.705130100250244,chair,chair,true,0282_fc_s02_true_chair_35_n04099969_38402.png
subject-02,1,283,0.755063056945801,knife,knife,true,0283_fc_s02_true_knife_35_n03041632_24817.png
subject-02,1,284,0.960726022720337,bicycle,bicycle,false,0284_fc_s02_false_bicycle_35_n03792782_70169.png
subject-02,1,285,1.05648803710938,clock,oven,true,0285_fc_s02_true_oven_35_n04111531_8681.png
subject-02,1,286,0.522366046905518,cat,cat,false,0286_fc_s02_false_cat_35_n02124075_6210.png
subject-02,1,287,0.69608998298645,bird,bird,false,0287_fc_s02_false_bird_35_n01560419_2291.png
subject-02,1,288,1.1058189868927,dog,dog,true,0288_fc_s02_true_dog_35_n02112018_9196.png
subject-02,1,289,0.591717958450317,oven,oven,true,0289_fc_s02_true_oven_35_n04111531_4116.png
subject-02,1,290,1.10955595970154,knife,knife,true,0290_fc_s02_true_knife_35_n03041632_4057.png
subject-02,1,291,1.4934458732605,clock,clock,true,0291_fc_s02_true_clock_35_n03196217_5888.png
subject-02,1,292,0.863478899002075,elephant,elephant,false,0292_fc_s02_false_elephant_35_n02504458_3881.png
subject-02,1,293,0.934814929962158,bird,bird,true,0293_fc_s02_true_bird_35_n02002724_2909.png
subject-02,1,294,0.766817808151245,car,car,false,0294_fc_s02_false_car_35_n04285008_863.png
subject-02,1,295,0.680465936660767,dog,dog,false,0295_fc_s02_false_dog_35_n02086646_8449.png
subject-02,1,296,0.870677947998047,clock,chair,true,0296_fc_s02_true_chair_35_n04429376_22811.png
subject-02,1,297,1.30433702468872,bottle,bottle,false,0297_fc_s02_false_bottle_35_n03937543_2344.png
subject-02,1,298,0.877941131591797,elephant,elephant,true,0298_fc_s02_true_elephant_35_n02504013_3810.png
subject-02,1,299,0.583820104598999,boat,boat,false,0299_fc_s02_false_boat_35_n02951358_461.png
subject-02,1,300,0.867569923400879,dog,dog,false,0300_fc_s02_false_dog_35_n02099601_8560.png
subject-02,1,301,0.823862791061401,chair,chair,true,0301_fc_s02_true_chair_35_n03376595_3654.png
subject-02,1,302,0.763259887695312,keyboard,keyboard,false,0302_fc_s02_false_keyboard_35_n03085013_24206.png
subject-02,1,303,0.729004859924316,bear,bear,false,0303_fc_s02_false_bear_35_n02133161_13356.png
subject-02,1,304,0.774770021438599,dog,bottle,true,0304_fc_s02_true_bottle_35_n03983396_5055.png
subject-02,1,305,0.822695970535278,oven,oven,true,0305_fc_s02_true_oven_35_n04111531_594.png
subject-02,1,306,0.882456064224243,bear,bear,true,0306_fc_s02_true_bear_35_n02133161_6448.png
subject-02,1,307,0.858373165130615,bird,bird,false,0307_fc_s02_false_bird_35_n01829413_2459.png
subject-02,1,308,0.878507137298584,bicycle,bicycle,true,0308_fc_s02_true_bicycle_35_n03792782_51156.png
subject-02,1,309,0.769850969314575,bicycle,bicycle,true,0309_fc_s02_true_bicycle_35_n03792782_17545.png
subject-02,1,310,1.04385805130005,oven,oven,false,0310_fc_s02_false_oven_35_n04111531_14329.png
subject-02,1,311,0.633373022079468,bear,bear,false,0311_fc_s02_false_bear_35_n02132136_7231.png
subject-02,1,312,0.839404106140137,bird,dog,true,0312_fc_s02_true_dog_35_n02097658_4387.png
subject-02,1,313,0.833364963531494,chair,bicycle,true,0313_fc_s02_true_bicycle_35_n02835271_14225.png
subject-02,1,314,0.885313034057617,knife,knife,false,0314_fc_s02_false_knife_35_n03041632_29680.png
subject-02,1,315,1.18474006652832,elephant,elephant,false,0315_fc_s02_false_elephant_35_n02504013_5774.png
subject-02,1,316,1.41850900650024,knife,knife,false,0316_fc_s02_false_knife_35_n03041632_11326.png
subject-02,1,317,0.74272084236145,boat,car,false,0317_fc_s02_false_car_35_n03100240_15097.png
subject-02,1,318,1.23810315132141,bottle,bottle,true,0318_fc_s02_true_bottle_35_n04560804_15843.png
subject-02,1,319,0.802046060562134,elephant,elephant,false,0319_fc_s02_false_elephant_35_n02504458_4139.png
subject-02,1,320,0.94364595413208,elephant,elephant,false,0320_fc_s02_false_elephant_35_n02504458_209.png
subject-02,1,321,1.10153579711914,knife,knife,true,0321_fc_s02_true_knife_35_n03041632_11613.png
subject-02,1,322,0.643910884857178,elephant,elephant,false,0322_fc_s02_false_elephant_35_n02504458_11693.png
subject-02,1,323,1.00115013122559,bottle,chair,false,0323_fc_s02_false_chair_35_n02791124_4547.png
subject-02,1,324,0.777018070220947,bird,bird,true,0324_fc_s02_true_bird_35_n01560419_631.png
subject-02,1,325,0.544713973999023,clock,clock,false,0325_fc_s02_false_clock_35_n04548280_2291.png
subject-02,1,326,0.594633102416992,airplane,airplane,false,0326_fc_s02_false_airplane_35_n02690373_3753.png
subject-02,1,327,1.5001220703125,oven,oven,false,0327_fc_s02_false_oven_35_n04111531_6400.png
subject-02,1,328,0.658557176589966,bear,bear,true,0328_fc_s02_true_bear_35_n02133161_1302.png
subject-02,1,329,0.832053899765015,bottle,bottle,false,0329_fc_s02_false_bottle_35_n04557648_3615.png
subject-02,1,330,1.07795786857605,truck,truck,true,0330_fc_s02_true_truck_35_n03796401_3148.png
subject-02,1,331,0.697926044464111,airplane,airplane,true,0331_fc_s02_true_airplane_35_n02690373_2162.png
subject-02,1,332,0.595510005950928,cat,cat,true,0332_fc_s02_true_cat_35_n02125311_6746.png
subject-02,1,333,0.621517896652222,airplane,airplane,true,0333_fc_s02_true_airplane_35_n02690373_3920.png
subject-02,1,334,0.63298487663269,keyboard,keyboard,true,0334_fc_s02_true_keyboard_35_n03085013_5157.png
subject-02,1,335,0.676966190338135,keyboard,keyboard,false,0335_fc_s02_false_keyboard_35_n04505470_7388.png
subject-02,1,336,0.890933036804199,car,car,false,0336_fc_s02_false_car_35_n02814533_33576.png
subject-02,1,337,0.876671075820923,dog,dog,true,0337_fc_s02_true_dog_35_n02096585_9543.png
subject-02,1,338,0.704548835754395,clock,chair,false,0338_fc_s02_false_chair_35_n04429376_36830.png
subject-02,1,339,1.23016619682312,knife,knife,true,0339_fc_s02_true_knife_35_n03041632_36390.png
subject-02,1,340,0.748004913330078,oven,oven,true,0340_fc_s02_true_oven_35_n04111531_9762.png
subject-02,1,341,1.10775995254517,truck,truck,true,0341_fc_s02_true_truck_35_n04467665_2505.png
subject-02,1,342,1.1874361038208,cat,cat,true,0342_fc_s02_true_cat_35_n02123597_6291.png
subject-02,1,343,0.941354990005493,dog,dog,false,0343_fc_s02_false_dog_35_n02100877_4371.png
subject-02,1,344,0.613411903381348,oven,oven,true,0344_fc_s02_true_oven_35_n04111531_1898.png
subject-02,1,345,0.687102079391479,bear,bear,true,0345_fc_s02_true_bear_35_n02134418_2657.png
subject-02,1,346,1.39288091659546,keyboard,keyboard,false,0346_fc_s02_false_keyboard_35_n04505470_2921.png
subject-02,1,347,0.602792978286743,clock,clock,false,0347_fc_s02_false_clock_35_n04548280_17802.png
subject-02,1,348,0.808448076248169,car,car,false,0348_fc_s02_false_car_35_n03100240_6626.png
subject-02,1,349,0.882422924041748,bird,airplane,false,0349_fc_s02_false_airplane_35_n02690373_1831.png
subject-02,1,350,1.05194902420044,bear,bear,true,0350_fc_s02_true_bear_35_n02134418_9289.png
subject-02,1,351,0.667868852615356,keyboard,keyboard,false,0351_fc_s02_false_keyboard_35_n04505470_8148.png
subject-02,1,352,0.74779200553894,oven,oven,false,0352_fc_s02_false_oven_35_n04111531_6500.png
subject-02,1,353,1.02364802360535,clock,keyboard,true,0353_fc_s02_true_keyboard_35_n03085013_15484.png
subject-02,1,354,1.13527798652649,car,car,true,0354_fc_s02_true_car_35_n04285008_12754.png
subject-02,1,355,0.709167957305908,airplane,airplane,false,0355_fc_s02_false_airplane_35_n02690373_5967.png
subject-02,1,356,0.755115032196045,bicycle,bicycle,true,0356_fc_s02_true_bicycle_35_n03792782_1989.png
subject-02,1,357,0.804795980453491,airplane,airplane,false,0357_fc_s02_false_airplane_35_n02690373_9926.png
subject-02,1,358,0.754724979400635,elephant,elephant,false,0358_fc_s02_false_elephant_35_n02504013_8007.png
subject-02,1,359,0.90239405632019,truck,truck,false,0359_fc_s02_false_truck_35_n03417042_10654.png
subject-02,1,360,1.0683970451355,chair,bottle,false,0360_fc_s02_false_bottle_35_n04560804_15263.png
subject-02,1,361,0.755851030349731,truck,truck,true,0361_fc_s02_true_truck_35_n03796401_6980.png
subject-02,1,362,1.19606304168701,car,car,false,0362_fc_s02_false_car_35_n03100240_2425.png
subject-02,1,363,1.19154191017151,cat,bird,true,0363_fc_s02_true_bird_35_n01622779_5441.png
subject-02,1,364,1.16354513168335,knife,dog,false,0364_fc_s02_false_dog_35_n02091134_7695.png
subject-02,1,365,0.655329942703247,clock,clock,true,0365_fc_s02_true_clock_35_n02708093_8386.png
subject-02,1,366,0.631258964538574,bottle,bottle,true,0366_fc_s02_true_bottle_35_n02823428_5807.png
subject-02,1,367,0.58881402015686,elephant,elephant,false,0367_fc_s02_false_elephant_35_n02504013_3771.png
subject-02,1,368,0.948596000671387,elephant,elephant,true,0368_fc_s02_true_elephant_35_n02504458_4861.png
subject-02,1,369,0.818495988845825,truck,truck,false,0369_fc_s02_false_truck_35_n03417042_6204.png
subject-02,1,370,0.876328945159912,bottle,bottle,true,0370_fc_s02_true_bottle_35_n04591713_4291.png
subject-02,1,371,0.570533990859985,airplane,airplane,false,0371_fc_s02_false_airplane_35_n02690373_3362.png
subject-02,1,372,1.06624794006348,knife,knife,false,0372_fc_s02_false_knife_35_n03041632_37949.png
subject-02,1,373,1.13978791236877,car,car,true,0373_fc_s02_true_car_35_n02814533_56999.png
subject-02,1,374,0.713683843612671,elephant,elephant,false,0374_fc_s02_false_elephant_35_n02504013_2672.png
subject-02,1,375,0.63543176651001,car,car,false,0375_fc_s02_false_car_35_n04285008_9383.png
subject-02,1,376,0.989244937896729,bird,bird,false,0376_fc_s02_false_bird_35_n01855672_2187.png
subject-02,1,377,0.770988941192627,knife,knife,true,0377_fc_s02_true_knife_35_n03041632_45569.png
subject-02,1,378,0.746757984161377,keyboard,keyboard,false,0378_fc_s02_false_keyboard_35_n03085013_20727.png
subject-02,1,379,1.0666720867157,airplane,airplane,false,0379_fc_s02_false_airplane_35_n02690373_7279.png
subject-02,1,380,0.920629978179932,elephant,bear,true,0380_fc_s02_true_bear_35_n02134418_6204.png
subject-02,1,381,0.604207038879395,cat,cat,true,0381_fc_s02_true_cat_35_n02123394_1122.png
subject-02,1,382,0.786053895950317,bear,bear,false,0382_fc_s02_false_bear_35_n02134418_896.png
subject-02,1,383,0.633958101272583,clock,clock,true,0383_fc_s02_true_clock_35_n02708093_3355.png
subject-02,1,384,0.687623977661133,truck,truck,true,0384_fc_s02_true_truck_35_n03796401_27288.png
subject-02,1,385,0.675457000732422,knife,knife,false,0385_fc_s02_false_knife_35_n03041632_5640.png
subject-02,1,386,0.753230094909668,bottle,bottle,false,0386_fc_s02_false_bottle_35_n02823428_4358.png
subject-02,1,387,0.835097789764404,bottle,bottle,true,0387_fc_s02_true_bottle_35_n03937543_469.png
subject-02,1,388,0.774931907653809,car,car,false,0388_fc_s02_false_car_35_n04285008_14689.png
subject-02,1,389,NaN,na,keyboard,false,0389_fc_s02_false_keyboard_35_n03085013_20704.png
subject-02,1,390,0.576564073562622,clock,clock,false,0390_fc_s02_false_clock_35_n02708093_5265.png
subject-02,1,391,0.664453029632568,dog,dog,true,0391_fc_s02_true_dog_35_n02096437_1984.png
subject-02,1,392,1.07853293418884,bicycle,bicycle,true,0392_fc_s02_true_bicycle_35_n02835271_6539.png
subject-02,1,393,1.0280339717865,dog,bird,false,0393_fc_s02_false_bird_35_n01796340_4853.png
subject-02,1,394,0.721820116043091,elephant,elephant,true,0394_fc_s02_true_elephant_35_n02504013_6431.png
subject-02,1,395,0.667994976043701,car,car,true,0395_fc_s02_true_car_35_n02814533_26516.png
subject-02,1,396,1.50012493133545,knife,airplane,true,0396_fc_s02_true_airplane_35_n02690373_2068.png
subject-02,1,397,0.769495964050293,car,car,false,0397_fc_s02_false_car_35_n03100240_6248.png
subject-02,1,398,0.727164030075073,bear,bear,true,0398_fc_s02_true_bear_35_n02132136_8059.png
subject-02,1,399,1.10495400428772,truck,truck,false,0399_fc_s02_false_truck_35_n04467665_46470.png
subject-02,1,400,0.800737857818604,dog,dog,true,0400_fc_s02_true_dog_35_n02088466_7803.png
subject-02,1,401,0.620403051376343,boat,boat,true,0401_fc_s02_true_boat_35_n04273569_11645.png
subject-02,1,402,0.622318029403687,bottle,bottle,true,0402_fc_s02_true_bottle_35_n03983396_8768.png
subject-02,1,403,0.735944986343384,boat,airplane,false,0403_fc_s02_false_airplane_35_n02690373_2203.png
subject-02,1,404,0.815720081329346,bear,bear,true,0404_fc_s02_true_bear_35_n02134084_22292.png
subject-02,1,405,0.94936990737915,clock,oven,false,0405_fc_s02_false_oven_35_n04111531_11079.png
subject-02,1,406,0.743292093276978,bicycle,bicycle,false,0406_fc_s02_false_bicycle_35_n02835271_12701.png
subject-02,1,407,0.587130069732666,oven,oven,true,0407_fc_s02_true_oven_35_n04111531_12769.png
subject-02,1,408,0.87711501121521,chair,chair,true,0408_fc_s02_true_chair_35_n04099969_6309.png
subject-02,1,409,0.576853036880493,boat,boat,false,0409_fc_s02_false_boat_35_n03344393_5198.png
subject-02,1,410,0.664695978164673,chair,chair,false,0410_fc_s02_false_chair_35_n03376595_9136.png
subject-02,1,411,0.64445686340332,oven,oven,true,0411_fc_s02_true_oven_35_n04111531_21911.png
subject-02,1,412,0.630223989486694,car,car,false,0412_fc_s02_false_car_35_n04285008_7924.png
subject-02,1,413,0.953997135162354,bottle,bottle,false,0413_fc_s02_false_bottle_35_n04560804_564.png
subject-02,1,414,0.609740972518921,cat,cat,false,0414_fc_s02_false_cat_35_n02123045_12060.png
subject-02,1,415,1.03981304168701,dog,dog,false,0415_fc_s02_false_dog_35_n02109525_49924.png
subject-02,1,416,0.773713111877441,bird,bird,true,0416_fc_s02_true_bird_35_n01817953_5953.png
subject-02,1,417,1.0215151309967,bird,bird,true,0417_fc_s02_true_bird_35_n01828970_25642.png
subject-02,1,418,0.606977939605713,cat,cat,true,0418_fc_s02_true_cat_35_n02125311_8541.png
subject-02,1,419,1.08094096183777,cat,elephant,true,0419_fc_s02_true_elephant_35_n02504458_975.png
subject-02,1,420,0.752787828445435,bicycle,bicycle,true,0420_fc_s02_true_bicycle_35_n02835271_3042.png
subject-02,1,421,0.842420101165771,dog,dog,false,0421_fc_s02_false_dog_35_n02088238_9947.png
subject-02,1,422,0.790654182434082,bear,bear,true,0422_fc_s02_true_bear_35_n02132136_11640.png
subject-02,1,423,0.814193964004517,dog,dog,false,0423_fc_s02_false_dog_35_n02113023_863.png
subject-02,1,424,0.707993984222412,boat,boat,true,0424_fc_s02_true_boat_35_n02951358_32687.png
subject-02,1,425,1.0400710105896,truck,boat,false,0425_fc_s02_false_boat_35_n03662601_18579.png
subject-02,1,426,0.635525941848755,chair,chair,false,0426_fc_s02_false_chair_35_n03376595_1810.png
subject-02,1,427,0.695233821868896,bear,bear,false,0427_fc_s02_false_bear_35_n02133161_11351.png
subject-02,1,428,0.667057991027832,airplane,airplane,true,0428_fc_s02_true_airplane_35_n02690373_8538.png
subject-02,1,429,0.796914100646973,car,boat,false,0429_fc_s02_false_boat_35_n02951358_12867.png
subject-02,1,430,0.794762134552002,oven,oven,false,0430_fc_s02_false_oven_35_n04111531_4050.png
subject-02,1,431,0.888881921768188,bear,elephant,true,0431_fc_s02_true_elephant_35_n02504458_2970.png
subject-02,1,432,0.954661846160889,bird,airplane,true,0432_fc_s02_true_airplane_35_n02690373_5130.png
subject-02,1,433,1.32027697563171,oven,clock,false,0433_fc_s02_false_clock_35_n04548280_4542.png
subject-02,1,434,0.668111085891724,boat,boat,true,0434_fc_s02_true_boat_35_n03344393_1145.png
subject-02,1,435,0.911781072616577,dog,dog,false,0435_fc_s02_false_dog_35_n02100877_3363.png
subject-02,1,436,0.685773134231567,cat,cat,true,0436_fc_s02_true_cat_35_n02123159_5467.png
subject-02,1,437,0.64145302772522,dog,dog,true,0437_fc_s02_true_dog_35_n02107908_8344.png
subject-02,1,438,0.739228010177612,chair,chair,false,0438_fc_s02_false_chair_35_n03376595_635.png
subject-02,1,439,0.569138050079346,clock,clock,true,0439_fc_s02_true_clock_35_n03196217_7888.png
subject-02,1,440,0.740932941436768,keyboard,keyboard,false,0440_fc_s02_false_keyboard_35_n03085013_3231.png
subject-02,1,441,0.83887505531311,chair,chair,true,0441_fc_s02_true_chair_35_n02791124_5438.png
subject-02,1,442,0.830631017684937,bird,bird,true,0442_fc_s02_true_bird_35_n01828970_11339.png
subject-02,1,443,0.786462068557739,keyboard,keyboard,true,0443_fc_s02_true_keyboard_35_n04505470_2669.png
subject-02,1,444,0.83624005317688,boat,boat,true,0444_fc_s02_true_boat_35_n03662601_4665.png
subject-02,1,445,0.688327074050903,cat,cat,false,0445_fc_s02_false_cat_35_n02123597_3575.png
subject-02,1,446,0.819898843765259,keyboard,keyboard,false,0446_fc_s02_false_keyboard_35_n03085013_21300.png
subject-02,1,447,1.08199977874756,car,car,true,0447_fc_s02_true_car_35_n02814533_55937.png
subject-02,1,448,0.781527996063232,oven,oven,false,0448_fc_s02_false_oven_35_n04111531_16583.png
subject-02,1,449,0.73725700378418,bear,bear,false,0449_fc_s02_false_bear_35_n02134418_1409.png
subject-02,1,450,0.767457962036133,keyboard,keyboard,true,0450_fc_s02_true_keyboard_35_n03085013_21641.png
subject-02,1,451,0.700968980789185,chair,chair,false,0451_fc_s02_false_chair_35_n03376595_4212.png
subject-02,1,452,0.570724010467529,cat,cat,true,0452_fc_s02_true_cat_35_n02123045_6507.png
subject-02,1,453,0.910415887832642,dog,dog,true,0453_fc_s02_true_dog_35_n02100583_19533.png
subject-02,1,454,0.882428169250488,oven,boat,false,0454_fc_s02_false_boat_35_n03662601_24852.png
subject-02,1,455,0.558023929595947,boat,boat,true,0455_fc_s02_true_boat_35_n02951358_31470.png
subject-02,1,456,0.826011896133423,car,car,false,0456_fc_s02_false_car_35_n03100240_12694.png
subject-02,1,457,0.917661190032959,knife,knife,true,0457_fc_s02_true_knife_35_n03041632_24883.png
subject-02,1,458,0.609449863433838,cat,cat,false,0458_fc_s02_false_cat_35_n02123394_4383.png
subject-02,1,459,0.971277952194214,bicycle,bicycle,false,0459_fc_s02_false_bicycle_35_n03792782_18665.png
subject-02,1,460,0.879498958587646,bird,bird,false,0460_fc_s02_false_bird_35_n02027492_3922.png
subject-02,1,461,0.694819927215576,oven,oven,false,0461_fc_s02_false_oven_35_n04111531_18245.png
subject-02,1,462,0.634680032730103,boat,boat,false,0462_fc_s02_false_boat_35_n04612504_41355.png
subject-02,1,463,0.964808940887451,elephant,elephant,true,0463_fc_s02_true_elephant_35_n02504013_9809.png
subject-02,1,464,0.874372959136963,chair,chair,false,0464_fc_s02_false_chair_35_n03376595_120.png
subject-02,1,465,0.754194974899292,elephant,elephant,false,0465_fc_s02_false_elephant_35_n02504013_237.png
subject-02,1,466,0.809914112091064,bear,knife,false,0466_fc_s02_false_knife_35_n03041632_104379.png
subject-02,1,467,0.531880855560303,cat,cat,true,0467_fc_s02_true_cat_35_n02123394_4734.png
subject-02,1,468,0.705747127532959,truck,truck,true,0468_fc_s02_true_truck_35_n04467665_13989.png
subject-02,1,469,0.651297092437744,boat,boat,false,0469_fc_s02_false_boat_35_n02951358_5118.png
subject-02,1,470,0.607218027114868,cat,cat,true,0470_fc_s02_true_cat_35_n02125311_53315.png
subject-02,1,471,0.741025924682617,cat,chair,false,0471_fc_s02_false_chair_35_n04429376_19617.png
subject-02,1,472,0.592947959899902,boat,boat,false,0472_fc_s02_false_boat_35_n04273569_2040.png
subject-02,1,473,0.550623893737793,clock,clock,false,0473_fc_s02_false_clock_35_n02708093_3745.png
subject-02,1,474,0.830402851104736,elephant,elephant,true,0474_fc_s02_true_elephant_35_n02504458_6435.png
subject-02,1,475,0.930482149124146,bear,bird,false,0475_fc_s02_false_bird_35_n01796340_4643.png
subject-02,1,476,0.840147972106934,boat,boat,false,0476_fc_s02_false_boat_35_n02951358_7006.png
subject-02,1,477,1.02395510673523,knife,knife,false,0477_fc_s02_false_knife_35_n03041632_16932.png
subject-02,1,478,0.757699012756348,cat,bear,true,0478_fc_s02_true_bear_35_n02134084_4477.png
subject-02,1,479,0.667747020721436,dog,dog,true,0479_fc_s02_true_dog_35_n02090379_4918.png
subject-02,1,480,0.717445850372314,boat,boat,true,0480_fc_s02_true_boat_35_n02951358_31198.png
subject-02,1,481,0.668689966201782,bird,bird,false,0481_fc_s02_false_bird_35_n01532829_10530.png
subject-02,1,482,0.688313961029053,clock,clock,false,0482_fc_s02_false_clock_35_n04548280_7321.png
subject-02,1,483,0.642131090164185,bicycle,bicycle,false,0483_fc_s02_false_bicycle_35_n03792782_52427.png
subject-02,1,484,0.945707082748413,bird,bird,false,0484_fc_s02_false_bird_35_n02013706_651.png
subject-02,1,485,0.796042919158936,clock,oven,true,0485_fc_s02_true_oven_35_n04111531_10724.png
subject-02,1,486,0.741453886032104,oven,clock,true,0486_fc_s02_true_clock_35_n03196217_3430.png
subject-02,1,487,0.549530982971191,chair,chair,true,0487_fc_s02_true_chair_35_n04099969_14155.png
subject-02,1,488,0.619176864624023,chair,chair,false,0488_fc_s02_false_chair_35_n04429376_55163.png
subject-02,1,489,0.625224113464355,chair,chair,true,0489_fc_s02_true_chair_35_n02791124_1376.png
subject-02,1,490,0.667078018188477,clock,chair,false,0490_fc_s02_false_chair_35_n04429376_6272.png
subject-02,1,491,0.956616878509521,bottle,keyboard,false,0491_fc_s02_false_keyboard_35_n03085013_23865.png
subject-02,1,492,0.664337873458862,bicycle,bicycle,false,0492_fc_s02_false_bicycle_35_n03792782_828.png
subject-02,1,493,0.614187955856323,clock,clock,true,0493_fc_s02_true_clock_35_n04548280_503.png
subject-02,1,494,0.488091945648193,clock,clock,true,0494_fc_s02_true_clock_35_n04548280_1245.png
subject-02,1,495,0.819749116897583,chair,chair,false,0495_fc_s02_false_chair_35_n03376595_4912.png
subject-02,1,496,0.807760000228882,bird,bear,false,0496_fc_s02_false_bear_35_n02133161_693.png
subject-02,1,497,0.799542903900146,car,truck,true,0497_fc_s02_true_truck_35_n04467665_62080.png
subject-02,1,498,0.931311130523682,bear,bear,false,0498_fc_s02_false_bear_35_n02134084_1655.png
subject-02,1,499,1.49520611763,boat,boat,false,0499_fc_s02_false_boat_35_n03344393_6869.png
subject-02,1,500,1.03694295883179,knife,knife,false,0500_fc_s02_false_knife_35_n03041632_47743.png
subject-02,1,501,0.654987096786499,chair,chair,true,0501_fc_s02_true_chair_35_n04099969_7998.png
subject-02,1,502,0.720392942428589,oven,oven,true,0502_fc_s02_true_oven_35_n04111531_12820.png
subject-02,1,503,0.688422918319702,bird,bird,true,0503_fc_s02_true_bird_35_n01829413_282.png
subject-02,1,504,0.618068933486938,clock,clock,false,0504_fc_s02_false_clock_35_n04548280_1022.png
subject-02,1,505,0.69187593460083,airplane,airplane,true,0505_fc_s02_true_airplane_35_n02690373_9529.png
subject-02,1,506,0.545682191848755,cat,cat,false,0506_fc_s02_false_cat_35_n02125311_2401.png
subject-02,1,507,0.671680927276611,boat,boat,true,0507_fc_s02_true_boat_35_n04612504_13668.png
subject-02,1,508,0.773306846618652,oven,oven,false,0508_fc_s02_false_oven_35_n04111531_14804.png
subject-02,1,509,0.691067934036255,airplane,airplane,false,0509_fc_s02_false_airplane_35_n02690373_8770.png
subject-02,1,510,0.646893978118896,elephant,elephant,false,0510_fc_s02_false_elephant_35_n02504458_477.png
subject-02,1,511,0.688821077346802,cat,keyboard,true,0511_fc_s02_true_keyboard_35_n03085013_22187.png
subject-02,1,512,0.630751132965088,car,car,false,0512_fc_s02_false_car_35_n03100240_16803.png
subject-02,1,513,1.45639395713806,truck,truck,false,0513_fc_s02_false_truck_35_n03417042_8690.png
subject-02,1,514,0.946465969085693,bicycle,bicycle,false,0514_fc_s02_false_bicycle_35_n03792782_1418.png
subject-02,1,515,1.10598206520081,car,car,false,0515_fc_s02_false_car_35_n03100240_13908.png
subject-02,1,516,0.500065088272095,oven,oven,true,0516_fc_s02_true_oven_35_n04111531_20099.png
subject-02,1,517,0.753641843795776,elephant,elephant,false,0517_fc_s02_false_elephant_35_n02504013_4023.png
subject-02,1,518,0.811574220657349,bird,bird,false,0518_fc_s02_false_bird_35_n02037110_6501.png
subject-02,1,519,0.811683893203735,cat,bird,false,0519_fc_s02_false_bird_35_n01558993_869.png
subject-02,1,520,0.865319967269897,oven,oven,true,0520_fc_s02_true_oven_35_n04111531_7034.png
subject-02,1,521,1.03702998161316,clock,clock,false,0521_fc_s02_false_clock_35_n04548280_3994.png
subject-02,1,522,0.968871831893921,bird,bird,false,0522_fc_s02_false_bird_35_n01796340_5485.png
subject-02,1,523,0.790805101394653,oven,oven,false,0523_fc_s02_false_oven_35_n04111531_22138.png
subject-02,1,524,0.580370903015137,boat,boat,false,0524_fc_s02_false_boat_35_n03344393_8492.png
subject-02,1,525,0.690061092376709,cat,cat,true,0525_fc_s02_true_cat_35_n02125311_23425.png
subject-02,1,526,0.740043878555298,elephant,elephant,true,0526_fc_s02_true_elephant_35_n02504013_5432.png
subject-02,1,527,0.677874088287354,cat,bear,false,0527_fc_s02_false_bear_35_n02133161_12894.png
subject-02,1,528,0.577645063400269,clock,clock,true,0528_fc_s02_true_clock_35_n04548280_3997.png
subject-02,1,529,0.737483978271484,bear,bear,true,0529_fc_s02_true_bear_35_n02134418_1330.png
subject-02,1,530,0.825131893157959,car,car,false,0530_fc_s02_false_car_35_n02814533_2555.png
subject-02,1,531,0.799155950546265,boat,boat,false,0531_fc_s02_false_boat_35_n04273569_16295.png
subject-02,1,532,0.672861099243164,bicycle,bicycle,false,0532_fc_s02_false_bicycle_35_n03792782_5864.png
subject-02,1,533,0.670849800109863,oven,oven,true,0533_fc_s02_true_oven_35_n04111531_11116.png
subject-02,1,534,0.708375930786133,bicycle,bicycle,true,0534_fc_s02_true_bicycle_35_n03792782_14935.png
subject-02,1,535,0.700224161148071,bottle,bottle,false,0535_fc_s02_false_bottle_35_n03983396_8041.png
subject-02,1,536,0.668113946914673,chair,chair,true,0536_fc_s02_true_chair_35_n04099969_16456.png
subject-02,1,537,1.06800508499146,boat,bear,false,0537_fc_s02_false_bear_35_n02134084_14260.png
subject-02,1,538,0.785674095153809,boat,boat,true,0538_fc_s02_true_boat_35_n03344393_7773.png
subject-02,1,539,0.531543970108032,cat,cat,true,0539_fc_s02_true_cat_35_n02123159_1233.png
subject-02,1,540,0.669746160507202,cat,dog,false,0540_fc_s02_false_dog_35_n02105056_2046.png
subject-02,1,541,0.821224927902222,elephant,elephant,true,0541_fc_s02_true_elephant_35_n02504458_6437.png
subject-02,1,542,0.546868085861206,airplane,airplane,false,0542_fc_s02_false_airplane_35_n02690373_7735.png
subject-02,1,543,0.792694091796875,bear,bear,false,0543_fc_s02_false_bear_35_n02133161_3191.png
subject-02,1,544,0.928734064102173,clock,clock,true,0544_fc_s02_true_clock_35_n04548280_5408.png
subject-02,1,545,0.63053297996521,clock,clock,false,0545_fc_s02_false_clock_35_n02708093_56.png
subject-02,1,546,0.736288070678711,bicycle,bicycle,true,0546_fc_s02_true_bicycle_35_n03792782_12578.png
subject-02,1,547,0.676082134246826,bicycle,bicycle,true,0547_fc_s02_true_bicycle_35_n02835271_29653.png
subject-02,1,548,0.733994007110596,knife,knife,false,0548_fc_s02_false_knife_35_n03041632_18532.png
subject-02,1,549,0.717608213424683,chair,chair,true,0549_fc_s02_true_chair_35_n03376595_4354.png
subject-02,1,550,0.88568115234375,knife,knife,true,0550_fc_s02_true_knife_35_n03041632_13656.png
subject-02,1,551,0.631219863891602,airplane,airplane,true,0551_fc_s02_true_airplane_35_n02690373_1434.png
subject-02,1,552,1.13308882713318,bottle,bird,false,0552_fc_s02_false_bird_35_n01819313_5839.png
subject-02,1,553,0.776831865310669,car,car,true,0553_fc_s02_true_car_35_n02814533_34396.png
subject-02,1,554,0.796567916870117,knife,knife,false,0554_fc_s02_false_knife_35_n03041632_51766.png
subject-02,1,555,0.790542125701904,elephant,elephant,false,0555_fc_s02_false_elephant_35_n02504458_6738.png
subject-02,1,556,0.786277055740356,bicycle,bicycle,false,0556_fc_s02_false_bicycle_35_n02835271_9772.png
subject-02,1,557,1.42987298965454,elephant,bear,true,0557_fc_s02_true_bear_35_n02134418_643.png
subject-02,1,558,0.712090015411377,bear,bear,true,0558_fc_s02_true_bear_35_n02133161_1571.png
subject-02,1,559,0.705666065216064,knife,knife,true,0559_fc_s02_true_knife_35_n03041632_9671.png
subject-02,1,560,1.13152098655701,clock,keyboard,false,0560_fc_s02_false_keyboard_35_n03085013_9244.png
subject-02,1,561,0.83938193321228,boat,boat,false,0561_fc_s02_false_boat_35_n03662601_4418.png
subject-02,1,562,0.763398170471191,bear,bear,false,0562_fc_s02_false_bear_35_n02132136_8525.png
subject-02,1,563,0.671222925186157,keyboard,keyboard,false,0563_fc_s02_false_keyboard_35_n04505470_5092.png
subject-02,1,564,0.610841989517212,bird,bird,true,0564_fc_s02_true_bird_35_n02011460_22291.png
subject-02,1,565,0.74875807762146,truck,truck,true,0565_fc_s02_true_truck_35_n04467665_2246.png
subject-02,1,566,0.696835994720459,bottle,bottle,true,0566_fc_s02_true_bottle_35_n04579145_6186.png
subject-02,1,567,1.03637194633484,bear,bear,false,0567_fc_s02_false_bear_35_n02134084_6783.png
subject-02,1,568,0.622254133224487,bicycle,bicycle,true,0568_fc_s02_true_bicycle_35_n02835271_10293.png
subject-02,1,569,0.773979187011719,bear,bear,false,0569_fc_s02_false_bear_35_n02134418_2438.png
subject-02,1,570,0.875844955444336,elephant,elephant,true,0570_fc_s02_true_elephant_35_n02504458_12175.png
subject-02,1,571,0.831590175628662,keyboard,keyboard,false,0571_fc_s02_false_keyboard_35_n03085013_23287.png
subject-02,1,572,0.797499895095825,knife,knife,true,0572_fc_s02_true_knife_35_n03041632_965.png
subject-02,1,573,0.659226894378662,chair,chair,true,0573_fc_s02_true_chair_35_n04429376_7181.png
subject-02,1,574,0.744971990585327,truck,truck,true,0574_fc_s02_true_truck_35_n03796401_6921.png
subject-02,1,575,1.05083703994751,truck,truck,true,0575_fc_s02_true_truck_35_n03796401_3695.png
subject-02,1,576,0.662600994110107,clock,clock,false,0576_fc_s02_false_clock_35_n03196217_6195.png
subject-02,1,577,1.1207959651947,bicycle,bottle,false,0577_fc_s02_false_bottle_35_n04560804_2448.png
subject-02,1,578,0.614209890365601,cat,cat,true,0578_fc_s02_true_cat_35_n02123394_5001.png
subject-02,1,579,0.722280025482178,oven,oven,false,0579_fc_s02_false_oven_35_n04111531_688.png
subject-02,1,580,0.667870998382568,oven,oven,false,0580_fc_s02_false_oven_35_n04111531_4998.png
subject-02,1,581,0.827677965164185,car,car,true,0581_fc_s02_true_car_35_n03100240_17973.png
subject-02,1,582,0.901554107666016,truck,truck,true,0582_fc_s02_true_truck_35_n03417042_29353.png
subject-02,1,583,0.635439157485962,cat,cat,false,0583_fc_s02_false_cat_35_n02125311_23312.png
subject-02,1,584,1.5000011920929,knife,knife,true,0584_fc_s02_true_knife_35_n03041632_30565.png
subject-02,1,585,0.712951898574829,clock,clock,true,0585_fc_s02_true_clock_35_n03196217_11054.png
subject-02,1,586,0.600862979888916,car,car,true,0586_fc_s02_true_car_35_n02814533_58462.png
subject-02,1,587,0.918521165847778,truck,truck,false,0587_fc_s02_false_truck_35_n03417042_2124.png
subject-02,1,588,0.892510890960693,clock,clock,true,0588_fc_s02_true_clock_35_n03196217_7663.png
subject-02,1,589,0.720124006271362,bottle,bottle,true,0589_fc_s02_true_bottle_35_n04591713_1174.png
subject-02,1,590,0.560188055038452,boat,boat,true,0590_fc_s02_true_boat_35_n03344393_6324.png
subject-02,1,591,0.749771118164062,oven,clock,false,0591_fc_s02_false_clock_35_n03196217_8489.png
subject-02,1,592,0.843605041503906,bottle,oven,false,0592_fc_s02_false_oven_35_n04111531_1562.png
subject-02,1,593,1.03327918052673,dog,dog,true,0593_fc_s02_true_dog_35_n02105855_18455.png
subject-02,1,594,0.935369968414307,keyboard,keyboard,false,0594_fc_s02_false_keyboard_35_n04505470_4627.png
subject-02,1,595,0.70910382270813,bird,bird,false,0595_fc_s02_false_bird_35_n02037110_21381.png
subject-02,1,596,0.764693975448608,bird,bird,false,0596_fc_s02_false_bird_35_n02013706_16546.png
subject-02,1,597,0.604727029800415,clock,clock,true,0597_fc_s02_true_clock_35_n02708093_1124.png
subject-02,1,598,0.760865926742554,dog,dog,true,0598_fc_s02_true_dog_35_n02109047_4167.png
subject-02,1,599,0.960336923599243,chair,bear,true,0599_fc_s02_true_bear_35_n02133161_10632.png
subject-02,1,600,0.756120920181274,knife,knife,true,0600_fc_s02_true_knife_35_n03041632_16172.png
subject-02,1,601,0.751813173294067,bird,bird,false,0601_fc_s02_false_bird_35_n01558993_11093.png
subject-02,1,602,0.965837001800537,dog,dog,true,0602_fc_s02_true_dog_35_n02107312_197.png
subject-02,1,603,0.959561109542847,knife,knife,true,0603_fc_s02_true_knife_35_n03041632_29343.png
subject-02,1,604,1.26336598396301,knife,oven,false,0604_fc_s02_false_oven_35_n04111531_797.png
subject-02,1,605,0.919234037399292,truck,truck,false,0605_fc_s02_false_truck_35_n03417042_16238.png
subject-02,1,606,0.733022928237915,car,car,false,0606_fc_s02_false_car_35_n03100240_20185.png
subject-02,1,607,1.05300402641296,truck,truck,false,0607_fc_s02_false_truck_35_n03417042_12908.png
subject-02,1,608,0.966456890106201,elephant,elephant,false,0608_fc_s02_false_elephant_35_n02504458_1249.png
subject-02,1,609,0.86826491355896,truck,truck,true,0609_fc_s02_true_truck_35_n04467665_54079.png
subject-02,1,610,0.794264793395996,boat,boat,false,0610_fc_s02_false_boat_35_n03662601_10330.png
subject-02,1,611,1.28614711761475,keyboard,knife,true,0611_fc_s02_true_knife_35_n03041632_27929.png
subject-02,1,612,0.723924875259399,bicycle,bicycle,false,0612_fc_s02_false_bicycle_35_n03792782_4740.png
subject-02,1,613,0.575628042221069,clock,clock,true,0613_fc_s02_true_clock_35_n04548280_3303.png
subject-02,1,614,0.797615051269531,keyboard,keyboard,true,0614_fc_s02_true_keyboard_35_n04505470_4369.png
subject-02,1,615,1.01124382019043,bottle,bottle,true,0615_fc_s02_true_bottle_35_n03983396_1321.png
subject-02,1,616,0.681040048599243,cat,dog,false,0616_fc_s02_false_dog_35_n02097209_1133.png
subject-02,1,617,0.717267036437988,bird,bird,true,0617_fc_s02_true_bird_35_n02037110_4043.png
subject-02,1,618,0.912803888320923,truck,truck,false,0618_fc_s02_false_truck_35_n04467665_16276.png
subject-02,1,619,0.862637042999268,bottle,bottle,false,0619_fc_s02_false_bottle_35_n03983396_18753.png
subject-02,1,620,0.976378917694092,bottle,chair,false,0620_fc_s02_false_chair_35_n02791124_2057.png
subject-02,1,621,0.634178876876831,bottle,bottle,true,0621_fc_s02_true_bottle_35_n04560804_6392.png
subject-02,1,622,0.65409517288208,boat,boat,true,0622_fc_s02_true_boat_35_n02951358_20379.png
subject-02,1,623,0.547683954238892,airplane,airplane,true,0623_fc_s02_true_airplane_35_n02690373_10809.png
subject-02,1,624,1.06753611564636,bottle,bottle,false,0624_fc_s02_false_bottle_35_n04560804_915.png
subject-02,1,625,0.849611043930054,bird,cat,false,0625_fc_s02_false_cat_35_n02123159_6170.png
subject-02,1,626,0.611083984375,dog,dog,false,0626_fc_s02_false_dog_35_n02096585_9834.png
subject-02,1,627,0.723312139511108,bottle,bottle,true,0627_fc_s02_true_bottle_35_n03937543_8063.png
subject-02,1,628,0.734604120254517,knife,knife,false,0628_fc_s02_false_knife_35_n03041632_54627.png
subject-02,1,629,0.690510034561157,boat,boat,false,0629_fc_s02_false_boat_35_n03344393_7503.png
subject-02,1,630,0.804621934890747,bird,bird,true,0630_fc_s02_true_bird_35_n01534433_13846.png
subject-02,1,631,0.778357982635498,bear,bear,true,0631_fc_s02_true_bear_35_n02133161_2597.png
subject-02,1,632,0.843989133834839,bottle,oven,false,0632_fc_s02_false_oven_35_n04111531_8309.png
subject-02,1,633,0.659950971603394,car,car,false,0633_fc_s02_false_car_35_n03100240_16866.png
subject-02,1,634,0.625890970230103,clock,clock,false,0634_fc_s02_false_clock_35_n03196217_4464.png
subject-02,1,635,0.753712177276611,keyboard,keyboard,false,0635_fc_s02_false_keyboard_35_n03085013_22980.png
subject-02,1,636,0.835263013839722,airplane,airplane,true,0636_fc_s02_true_airplane_35_n02690373_4921.png
subject-02,1,637,0.787414789199829,cat,cat,false,0637_fc_s02_false_cat_35_n02123159_8267.png
subject-02,1,638,0.874963045120239,dog,dog,true,0638_fc_s02_true_dog_35_n02102040_1187.png
subject-02,1,639,0.910606861114502,dog,dog,false,0639_fc_s02_false_dog_35_n02102973_7095.png
subject-02,1,640,0.614572048187256,boat,boat,false,0640_fc_s02_false_boat_35_n03344393_595.png
subject-02,1,641,0.646119117736816,keyboard,keyboard,true,0641_fc_s02_true_keyboard_35_n03085013_743.png
subject-02,1,642,0.762139081954956,bear,bear,false,0642_fc_s02_false_bear_35_n02134418_5253.png
subject-02,1,643,0.733925819396973,dog,dog,true,0643_fc_s02_true_dog_35_n02106662_10632.png
subject-02,1,644,0.999545097351074,knife,knife,false,0644_fc_s02_false_knife_35_n03041632_46185.png
subject-02,1,645,0.963495016098022,boat,boat,true,0645_fc_s02_true_boat_35_n03344393_6890.png
subject-02,1,646,0.709167957305908,boat,boat,false,0646_fc_s02_false_boat_35_n02951358_26227.png
subject-02,1,647,0.844977140426636,bicycle,bicycle,true,0647_fc_s02_true_bicycle_35_n02835271_5648.png
subject-02,1,648,0.704943180084229,bear,bear,false,0648_fc_s02_false_bear_35_n02134084_22997.png
subject-02,1,649,1.08693599700928,truck,truck,true,0649_fc_s02_true_truck_35_n03417042_6691.png
subject-02,1,650,1.10661196708679,bird,bird,true,0650_fc_s02_true_bird_35_n01582220_4924.png
subject-02,1,651,1.50011396408081,dog,dog,true,0651_fc_s02_true_dog_35_n02105056_11269.png
subject-02,1,652,0.652208089828491,airplane,airplane,true,0652_fc_s02_true_airplane_35_n02690373_9848.png
subject-02,1,653,0.647872924804688,cat,keyboard,true,0653_fc_s02_true_keyboard_35_n03085013_26449.png
subject-02,1,654,0.715775966644287,keyboard,keyboard,false,0654_fc_s02_false_keyboard_35_n04505470_2828.png
subject-02,1,655,0.547508001327515,keyboard,keyboard,false,0655_fc_s02_false_keyboard_35_n04505470_3937.png
subject-02,1,656,0.669341087341309,oven,knife,true,0656_fc_s02_true_knife_35_n03041632_30286.png
subject-02,1,657,1.03925514221191,truck,truck,true,0657_fc_s02_true_truck_35_n03796401_7380.png
subject-02,1,658,0.579329967498779,oven,oven,false,0658_fc_s02_false_oven_35_n04111531_9297.png
subject-02,1,659,0.968939065933228,knife,knife,true,0659_fc_s02_true_knife_35_n03041632_31849.png
subject-02,1,660,0.838528156280518,knife,knife,true,0660_fc_s02_true_knife_35_n03041632_7090.png
subject-02,1,661,0.756404161453247,bird,bird,false,0661_fc_s02_false_bird_35_n01560419_14207.png
subject-02,1,662,1.00011706352234,elephant,elephant,false,0662_fc_s02_false_elephant_35_n02504458_7258.png
subject-02,1,663,0.83991003036499,bear,bear,false,0663_fc_s02_false_bear_35_n02134418_4364.png
subject-02,1,664,0.753844022750854,keyboard,keyboard,false,0664_fc_s02_false_keyboard_35_n04505470_4411.png
subject-02,1,665,0.68619179725647,bicycle,bicycle,false,0665_fc_s02_false_bicycle_35_n03792782_51335.png
subject-02,1,666,0.909619808197021,chair,chair,false,0666_fc_s02_false_chair_35_n02791124_2091.png
subject-02,1,667,0.891365051269531,bird,bird,false,0667_fc_s02_false_bird_35_n01843065_2350.png
subject-02,1,668,0.893031120300293,truck,boat,false,0668_fc_s02_false_boat_35_n03662601_6916.png
subject-02,1,669,0.695311069488525,bird,bird,false,0669_fc_s02_false_bird_35_n01622779_11953.png
subject-02,1,670,0.851029872894287,oven,clock,true,0670_fc_s02_true_clock_35_n03196217_1219.png
subject-02,1,671,0.986564874649048,bottle,knife,true,0671_fc_s02_true_knife_35_n03041632_22190.png
subject-02,1,672,0.712305068969727,bear,bear,false,0672_fc_s02_false_bear_35_n02132136_11149.png
subject-02,1,673,0.684226036071777,elephant,elephant,true,0673_fc_s02_true_elephant_35_n02504458_5187.png
subject-02,1,674,0.56007981300354,cat,cat,false,0674_fc_s02_false_cat_35_n02123159_2757.png
subject-02,1,675,1.00016188621521,car,car,false,0675_fc_s02_false_car_35_n03100240_5399.png
subject-02,1,676,0.893650054931641,dog,dog,true,0676_fc_s02_true_dog_35_n02102480_10232.png
subject-02,1,677,0.889273881912231,bottle,knife,false,0677_fc_s02_false_knife_35_n03041632_362.png
subject-02,1,678,1.11923599243164,bottle,dog,false,0678_fc_s02_false_dog_35_n02093428_8946.png
subject-02,1,679,1.20329618453979,keyboard,bottle,false,0679_fc_s02_false_bottle_35_n03983396_3782.png
subject-02,1,680,0.722716093063354,bottle,bottle,false,0680_fc_s02_false_bottle_35_n04557648_3673.png
subject-02,1,681,0.580798149108887,clock,clock,false,0681_fc_s02_false_clock_35_n02708093_5734.png
subject-02,1,682,0.858600854873657,dog,dog,false,0682_fc_s02_false_dog_35_n02107683_2904.png
subject-02,1,683,0.84226393699646,keyboard,keyboard,true,0683_fc_s02_true_keyboard_35_n03085013_8339.png
subject-02,1,684,0.733971834182739,bear,bear,false,0684_fc_s02_false_bear_35_n02134084_12070.png
subject-02,1,685,1.01813292503357,oven,bottle,true,0685_fc_s02_true_bottle_35_n04560804_13316.png
subject-02,1,686,0.739544868469238,clock,clock,true,0686_fc_s02_true_clock_35_n04548280_12615.png
subject-02,1,687,0.979667901992798,truck,truck,false,0687_fc_s02_false_truck_35_n04467665_11888.png
subject-02,1,688,0.713430881500244,elephant,elephant,false,0688_fc_s02_false_elephant_35_n02504013_1720.png
subject-02,1,689,0.701210021972656,chair,chair,true,0689_fc_s02_true_chair_35_n04429376_3452.png
subject-02,1,690,0.602927923202515,dog,dog,true,0690_fc_s02_true_dog_35_n02108000_5247.png
subject-02,1,691,0.970773935317993,airplane,airplane,false,0691_fc_s02_false_airplane_35_n02690373_997.png
subject-02,1,692,0.628516912460327,clock,clock,true,0692_fc_s02_true_clock_35_n04548280_5428.png
subject-02,1,693,1.06244111061096,dog,oven,false,0693_fc_s02_false_oven_35_n04111531_8082.png
subject-02,1,694,0.860101938247681,keyboard,keyboard,false,0694_fc_s02_false_keyboard_35_n03085013_24439.png
subject-02,1,695,0.831992149353027,car,car,false,0695_fc_s02_false_car_35_n02814533_52866.png
subject-02,1,696,0.669735908508301,boat,boat,false,0696_fc_s02_false_boat_35_n03662601_32803.png
subject-02,1,697,0.779654026031494,elephant,elephant,false,0697_fc_s02_false_elephant_35_n02504013_10149.png
subject-02,1,698,0.641381025314331,airplane,airplane,false,0698_fc_s02_false_airplane_35_n02690373_3821.png
subject-02,1,699,0.713183879852295,chair,chair,false,0699_fc_s02_false_chair_35_n03376595_1943.png
subject-02,1,700,0.704973936080933,elephant,elephant,false,0700_fc_s02_false_elephant_35_n02504458_3205.png
subject-02,1,701,0.884989976882935,bicycle,bicycle,false,0701_fc_s02_false_bicycle_35_n02835271_608.png
subject-02,1,702,0.858699083328247,bicycle,bicycle,true,0702_fc_s02_true_bicycle_35_n03792782_6614.png
subject-02,1,703,0.626447916030884,bear,bear,false,0703_fc_s02_false_bear_35_n02134084_6821.png
subject-02,1,704,1.00411176681519,bottle,bottle,false,0704_fc_s02_false_bottle_35_n04579145_961.png
subject-02,1,705,0.920344829559326,boat,boat,false,0705_fc_s02_false_boat_35_n02951358_8503.png
subject-02,1,706,0.855953931808472,bicycle,bicycle,true,0706_fc_s02_true_bicycle_35_n02835271_7592.png
subject-02,1,707,0.735615968704224,cat,cat,true,0707_fc_s02_true_cat_35_n02123159_3655.png
subject-02,1,708,0.721560001373291,dog,dog,true,0708_fc_s02_true_dog_35_n02092339_7915.png
subject-02,1,709,0.599478006362915,cat,cat,false,0709_fc_s02_false_cat_35_n02123597_4998.png
subject-02,1,710,0.891242980957031,truck,car,false,0710_fc_s02_false_car_35_n03100240_18270.png
subject-02,1,711,1.03318810462952,bottle,elephant,true,0711_fc_s02_true_elephant_35_n02504013_6466.png
subject-02,1,712,0.606811046600342,cat,keyboard,false,0712_fc_s02_false_keyboard_35_n03085013_24124.png
subject-02,1,713,0.904990911483765,elephant,elephant,false,0713_fc_s02_false_elephant_35_n02504458_8060.png
subject-02,1,714,0.790411949157715,cat,cat,true,0714_fc_s02_true_cat_35_n02124075_7059.png
subject-02,1,715,0.684292793273926,clock,clock,true,0715_fc_s02_true_clock_35_n02708093_7060.png
subject-02,1,716,0.912194013595581,oven,clock,false,0716_fc_s02_false_clock_35_n03196217_958.png
subject-02,1,717,0.915871858596802,bear,bear,false,0717_fc_s02_false_bear_35_n02134084_4677.png
subject-02,1,718,0.661829948425293,keyboard,keyboard,true,0718_fc_s02_true_keyboard_35_n03085013_20825.png
subject-02,1,719,0.625487089157104,airplane,airplane,false,0719_fc_s02_false_airplane_35_n02690373_7573.png
subject-02,1,720,0.745283842086792,car,car,true,0720_fc_s02_true_car_35_n03100240_21982.png
subject-02,1,721,0.928151845932007,keyboard,oven,false,0721_fc_s02_false_oven_35_n04111531_11935.png
subject-02,1,722,0.696194171905518,bottle,bottle,false,0722_fc_s02_false_bottle_35_n03937543_10543.png
subject-02,1,723,0.606371164321899,car,car,false,0723_fc_s02_false_car_35_n03100240_18646.png
subject-02,1,724,0.915923118591309,bear,bear,true,0724_fc_s02_true_bear_35_n02132136_4070.png
subject-02,1,725,0.811654090881348,truck,truck,true,0725_fc_s02_true_truck_35_n03417042_4883.png
subject-02,1,726,0.615215063095093,bear,bear,false,0726_fc_s02_false_bear_35_n02132136_2248.png
subject-02,1,727,0.671194076538086,truck,truck,false,0727_fc_s02_false_truck_35_n04467665_2240.png
subject-02,1,728,0.983000993728638,knife,knife,false,0728_fc_s02_false_knife_35_n03041632_29038.png
subject-02,1,729,0.797015905380249,keyboard,keyboard,true,0729_fc_s02_true_keyboard_35_n04505470_1833.png
subject-02,1,730,0.924594879150391,elephant,elephant,false,0730_fc_s02_false_elephant_35_n02504013_2228.png
subject-02,1,731,0.700840950012207,bird,bird,true,0731_fc_s02_true_bird_35_n02037110_3761.png
subject-02,1,732,0.7361900806427,truck,truck,false,0732_fc_s02_false_truck_35_n03796401_19114.png
subject-02,1,733,0.598161935806274,bottle,bottle,true,0733_fc_s02_true_bottle_35_n04591713_5702.png
subject-02,1,734,0.591897010803223,bicycle,bicycle,false,0734_fc_s02_false_bicycle_35_n02835271_2714.png
subject-02,1,735,0.615777969360352,oven,oven,false,0735_fc_s02_false_oven_35_n04111531_11230.png
subject-02,1,736,1.06557703018188,clock,elephant,false,0736_fc_s02_false_elephant_35_n02504013_1519.png
subject-02,1,737,0.629415035247803,cat,cat,true,0737_fc_s02_true_cat_35_n02123597_1410.png
subject-02,1,738,0.743484020233154,bicycle,boat,false,0738_fc_s02_false_boat_35_n02951358_29495.png
subject-02,1,739,1.44125199317932,car,bicycle,false,0739_fc_s02_false_bicycle_35_n03792782_801.png
subject-02,1,740,0.965178966522217,oven,bottle,false,0740_fc_s02_false_bottle_35_n04560804_15832.png
subject-02,1,741,1.09860110282898,bear,bear,false,0741_fc_s02_false_bear_35_n02132136_4237.png
subject-02,1,742,0.606462001800537,cat,cat,false,0742_fc_s02_false_cat_35_n02123597_9467.png
subject-02,1,743,0.616176128387451,car,car,true,0743_fc_s02_true_car_35_n03100240_14045.png
subject-02,1,744,0.644055128097534,elephant,elephant,true,0744_fc_s02_true_elephant_35_n02504013_11033.png
subject-02,1,745,0.701654195785522,airplane,airplane,true,0745_fc_s02_true_airplane_35_n02690373_8350.png
subject-02,1,746,0.663619041442871,bird,bird,false,0746_fc_s02_false_bird_35_n01828970_2276.png
subject-02,1,747,0.673341989517212,bird,bird,true,0747_fc_s02_true_bird_35_n01843383_3019.png
subject-02,1,748,0.747297048568726,bicycle,bicycle,false,0748_fc_s02_false_bicycle_35_n02835271_18173.png
subject-02,1,749,0.556976079940796,cat,cat,true,0749_fc_s02_true_cat_35_n02124075_5067.png
subject-02,1,750,0.658805847167969,bicycle,bicycle,true,0750_fc_s02_true_bicycle_35_n02835271_19552.png
subject-02,1,751,0.966821908950806,truck,truck,true,0751_fc_s02_true_truck_35_n03417042_11091.png
subject-02,1,752,0.696707010269165,keyboard,keyboard,false,0752_fc_s02_false_keyboard_35_n04505470_2600.png
subject-02,1,753,0.970232009887695,bird,bird,true,0753_fc_s02_true_bird_35_n01795545_4502.png
subject-02,1,754,0.972009897232056,airplane,airplane,false,0754_fc_s02_false_airplane_35_n02690373_5624.png
subject-02,1,755,0.729830980300903,airplane,airplane,true,0755_fc_s02_true_airplane_35_n02690373_9762.png
subject-02,1,756,0.721971035003662,clock,clock,true,0756_fc_s02_true_clock_35_n02708093_3360.png
subject-02,1,757,0.607578992843628,airplane,airplane,true,0757_fc_s02_true_airplane_35_n02690373_4814.png
subject-02,1,758,0.891262054443359,knife,oven,false,0758_fc_s02_false_oven_35_n04111531_11794.png
subject-02,1,759,0.617203950881958,clock,clock,false,0759_fc_s02_false_clock_35_n02708093_2054.png
subject-02,1,760,0.944958925247192,bird,bird,true,0760_fc_s02_true_bird_35_n01622779_1609.png
subject-02,1,761,0.92480993270874,bird,bird,false,0761_fc_s02_false_bird_35_n01798484_9481.png
subject-02,1,762,0.678499937057495,knife,knife,true,0762_fc_s02_true_knife_35_n03041632_29337.png
subject-02,1,763,0.602524995803833,clock,clock,false,0763_fc_s02_false_clock_35_n02708093_1684.png
subject-02,1,764,0.900327920913696,dog,dog,false,0764_fc_s02_false_dog_35_n02092339_160.png
subject-02,1,765,0.788104057312012,car,car,true,0765_fc_s02_true_car_35_n02814533_23592.png
subject-02,1,766,0.727759122848511,boat,boat,true,0766_fc_s02_true_boat_35_n03344393_7050.png
subject-02,1,767,0.759767055511475,bird,bird,false,0767_fc_s02_false_bird_35_n01796340_20055.png
subject-02,1,768,0.823554039001465,truck,truck,true,0768_fc_s02_true_truck_35_n04467665_25130.png
subject-02,1,769,0.911393880844116,chair,chair,false,0769_fc_s02_false_chair_35_n02791124_177.png
subject-02,1,770,0.57922101020813,bird,bird,true,0770_fc_s02_true_bird_35_n01560419_9124.png
subject-02,1,771,0.724822044372559,chair,chair,true,0771_fc_s02_true_chair_35_n03376595_10986.png
subject-02,1,772,0.552637100219727,bottle,bottle,true,0772_fc_s02_true_bottle_35_n04579145_54.png
subject-02,1,773,0.788581848144531,cat,cat,false,0773_fc_s02_false_cat_35_n02123159_358.png
subject-02,1,774,0.69681191444397,cat,oven,false,0774_fc_s02_false_oven_35_n04111531_3181.png
subject-02,1,775,0.816524982452393,chair,chair,true,0775_fc_s02_true_chair_35_n03376595_9897.png
subject-02,1,776,0.713883876800537,car,car,false,0776_fc_s02_false_car_35_n02814533_31430.png
subject-02,1,777,0.707693099975586,oven,oven,false,0777_fc_s02_false_oven_35_n04111531_643.png
subject-02,1,778,1.21155595779419,bear,dog,false,0778_fc_s02_false_dog_35_n02090721_129.png
subject-02,1,779,0.887424945831299,car,car,false,0779_fc_s02_false_car_35_n02814533_1344.png
subject-02,1,780,0.741220951080322,clock,keyboard,false,0780_fc_s02_false_keyboard_35_n04505470_3970.png
subject-02,1,781,0.855097055435181,elephant,elephant,false,0781_fc_s02_false_elephant_35_n02504013_1494.png
subject-02,1,782,0.730662107467651,dog,dog,false,0782_fc_s02_false_dog_35_n02086240_1183.png
subject-02,1,783,1.1189398765564,bear,elephant,true,0783_fc_s02_true_elephant_35_n02504013_3384.png
subject-02,1,784,0.602471113204956,airplane,airplane,true,0784_fc_s02_true_airplane_35_n02690373_5221.png
subject-02,1,785,0.638231039047241,airplane,airplane,true,0785_fc_s02_true_airplane_35_n02690373_10285.png
subject-02,1,786,0.708527088165283,elephant,elephant,true,0786_fc_s02_true_elephant_35_n02504013_2033.png
subject-02,1,787,0.832204103469849,clock,clock,true,0787_fc_s02_true_clock_35_n02708093_1775.png
subject-02,1,788,0.769641876220703,bear,bear,false,0788_fc_s02_false_bear_35_n02134418_195.png
subject-02,1,789,0.889382123947144,bottle,bottle,true,0789_fc_s02_true_bottle_35_n04579145_5451.png
subject-02,1,790,0.579142808914185,cat,cat,true,0790_fc_s02_true_cat_35_n02123394_6521.png
subject-02,1,791,0.566964149475098,clock,clock,false,0791_fc_s02_false_clock_35_n02708093_3454.png
subject-02,1,792,0.702879905700684,boat,boat,true,0792_fc_s02_true_boat_35_n04273569_928.png
subject-02,1,793,0.796617031097412,bottle,bottle,false,0793_fc_s02_false_bottle_35_n04560804_10411.png
subject-02,1,794,1.1605269908905,bird,oven,true,0794_fc_s02_true_oven_35_n04111531_6415.png
subject-02,1,795,0.66228199005127,car,car,false,0795_fc_s02_false_car_35_n03100240_10791.png
subject-02,1,796,0.670170068740845,chair,chair,true,0796_fc_s02_true_chair_35_n03376595_7394.png
subject-02,1,797,0.697959899902344,airplane,airplane,true,0797_fc_s02_true_airplane_35_n02690373_8454.png
subject-02,1,798,0.931888818740845,dog,dog,false,0798_fc_s02_false_dog_35_n02102318_11997.png
subject-02,1,799,0.707592964172363,bottle,bottle,true,0799_fc_s02_true_bottle_35_n04557648_5458.png
subject-02,1,800,0.769396066665649,keyboard,keyboard,false,0800_fc_s02_false_keyboard_35_n03085013_20691.png
subject-02,1,801,0.678452968597412,elephant,elephant,true,0801_fc_s02_true_elephant_35_n02504458_4939.png
subject-02,1,802,1.28656101226807,bird,dog,true,0802_fc_s02_true_dog_35_n02107312_7182.png
subject-02,1,803,0.76030421257019,chair,chair,true,0803_fc_s02_true_chair_35_n04429376_29312.png
subject-02,1,804,0.769851922988892,elephant,elephant,false,0804_fc_s02_false_elephant_35_n02504458_9049.png
subject-02,1,805,0.765666007995605,bird,bottle,false,0805_fc_s02_false_bottle_35_n04560804_6576.png
subject-02,1,806,0.867547988891602,keyboard,keyboard,true,0806_fc_s02_true_keyboard_35_n03085013_19916.png
subject-02,1,807,0.635327100753784,car,car,false,0807_fc_s02_false_car_35_n03100240_9675.png
subject-02,1,808,0.741100072860718,cat,cat,false,0808_fc_s02_false_cat_35_n02125311_31100.png
subject-02,1,809,0.631314992904663,bicycle,bicycle,false,0809_fc_s02_false_bicycle_35_n03792782_485.png
subject-02,1,810,0.994846105575562,dog,dog,false,0810_fc_s02_false_dog_35_n02105056_10931.png
subject-02,1,811,0.832966089248657,cat,dog,true,0811_fc_s02_true_dog_35_n02104365_8609.png
subject-02,1,812,0.648519992828369,bottle,bottle,false,0812_fc_s02_false_bottle_35_n02823428_14149.png
subject-02,1,813,0.626406908035278,bottle,bottle,false,0813_fc_s02_false_bottle_35_n02823428_4959.png
subject-02,1,814,0.660068988800049,bottle,bottle,true,0814_fc_s02_true_bottle_35_n04560804_5636.png
subject-02,1,815,0.633949995040894,car,car,true,0815_fc_s02_true_car_35_n04285008_9456.png
subject-02,1,816,1.09763193130493,cat,bear,false,0816_fc_s02_false_bear_35_n02134084_3227.png
subject-02,1,817,1.4036009311676,knife,knife,true,0817_fc_s02_true_knife_35_n03041632_52929.png
subject-02,1,818,0.839407920837402,truck,truck,true,0818_fc_s02_true_truck_35_n04467665_21542.png
subject-02,1,819,0.765197992324829,airplane,airplane,false,0819_fc_s02_false_airplane_35_n02690373_1837.png
subject-02,1,820,0.66311502456665,car,car,true,0820_fc_s02_true_car_35_n04285008_5525.png
subject-02,1,821,0.998716831207275,car,car,true,0821_fc_s02_true_car_35_n04285008_2900.png
subject-02,1,822,0.884605884552002,cat,cat,true,0822_fc_s02_true_cat_35_n02123159_3092.png
subject-02,1,823,0.884495973587036,dog,bear,true,0823_fc_s02_true_bear_35_n02132136_4817.png
subject-02,1,824,0.75016713142395,dog,dog,true,0824_fc_s02_true_dog_35_n02108915_10239.png
subject-02,1,825,0.618036031723022,cat,cat,false,0825_fc_s02_false_cat_35_n02125311_41249.png
subject-02,1,826,1.12577509880066,knife,knife,false,0826_fc_s02_false_knife_35_n03041632_13645.png
subject-02,1,827,0.721787929534912,bicycle,bicycle,false,0827_fc_s02_false_bicycle_35_n02835271_12930.png
subject-02,1,828,0.645426988601685,cat,cat,false,0828_fc_s02_false_cat_35_n02123045_9384.png
subject-02,1,829,0.773391008377075,airplane,airplane,true,0829_fc_s02_true_airplane_35_n02690373_18864.png
subject-02,1,830,0.703114986419678,airplane,airplane,false,0830_fc_s02_false_airplane_35_n02690373_4199.png
subject-02,1,831,0.621371030807495,clock,clock,true,0831_fc_s02_true_clock_35_n03196217_5627.png
subject-02,1,832,0.972770929336548,dog,dog,false,0832_fc_s02_false_dog_35_n02111277_25819.png
subject-02,1,833,1.13872313499451,knife,airplane,false,0833_fc_s02_false_airplane_35_n02690373_1019.png
subject-02,1,834,1.23642802238464,boat,chair,true,0834_fc_s02_true_chair_35_n04099969_9745.png
subject-02,1,835,0.786154985427856,cat,dog,false,0835_fc_s02_false_dog_35_n02093647_3072.png
subject-02,1,836,0.83643102645874,dog,dog,true,0836_fc_s02_true_dog_35_n02113624_2530.png
subject-02,1,837,0.932023048400879,car,car,true,0837_fc_s02_true_car_35_n04285008_3631.png
subject-02,1,838,1.0335750579834,truck,truck,false,0838_fc_s02_false_truck_35_n04467665_2044.png
subject-02,1,839,0.627476930618286,clock,clock,false,0839_fc_s02_false_clock_35_n02708093_6414.png
subject-02,1,840,0.591561079025269,chair,chair,false,0840_fc_s02_false_chair_35_n04099969_8604.png
subject-02,1,841,0.875092029571533,bear,cat,false,0841_fc_s02_false_cat_35_n02125311_28052.png
subject-02,1,842,0.984975814819336,bear,bear,false,0842_fc_s02_false_bear_35_n02132136_451.png
subject-02,1,843,0.918576002120972,truck,truck,true,0843_fc_s02_true_truck_35_n03417042_1561.png
subject-02,1,844,0.940306901931763,car,car,true,0844_fc_s02_true_car_35_n03100240_3151.png
subject-02,1,845,0.776350021362305,bear,bear,true,0845_fc_s02_true_bear_35_n02133161_13278.png
subject-02,1,846,0.788244009017944,bird,bird,true,0846_fc_s02_true_bird_35_n01833805_1104.png
subject-02,1,847,0.735774993896484,bird,bird,true,0847_fc_s02_true_bird_35_n02013706_7132.png
subject-02,1,848,0.747563123703003,boat,boat,false,0848_fc_s02_false_boat_35_n03662601_4612.png
subject-02,1,849,1.12944889068604,elephant,elephant,false,0849_fc_s02_false_elephant_35_n02504013_2148.png
subject-02,1,850,0.76347017288208,bicycle,bicycle,true,0850_fc_s02_true_bicycle_35_n02835271_12237.png
subject-02,1,851,0.735185146331787,keyboard,keyboard,true,0851_fc_s02_true_keyboard_35_n03085013_30335.png
subject-02,1,852,1.16918516159058,dog,dog,false,0852_fc_s02_false_dog_35_n02094258_5084.png
subject-02,1,853,0.772636890411377,bicycle,bicycle,true,0853_fc_s02_true_bicycle_35_n02835271_13729.png
subject-02,1,854,1.00457096099854,cat,chair,false,0854_fc_s02_false_chair_35_n02791124_11404.png
subject-02,1,855,0.91236400604248,bear,dog,false,0855_fc_s02_false_dog_35_n02086240_5271.png
subject-02,1,856,1.41604208946228,chair,truck,false,0856_fc_s02_false_truck_35_n03796401_9136.png
subject-02,1,857,0.952300071716309,bottle,bottle,false,0857_fc_s02_false_bottle_35_n04557648_2063.png
subject-02,1,858,1.33175802230835,oven,bottle,false,0858_fc_s02_false_bottle_35_n04560804_2539.png
subject-02,1,859,0.619461059570312,bicycle,bicycle,true,0859_fc_s02_true_bicycle_35_n03792782_2057.png
subject-02,1,860,1.47537088394165,knife,bottle,true,0860_fc_s02_true_bottle_35_n04591713_5411.png
subject-02,1,861,0.823469877243042,car,car,false,0861_fc_s02_false_car_35_n02814533_90486.png
subject-02,1,862,0.852900981903076,bottle,bottle,true,0862_fc_s02_true_bottle_35_n04591713_3409.png
subject-02,1,863,0.636715888977051,airplane,airplane,true,0863_fc_s02_true_airplane_35_n02690373_2431.png
subject-02,1,864,0.81266713142395,elephant,elephant,true,0864_fc_s02_true_elephant_35_n02504458_174.png
subject-02,1,865,0.84495210647583,chair,chair,false,0865_fc_s02_false_chair_35_n02791124_17045.png
subject-02,1,866,0.604235887527466,keyboard,keyboard,true,0866_fc_s02_true_keyboard_35_n04505470_10035.png
subject-02,1,867,0.678040981292725,knife,knife,true,0867_fc_s02_true_knife_35_n03041632_17067.png
subject-02,1,868,0.901922941207886,truck,truck,false,0868_fc_s02_false_truck_35_n03796401_19487.png
subject-02,1,869,0.596111059188843,chair,chair,true,0869_fc_s02_true_chair_35_n04099969_25327.png
subject-02,1,870,0.685433149337769,bicycle,bicycle,true,0870_fc_s02_true_bicycle_35_n03792782_5959.png
subject-02,1,871,1.4352650642395,car,chair,false,0871_fc_s02_false_chair_35_n02791124_139.png
subject-02,1,872,0.733383893966675,truck,truck,false,0872_fc_s02_false_truck_35_n03417042_28742.png
subject-02,1,873,0.766921043395996,keyboard,keyboard,true,0873_fc_s02_true_keyboard_35_n04505470_4516.png
subject-02,1,874,0.682852029800415,dog,dog,false,0874_fc_s02_false_dog_35_n02106166_16884.png
subject-02,1,875,0.75462794303894,cat,cat,true,0875_fc_s02_true_cat_35_n02123597_4040.png
subject-02,1,876,0.906475782394409,knife,knife,false,0876_fc_s02_false_knife_35_n03041632_15754.png
subject-02,1,877,0.718563079833984,keyboard,keyboard,false,0877_fc_s02_false_keyboard_35_n04505470_2868.png
subject-02,1,878,0.966241121292114,bottle,bottle,true,0878_fc_s02_true_bottle_35_n03983396_11788.png
subject-02,1,879,0.797842025756836,car,car,false,0879_fc_s02_false_car_35_n04285008_2409.png
subject-02,1,880,0.929826021194458,chair,cat,false,0880_fc_s02_false_cat_35_n02123597_3314.png
subject-02,1,881,0.750118017196655,oven,keyboard,true,0881_fc_s02_true_keyboard_35_n04505470_8544.png
subject-02,1,882,0.714257955551147,bicycle,bicycle,false,0882_fc_s02_false_bicycle_35_n03792782_16819.png
subject-02,1,883,0.877779960632324,elephant,elephant,false,0883_fc_s02_false_elephant_35_n02504458_13245.png
subject-02,1,884,0.67352294921875,bicycle,bicycle,false,0884_fc_s02_false_bicycle_35_n02835271_8209.png
subject-02,1,885,0.989338874816895,bird,knife,false,0885_fc_s02_false_knife_35_n03041632_8051.png
subject-02,1,886,0.993196964263916,bear,bear,true,0886_fc_s02_true_bear_35_n02132136_258.png
subject-02,1,887,0.793144226074219,bear,bear,true,0887_fc_s02_true_bear_35_n02132136_8516.png
subject-02,1,888,0.77279806137085,bear,bear,true,0888_fc_s02_true_bear_35_n02132136_7872.png
subject-02,1,889,0.624475955963135,oven,oven,true,0889_fc_s02_true_oven_35_n04111531_20056.png
subject-02,1,890,1.00234198570251,clock,clock,false,0890_fc_s02_false_clock_35_n02708093_6813.png
subject-02,1,891,0.790169954299927,keyboard,keyboard,true,0891_fc_s02_true_keyboard_35_n03085013_18891.png
subject-02,1,892,0.606266975402832,cat,cat,true,0892_fc_s02_true_cat_35_n02123597_7908.png
subject-02,1,893,1.08382296562195,bear,oven,false,0893_fc_s02_false_oven_35_n04111531_5801.png
subject-02,1,894,0.735914945602417,truck,truck,false,0894_fc_s02_false_truck_35_n03417042_25493.png
subject-02,1,895,0.89359188079834,elephant,elephant,true,0895_fc_s02_true_elephant_35_n02504458_379.png
subject-02,1,896,0.703387975692749,airplane,airplane,false,0896_fc_s02_false_airplane_35_n02690373_3173.png
subject-02,1,897,0.641465902328491,oven,oven,true,0897_fc_s02_true_oven_35_n04111531_10093.png
subject-02,1,898,0.574853897094727,clock,clock,true,0898_fc_s02_true_clock_35_n03196217_5972.png
subject-02,1,899,0.796817064285278,keyboard,keyboard,false,0899_fc_s02_false_keyboard_35_n04505470_912.png
subject-02,1,900,0.808310985565186,oven,oven,false,0900_fc_s02_false_oven_35_n04111531_5126.png
subject-02,1,901,0.764330148696899,bird,bird,false,0901_fc_s02_false_bird_35_n02018795_7504.png
subject-02,1,902,1.45619297027588,car,car,false,0902_fc_s02_false_car_35_n03100240_7454.png
subject-02,1,903,1.01374292373657,clock,clock,true,0903_fc_s02_true_clock_35_n03196217_8221.png
subject-02,1,904,0.785744905471802,bottle,keyboard,true,0904_fc_s02_true_keyboard_35_n04505470_8620.png
subject-02,1,905,0.579609155654907,boat,boat,true,0905_fc_s02_true_boat_35_n04273569_2698.png
subject-02,1,906,0.637217998504639,bicycle,bicycle,true,0906_fc_s02_true_bicycle_35_n02835271_15524.png
subject-02,1,907,0.843276023864746,bird,bird,false,0907_fc_s02_false_bird_35_n02007558_22160.png
subject-02,1,908,0.830819129943848,knife,knife,false,0908_fc_s02_false_knife_35_n03041632_38610.png
subject-02,1,909,0.592668056488037,airplane,airplane,true,0909_fc_s02_true_airplane_35_n02690373_1360.png
subject-02,1,910,0.506515979766846,cat,cat,true,0910_fc_s02_true_cat_35_n02124075_2806.png
subject-02,1,911,1.06834197044373,airplane,oven,false,0911_fc_s02_false_oven_35_n04111531_2150.png
subject-02,1,912,1.3722939491272,car,car,true,0912_fc_s02_true_car_35_n03100240_2909.png
subject-02,1,913,0.725965023040771,boat,boat,true,0913_fc_s02_true_boat_35_n04612504_5093.png
subject-02,1,914,0.802129030227661,bird,bird,true,0914_fc_s02_true_bird_35_n01560419_2726.png
subject-02,1,915,1.06398296356201,clock,clock,false,0915_fc_s02_false_clock_35_n02708093_3525.png
subject-02,1,916,0.909455060958862,truck,truck,false,0916_fc_s02_false_truck_35_n03796401_26801.png
subject-02,1,917,0.733328104019165,bottle,bottle,true,0917_fc_s02_true_bottle_35_n04579145_1457.png
subject-02,1,918,0.719340085983276,airplane,airplane,true,0918_fc_s02_true_airplane_35_n02690373_5003.png
subject-02,1,919,0.8088698387146,bird,bird,true,0919_fc_s02_true_bird_35_n01614925_1962.png
subject-02,1,920,0.844638109207153,bottle,oven,true,0920_fc_s02_true_oven_35_n04111531_7064.png
subject-02,1,921,1.29644799232483,knife,chair,true,0921_fc_s02_true_chair_35_n02791124_2150.png
subject-02,1,922,1.02235698699951,keyboard,keyboard,true,0922_fc_s02_true_keyboard_35_n04505470_2825.png
subject-02,1,923,0.864192962646484,bottle,bottle,false,0923_fc_s02_false_bottle_35_n02823428_10942.png
subject-02,1,924,1.13592100143433,truck,car,false,0924_fc_s02_false_car_35_n02814533_4978.png
subject-02,1,925,0.880067825317383,airplane,airplane,true,0925_fc_s02_true_airplane_35_n02690373_9241.png
subject-02,1,926,0.875865936279297,bottle,chair,false,0926_fc_s02_false_chair_35_n04429376_6835.png
subject-02,1,927,1.03136587142944,truck,truck,true,0927_fc_s02_true_truck_35_n03417042_27586.png
subject-02,1,928,1.2530620098114,oven,chair,false,0928_fc_s02_false_chair_35_n04099969_3414.png
subject-02,1,929,1.20899105072021,oven,oven,true,0929_fc_s02_true_oven_35_n04111531_13590.png
subject-02,1,930,1.10260510444641,oven,clock,true,0930_fc_s02_true_clock_35_n03196217_845.png
subject-02,1,931,0.696782112121582,bottle,keyboard,false,0931_fc_s02_false_keyboard_35_n04505470_4549.png
subject-02,1,932,0.790496826171875,bottle,bottle,false,0932_fc_s02_false_bottle_35_n04579145_6435.png
subject-02,1,933,0.75239086151123,cat,cat,false,0933_fc_s02_false_cat_35_n02123597_9663.png
subject-02,1,934,0.860260009765625,dog,dog,true,0934_fc_s02_true_dog_35_n02097047_1351.png
subject-02,1,935,0.880163908004761,knife,knife,true,0935_fc_s02_true_knife_35_n03041632_15431.png
subject-02,1,936,1.23567390441895,keyboard,keyboard,true,0936_fc_s02_true_keyboard_35_n03085013_3980.png
subject-02,1,937,0.835386037826538,airplane,airplane,false,0937_fc_s02_false_airplane_35_n02690373_5415.png
subject-02,1,938,0.807731866836548,airplane,airplane,false,0938_fc_s02_false_airplane_35_n02690373_4191.png
subject-02,1,939,0.83894419670105,car,car,true,0939_fc_s02_true_car_35_n04285008_16701.png
subject-02,1,940,0.614960908889771,airplane,airplane,false,0940_fc_s02_false_airplane_35_n02690373_5029.png
subject-02,1,941,0.728799104690552,bird,bird,false,0941_fc_s02_false_bird_35_n01797886_12436.png
subject-02,1,942,0.696460962295532,chair,chair,true,0942_fc_s02_true_chair_35_n04429376_2693.png
subject-02,1,943,0.680482149124146,boat,boat,true,0943_fc_s02_true_boat_35_n03344393_6799.png
subject-02,1,944,1.35613322257996,knife,knife,true,0944_fc_s02_true_knife_35_n03041632_17285.png
subject-02,1,945,0.771854877471924,clock,clock,false,0945_fc_s02_false_clock_35_n02708093_2006.png
subject-02,1,946,0.733673095703125,boat,boat,true,0946_fc_s02_true_boat_35_n03662601_9602.png
subject-02,1,947,0.933408975601196,car,car,false,0947_fc_s02_false_car_35_n02814533_4885.png
subject-02,1,948,0.663633108139038,boat,boat,true,0948_fc_s02_true_boat_35_n04273569_4324.png
subject-02,1,949,1.50000596046448,dog,dog,false,0949_fc_s02_false_dog_35_n02096294_4609.png
subject-02,1,950,0.726855039596558,bottle,bottle,false,0950_fc_s02_false_bottle_35_n04557648_12039.png
subject-02,1,951,0.878753900527954,elephant,elephant,false,0951_fc_s02_false_elephant_35_n02504013_1436.png
subject-02,1,952,0.714679956436157,airplane,airplane,false,0952_fc_s02_false_airplane_35_n02690373_6831.png
subject-02,1,953,0.826447010040283,bicycle,bicycle,false,0953_fc_s02_false_bicycle_35_n03792782_7576.png
subject-02,1,954,0.784273862838745,car,car,true,0954_fc_s02_true_car_35_n04285008_11323.png
subject-02,1,955,0.726017951965332,bear,bear,true,0955_fc_s02_true_bear_35_n02132136_10301.png
subject-02,1,956,0.775891065597534,knife,knife,true,0956_fc_s02_true_knife_35_n03041632_48149.png
subject-02,1,957,0.873588085174561,boat,car,true,0957_fc_s02_true_car_35_n04285008_14161.png
subject-02,1,958,0.907461881637573,keyboard,keyboard,false,0958_fc_s02_false_keyboard_35_n03085013_21127.png
subject-02,1,959,0.811403036117554,bicycle,bicycle,false,0959_fc_s02_false_bicycle_35_n02835271_14585.png
subject-02,1,960,0.643025159835815,bear,bear,false,0960_fc_s02_false_bear_35_n02133161_5067.png
subject-02,1,961,0.800091028213501,keyboard,oven,false,0961_fc_s02_false_oven_35_n04111531_82.png
subject-02,1,962,0.835864067077637,knife,knife,false,0962_fc_s02_false_knife_35_n03041632_27832.png
subject-02,1,963,0.633533000946045,knife,knife,false,0963_fc_s02_false_knife_35_n03041632_51225.png
subject-02,1,964,0.945781946182251,knife,knife,true,0964_fc_s02_true_knife_35_n03041632_86338.png
subject-02,1,965,0.901036024093628,bicycle,bicycle,false,0965_fc_s02_false_bicycle_35_n03792782_51723.png
subject-02,1,966,0.854969024658203,bear,bear,false,0966_fc_s02_false_bear_35_n02132136_19521.png
subject-02,1,967,0.81868314743042,oven,oven,false,0967_fc_s02_false_oven_35_n04111531_5473.png
subject-02,1,968,0.548965930938721,oven,oven,true,0968_fc_s02_true_oven_35_n04111531_22120.png
subject-02,1,969,0.992209196090698,car,airplane,true,0969_fc_s02_true_airplane_35_n02690373_7698.png
subject-02,1,970,0.778272867202759,cat,cat,false,0970_fc_s02_false_cat_35_n02123597_3916.png
subject-02,1,971,1.36242890357971,oven,keyboard,false,0971_fc_s02_false_keyboard_35_n03085013_21266.png
subject-02,1,972,0.541917085647583,boat,boat,false,0972_fc_s02_false_boat_35_n03662601_10811.png
subject-02,1,973,1.0375509262085,clock,clock,false,0973_fc_s02_false_clock_35_n04548280_5466.png
subject-02,1,974,0.779293060302734,elephant,elephant,true,0974_fc_s02_true_elephant_35_n02504458_3599.png
subject-02,1,975,0.517530202865601,boat,boat,true,0975_fc_s02_true_boat_35_n04612504_5334.png
subject-02,1,976,0.919116973876953,chair,chair,true,0976_fc_s02_true_chair_35_n02791124_1135.png
subject-02,1,977,0.591109991073608,bird,bird,true,0977_fc_s02_true_bird_35_n01530575_2039.png
subject-02,1,978,0.736672878265381,cat,cat,false,0978_fc_s02_false_cat_35_n02123597_13140.png
subject-02,1,979,0.638590097427368,boat,boat,false,0979_fc_s02_false_boat_35_n03344393_4143.png
subject-02,1,980,0.662286996841431,cat,cat,true,0980_fc_s02_true_cat_35_n02124075_8341.png
subject-02,1,981,0.74442195892334,airplane,airplane,false,0981_fc_s02_false_airplane_35_n02690373_7375.png
subject-02,1,982,0.744217872619629,car,car,false,0982_fc_s02_false_car_35_n03100240_7120.png
subject-02,1,983,0.591817855834961,boat,boat,true,0983_fc_s02_true_boat_35_n04612504_254.png
subject-02,1,984,0.635692834854126,oven,oven,true,0984_fc_s02_true_oven_35_n04111531_3477.png
subject-02,1,985,0.999644041061401,bottle,oven,false,0985_fc_s02_false_oven_35_n04111531_8036.png
subject-02,1,986,0.679334878921509,knife,knife,true,0986_fc_s02_true_knife_35_n03041632_14766.png
subject-02,1,987,0.733024835586548,keyboard,keyboard,true,0987_fc_s02_true_keyboard_35_n03085013_22796.png
subject-02,1,988,0.900892972946167,elephant,elephant,false,0988_fc_s02_false_elephant_35_n02504458_3491.png
subject-02,1,989,0.824571132659912,clock,clock,false,0989_fc_s02_false_clock_35_n03196217_8785.png
subject-02,1,990,0.764180898666382,clock,clock,true,0990_fc_s02_true_clock_35_n02708093_275.png
subject-02,1,991,0.854510068893433,bird,bird,true,0991_fc_s02_true_bird_35_n01592084_3972.png
subject-02,1,992,0.707961082458496,airplane,airplane,true,0992_fc_s02_true_airplane_35_n02690373_4706.png
subject-02,1,993,0.786029100418091,airplane,airplane,true,0993_fc_s02_true_airplane_35_n02690373_9531.png
subject-02,1,994,0.983721971511841,oven,oven,false,0994_fc_s02_false_oven_35_n04111531_14543.png
subject-02,1,995,0.705267906188965,bird,bird,false,0995_fc_s02_false_bird_35_n02002556_25052.png
subject-02,1,996,0.631327152252197,keyboard,keyboard,true,0996_fc_s02_true_keyboard_35_n04505470_4682.png
subject-02,1,997,0.78105616569519,bird,bird,true,0997_fc_s02_true_bird_35_n02027492_4976.png
subject-02,1,998,0.622876167297363,cat,cat,false,0998_fc_s02_false_cat_35_n02123159_1165.png
subject-02,1,999,0.664605855941772,cat,cat,false,0999_fc_s02_false_cat_35_n02123394_1942.png
subject-02,1,1000,0.656562805175781,oven,oven,false,1000_fc_s02_false_oven_35_n04111531_16144.png
subject-02,1,1001,0.998658895492554,elephant,elephant,true,1001_fc_s02_true_elephant_35_n02504458_3261.png
subject-02,1,1002,1.37628102302551,oven,chair,false,1002_fc_s02_false_chair_35_n04429376_5362.png
subject-02,1,1003,0.942400217056274,airplane,airplane,true,1003_fc_s02_true_airplane_35_n02690373_2823.png
subject-02,1,1004,1.15773606300354,bottle,bottle,true,1004_fc_s02_true_bottle_35_n04557648_10123.png
subject-02,1,1005,1.17558813095093,oven,oven,true,1005_fc_s02_true_oven_35_n04111531_1674.png
subject-02,1,1006,1.42971205711365,dog,dog,true,1006_fc_s02_true_dog_35_n02113023_6956.png
subject-02,1,1007,0.803231954574585,bird,bird,false,1007_fc_s02_false_bird_35_n02009912_5983.png
subject-02,1,1008,0.680938959121704,clock,clock,false,1008_fc_s02_false_clock_35_n03196217_2567.png
subject-02,1,1009,0.802787065505981,oven,oven,true,1009_fc_s02_true_oven_35_n04111531_17809.png
subject-02,1,1010,0.918694972991943,bicycle,bicycle,true,1010_fc_s02_true_bicycle_35_n02835271_9531.png
subject-02,1,1011,0.836469888687134,bicycle,bicycle,true,1011_fc_s02_true_bicycle_35_n03792782_16961.png
subject-02,1,1012,0.856384038925171,cat,cat,false,1012_fc_s02_false_cat_35_n02123159_7580.png
subject-02,1,1013,0.760014057159424,chair,chair,true,1013_fc_s02_true_chair_35_n04429376_20873.png
subject-02,1,1014,0.551796913146973,cat,cat,true,1014_fc_s02_true_cat_35_n02125311_36167.png
subject-02,1,1015,0.71593189239502,oven,oven,true,1015_fc_s02_true_oven_35_n04111531_2855.png
subject-02,1,1016,1.14388084411621,bicycle,bear,false,1016_fc_s02_false_bear_35_n02134418_4485.png
subject-02,1,1017,0.787261962890625,bird,bird,false,1017_fc_s02_false_bird_35_n01860187_1815.png
