subj,session,trial,rt,object_response,category,condition,imagename
swag_vit_h14_in1k,1,1,NaN,knife,knife,true,0001_fc_dnn_true_knife_35_n03041632_86251.png
swag_vit_h14_in1k,1,2,NaN,car,car,false,0002_fc_dnn_false_car_35_n03100240_16866.png
swag_vit_h14_in1k,1,3,NaN,keyboard,keyboard,false,0003_fc_dnn_false_keyboard_35_n03085013_21127.png
swag_vit_h14_in1k,1,4,NaN,truck,truck,true,0004_fc_dnn_true_truck_35_n03417042_10694.png
swag_vit_h14_in1k,1,5,NaN,bird,bird,true,0005_fc_dnn_true_bird_35_n01614925_1962.png
swag_vit_h14_in1k,1,6,NaN,knife,knife,false,0006_fc_dnn_false_knife_35_n03041632_99875.png
swag_vit_h14_in1k,1,7,NaN,bicycle,bicycle,true,0007_fc_dnn_true_bicycle_35_n03792782_14935.png
swag_vit_h14_in1k,1,8,NaN,elephant,elephant,false,0008_fc_dnn_false_elephant_35_n02504013_5027.png
swag_vit_h14_in1k,1,9,NaN,dog,dog,false,0009_fc_dnn_false_dog_35_n02090721_129.png
swag_vit_h14_in1k,1,10,NaN,airplane,airplane,true,0010_fc_dnn_true_airplane_35_n02690373_9241.png
swag_vit_h14_in1k,1,11,NaN,truck,truck,true,0011_fc_dnn_true_truck_35_n04467665_62080.png
swag_vit_h14_in1k,1,12,NaN,keyboard,keyboard,true,0012_fc_dnn_true_keyboard_35_n04505470_2669.png
swag_vit_h14_in1k,1,13,NaN,oven,oven,false,0013_fc_dnn_false_oven_35_n04111531_688.png
swag_vit_h14_in1k,1,14,NaN,car,car,true,0014_fc_dnn_true_car_35_n03100240_21982.png
swag_vit_h14_in1k,1,15,NaN,bicycle,bicycle,true,0015_fc_dnn_true_bicycle_35_n02835271_4191.png
swag_vit_h14_in1k,1,16,NaN,car,car,true,0016_fc_dnn_true_car_35_n02814533_25278.png
swag_vit_h14_in1k,1,17,NaN,knife,knife,false,0017_fc_dnn_false_knife_35_n03041632_23087.png
swag_vit_h14_in1k,1,18,NaN,clock,clock,true,0018_fc_dnn_true_clock_35_n03196217_11252.png
swag_vit_h14_in1k,1,19,NaN,boat,boat,false,0019_fc_dnn_false_boat_35_n04273569_2040.png
swag_vit_h14_in1k,1,20,NaN,knife,knife,true,0020_fc_dnn_true_knife_35_n03041632_84869.png
swag_vit_h14_in1k,1,21,NaN,clock,clock,true,0021_fc_dnn_true_clock_35_n04548280_503.png
swag_vit_h14_in1k,1,22,NaN,truck,truck,false,0022_fc_dnn_false_truck_35_n03417042_10654.png
swag_vit_h14_in1k,1,23,NaN,boat,boat,true,0023_fc_dnn_true_boat_35_n03344393_2919.png
swag_vit_h14_in1k,1,24,NaN,chair,chair,false,0024_fc_dnn_false_chair_35_n04099969_7718.png
swag_vit_h14_in1k,1,25,NaN,oven,oven,true,0025_fc_dnn_true_oven_35_n04111531_3477.png
swag_vit_h14_in1k,1,26,NaN,dog,dog,false,0026_fc_dnn_false_dog_35_n02113712_913.png
swag_vit_h14_in1k,1,27,NaN,chair,chair,false,0027_fc_dnn_false_chair_35_n02791124_13701.png
swag_vit_h14_in1k,1,28,NaN,airplane,airplane,true,0028_fc_dnn_true_airplane_35_n02690373_8538.png
swag_vit_h14_in1k,1,29,NaN,knife,knife,true,0029_fc_dnn_true_knife_35_n03041632_98864.png
swag_vit_h14_in1k,1,30,NaN,clock,clock,false,0030_fc_dnn_false_clock_35_n04548280_5466.png
swag_vit_h14_in1k,1,31,NaN,keyboard,keyboard,true,0031_fc_dnn_true_keyboard_35_n04505470_4033.png
swag_vit_h14_in1k,1,32,NaN,boat,boat,false,0032_fc_dnn_false_boat_35_n03344393_7503.png
swag_vit_h14_in1k,1,33,NaN,bottle,bottle,false,0033_fc_dnn_false_bottle_35_n02823428_3402.png
swag_vit_h14_in1k,1,34,NaN,boat,boat,true,0034_fc_dnn_true_boat_35_n03662601_15766.png
swag_vit_h14_in1k,1,35,NaN,dog,dog,true,0035_fc_dnn_true_dog_35_n02097047_1351.png
swag_vit_h14_in1k,1,36,NaN,keyboard,keyboard,true,0036_fc_dnn_true_keyboard_35_n03085013_23562.png
swag_vit_h14_in1k,1,37,NaN,clock,clock,false,0037_fc_dnn_false_clock_35_n04548280_7872.png
swag_vit_h14_in1k,1,38,NaN,dog,dog,false,0038_fc_dnn_false_dog_35_n02106166_16884.png
swag_vit_h14_in1k,1,39,NaN,oven,oven,true,0039_fc_dnn_true_oven_35_n04111531_3353.png
swag_vit_h14_in1k,1,40,NaN,knife,knife,false,0040_fc_dnn_false_knife_35_n03041632_46185.png
swag_vit_h14_in1k,1,41,NaN,knife,knife,true,0041_fc_dnn_true_knife_35_n03041632_14766.png
swag_vit_h14_in1k,1,42,NaN,chair,chair,true,0042_fc_dnn_true_chair_35_n02791124_2150.png
swag_vit_h14_in1k,1,43,NaN,elephant,elephant,false,0043_fc_dnn_false_elephant_35_n02504458_4631.png
swag_vit_h14_in1k,1,44,NaN,chair,chair,false,0044_fc_dnn_false_chair_35_n03376595_3223.png
swag_vit_h14_in1k,1,45,NaN,car,car,false,0045_fc_dnn_false_car_35_n03100240_5399.png
swag_vit_h14_in1k,1,46,NaN,bottle,bottle,true,0046_fc_dnn_true_bottle_35_n04557648_2512.png
swag_vit_h14_in1k,1,47,NaN,bicycle,bicycle,true,0047_fc_dnn_true_bicycle_35_n03792782_8098.png
swag_vit_h14_in1k,1,48,NaN,bear,bear,true,0048_fc_dnn_true_bear_35_n02134418_11557.png
swag_vit_h14_in1k,1,49,NaN,knife,knife,true,0049_fc_dnn_true_knife_35_n03041632_45569.png
swag_vit_h14_in1k,1,50,NaN,bicycle,bicycle,false,0050_fc_dnn_false_bicycle_35_n03792782_4740.png
swag_vit_h14_in1k,1,51,NaN,boat,boat,false,0051_fc_dnn_false_boat_35_n03662601_25404.png
swag_vit_h14_in1k,1,52,NaN,bird,bird,false,0052_fc_dnn_false_bird_35_n01796340_4853.png
swag_vit_h14_in1k,1,53,NaN,clock,clock,true,0053_fc_dnn_true_clock_35_n03196217_5888.png
swag_vit_h14_in1k,1,54,NaN,bicycle,bicycle,true,0054_fc_dnn_true_bicycle_35_n02835271_12871.png
swag_vit_h14_in1k,1,55,NaN,keyboard,keyboard,false,0055_fc_dnn_false_keyboard_35_n03085013_28584.png
swag_vit_h14_in1k,1,56,NaN,cat,cat,true,0056_fc_dnn_true_cat_35_n02123159_6184.png
swag_vit_h14_in1k,1,57,NaN,bicycle,bicycle,true,0057_fc_dnn_true_bicycle_35_n02835271_7592.png
swag_vit_h14_in1k,1,58,NaN,elephant,elephant,false,0058_fc_dnn_false_elephant_35_n02504458_3205.png
swag_vit_h14_in1k,1,59,NaN,cat,cat,false,0059_fc_dnn_false_cat_35_n02124075_7880.png
swag_vit_h14_in1k,1,60,NaN,truck,truck,false,0060_fc_dnn_false_truck_35_n04467665_2240.png
swag_vit_h14_in1k,1,61,NaN,bottle,bottle,true,0061_fc_dnn_true_bottle_35_n04560804_13316.png
swag_vit_h14_in1k,1,62,NaN,airplane,airplane,false,0062_fc_dnn_false_airplane_35_n02690373_3821.png
swag_vit_h14_in1k,1,63,NaN,knife,knife,true,0063_fc_dnn_true_knife_35_n03041632_17285.png
swag_vit_h14_in1k,1,64,NaN,bottle,bottle,false,0064_fc_dnn_false_bottle_35_n02823428_10942.png
swag_vit_h14_in1k,1,65,NaN,bicycle,bicycle,true,0065_fc_dnn_true_bicycle_35_n02835271_3642.png
swag_vit_h14_in1k,1,66,NaN,knife,knife,true,0066_fc_dnn_true_knife_35_n03041632_16172.png
swag_vit_h14_in1k,1,67,NaN,bottle,bottle,false,0067_fc_dnn_false_bottle_35_n04560804_2448.png
swag_vit_h14_in1k,1,68,NaN,oven,oven,false,0068_fc_dnn_false_oven_35_n04111531_4452.png
swag_vit_h14_in1k,1,69,NaN,keyboard,keyboard,false,0069_fc_dnn_false_keyboard_35_n04505470_912.png
swag_vit_h14_in1k,1,70,NaN,cat,cat,false,0070_fc_dnn_false_cat_35_n02123045_7167.png
swag_vit_h14_in1k,1,71,NaN,bicycle,bicycle,false,0071_fc_dnn_false_bicycle_35_n03792782_8333.png
swag_vit_h14_in1k,1,72,NaN,dog,dog,false,0072_fc_dnn_false_dog_35_n02107683_2904.png
swag_vit_h14_in1k,1,73,NaN,bottle,bottle,true,0073_fc_dnn_true_bottle_35_n04591713_3409.png
swag_vit_h14_in1k,1,74,NaN,bottle,bottle,false,0074_fc_dnn_false_bottle_35_n04560804_564.png
swag_vit_h14_in1k,1,75,NaN,truck,truck,false,0075_fc_dnn_false_truck_35_n03796401_6503.png
swag_vit_h14_in1k,1,76,NaN,oven,oven,true,0076_fc_dnn_true_oven_35_n04111531_13590.png
swag_vit_h14_in1k,1,77,NaN,bird,bird,false,0077_fc_dnn_false_bird_35_n02018795_7504.png
swag_vit_h14_in1k,1,78,NaN,car,car,false,0078_fc_dnn_false_car_35_n03100240_6626.png
swag_vit_h14_in1k,1,79,NaN,bear,bear,false,0079_fc_dnn_false_bear_35_n02134418_4364.png
swag_vit_h14_in1k,1,80,NaN,knife,knife,false,0080_fc_dnn_false_knife_35_n03041632_8051.png
swag_vit_h14_in1k,1,81,NaN,airplane,airplane,true,0081_fc_dnn_true_airplane_35_n02690373_1434.png
swag_vit_h14_in1k,1,82,NaN,clock,clock,true,0082_fc_dnn_true_clock_35_n04548280_5408.png
swag_vit_h14_in1k,1,83,NaN,cat,cat,false,0083_fc_dnn_false_cat_35_n02123597_3916.png
swag_vit_h14_in1k,1,84,NaN,clock,clock,false,0084_fc_dnn_false_clock_35_n04548280_4542.png
swag_vit_h14_in1k,1,85,NaN,car,car,true,0085_fc_dnn_true_car_35_n04285008_14161.png
swag_vit_h14_in1k,1,86,NaN,airplane,airplane,false,0086_fc_dnn_false_airplane_35_n02690373_7279.png
swag_vit_h14_in1k,1,87,NaN,bear,bear,true,0087_fc_dnn_true_bear_35_n02132136_11640.png
swag_vit_h14_in1k,1,88,NaN,airplane,airplane,true,0088_fc_dnn_true_airplane_35_n02690373_8350.png
swag_vit_h14_in1k,1,89,NaN,boat,boat,true,0089_fc_dnn_true_boat_35_n04273569_30568.png
swag_vit_h14_in1k,1,90,NaN,dog,dog,true,0090_fc_dnn_true_dog_35_n02100583_19533.png
swag_vit_h14_in1k,1,91,NaN,knife,knife,true,0091_fc_dnn_true_knife_35_n03041632_965.png
swag_vit_h14_in1k,1,92,NaN,elephant,elephant,false,0092_fc_dnn_false_elephant_35_n02504458_6109.png
swag_vit_h14_in1k,1,93,NaN,oven,oven,true,0093_fc_dnn_true_oven_35_n04111531_10093.png
swag_vit_h14_in1k,1,94,NaN,clock,clock,true,0094_fc_dnn_true_clock_35_n03196217_8221.png
swag_vit_h14_in1k,1,95,NaN,bicycle,bicycle,false,0095_fc_dnn_false_bicycle_35_n03792782_828.png
swag_vit_h14_in1k,1,96,NaN,knife,knife,true,0096_fc_dnn_true_knife_35_n03041632_7090.png
swag_vit_h14_in1k,1,97,NaN,bear,bear,false,0097_fc_dnn_false_bear_35_n02134084_14260.png
swag_vit_h14_in1k,1,98,NaN,bear,bear,false,0098_fc_dnn_false_bear_35_n02132136_10988.png
swag_vit_h14_in1k,1,99,NaN,keyboard,keyboard,false,0099_fc_dnn_false_keyboard_35_n03085013_22980.png
swag_vit_h14_in1k,1,100,NaN,bottle,bottle,false,0100_fc_dnn_false_bottle_35_n04557648_3673.png
swag_vit_h14_in1k,1,101,NaN,airplane,airplane,true,0101_fc_dnn_true_airplane_35_n02690373_1360.png
swag_vit_h14_in1k,1,102,NaN,oven,oven,true,0102_fc_dnn_true_oven_35_n04111531_6415.png
swag_vit_h14_in1k,1,103,NaN,knife,knife,false,0103_fc_dnn_false_knife_35_n03041632_32054.png
swag_vit_h14_in1k,1,104,NaN,chair,chair,false,0104_fc_dnn_false_chair_35_n03376595_9136.png
swag_vit_h14_in1k,1,105,NaN,keyboard,keyboard,false,0105_fc_dnn_false_keyboard_35_n03085013_21266.png
swag_vit_h14_in1k,1,106,NaN,bicycle,bicycle,true,0106_fc_dnn_true_bicycle_35_n02835271_6137.png
swag_vit_h14_in1k,1,107,NaN,car,car,false,0107_fc_dnn_false_car_35_n04285008_14689.png
swag_vit_h14_in1k,1,108,NaN,truck,truck,false,0108_fc_dnn_false_truck_35_n04467665_16276.png
swag_vit_h14_in1k,1,109,NaN,chair,chair,false,0109_fc_dnn_false_chair_35_n03376595_787.png
swag_vit_h14_in1k,1,110,NaN,boat,boat,false,0110_fc_dnn_false_boat_35_n04612504_41355.png
swag_vit_h14_in1k,1,111,NaN,elephant,elephant,true,0111_fc_dnn_true_elephant_35_n02504458_174.png
swag_vit_h14_in1k,1,112,NaN,cat,cat,true,0112_fc_dnn_true_cat_35_n02125311_6746.png
swag_vit_h14_in1k,1,113,NaN,keyboard,keyboard,false,0113_fc_dnn_false_keyboard_35_n03085013_23287.png
swag_vit_h14_in1k,1,114,NaN,clock,clock,true,0114_fc_dnn_true_clock_35_n04548280_8071.png
swag_vit_h14_in1k,1,115,NaN,oven,oven,false,0115_fc_dnn_false_oven_35_n04111531_14543.png
swag_vit_h14_in1k,1,116,NaN,car,car,false,0116_fc_dnn_false_car_35_n03100240_10791.png
swag_vit_h14_in1k,1,117,NaN,airplane,airplane,true,0117_fc_dnn_true_airplane_35_n02690373_2619.png
swag_vit_h14_in1k,1,118,NaN,keyboard,keyboard,true,0118_fc_dnn_true_keyboard_35_n04505470_3864.png
swag_vit_h14_in1k,1,119,NaN,dog,dog,true,0119_fc_dnn_true_dog_35_n02097658_4387.png
swag_vit_h14_in1k,1,120,NaN,clock,clock,true,0120_fc_dnn_true_clock_35_n04548280_309.png
swag_vit_h14_in1k,1,121,NaN,dog,dog,true,0121_fc_dnn_true_dog_35_n02108000_5247.png
swag_vit_h14_in1k,1,122,NaN,keyboard,keyboard,false,0122_fc_dnn_false_keyboard_35_n04505470_4411.png
swag_vit_h14_in1k,1,123,NaN,truck,truck,false,0123_fc_dnn_false_truck_35_n03417042_2155.png
swag_vit_h14_in1k,1,124,NaN,bear,bear,false,0124_fc_dnn_false_bear_35_n02132136_4237.png
swag_vit_h14_in1k,1,125,NaN,bird,bird,false,0125_fc_dnn_false_bird_35_n01843065_2350.png
swag_vit_h14_in1k,1,126,NaN,knife,knife,false,0126_fc_dnn_false_knife_35_n03041632_51225.png
swag_vit_h14_in1k,1,127,NaN,airplane,airplane,false,0127_fc_dnn_false_airplane_35_n02690373_2095.png
swag_vit_h14_in1k,1,128,NaN,clock,clock,true,0128_fc_dnn_true_clock_35_n02708093_1775.png
swag_vit_h14_in1k,1,129,NaN,elephant,elephant,true,0129_fc_dnn_true_elephant_35_n02504458_7950.png
swag_vit_h14_in1k,1,130,NaN,boat,boat,true,0130_fc_dnn_true_boat_35_n03662601_1926.png
swag_vit_h14_in1k,1,131,NaN,elephant,elephant,true,0131_fc_dnn_true_elephant_35_n02504458_6721.png
swag_vit_h14_in1k,1,132,NaN,bicycle,bicycle,true,0132_fc_dnn_true_bicycle_35_n02835271_14225.png
swag_vit_h14_in1k,1,133,NaN,clock,clock,false,0133_fc_dnn_false_clock_35_n02708093_2744.png
swag_vit_h14_in1k,1,134,NaN,clock,clock,true,0134_fc_dnn_true_clock_35_n02708093_275.png
swag_vit_h14_in1k,1,135,NaN,knife,knife,false,0135_fc_dnn_false_knife_35_n03041632_25512.png
swag_vit_h14_in1k,1,136,NaN,bird,bird,true,0136_fc_dnn_true_bird_35_n01622779_5441.png
swag_vit_h14_in1k,1,137,NaN,oven,oven,false,0137_fc_dnn_false_oven_35_n04111531_14329.png
swag_vit_h14_in1k,1,138,NaN,bird,bird,false,0138_fc_dnn_false_bird_35_n02007558_13217.png
swag_vit_h14_in1k,1,139,NaN,cat,cat,true,0139_fc_dnn_true_cat_35_n02123597_7908.png
swag_vit_h14_in1k,1,140,NaN,clock,clock,true,0140_fc_dnn_true_clock_35_n04548280_9828.png
swag_vit_h14_in1k,1,141,NaN,bird,bird,false,0141_fc_dnn_false_bird_35_n01833805_4819.png
swag_vit_h14_in1k,1,142,NaN,knife,knife,true,0142_fc_dnn_true_knife_35_n03041632_52929.png
swag_vit_h14_in1k,1,143,NaN,truck,truck,false,0143_fc_dnn_false_truck_35_n04467665_2044.png
swag_vit_h14_in1k,1,144,NaN,oven,oven,false,0144_fc_dnn_false_oven_35_n04111531_16583.png
swag_vit_h14_in1k,1,145,NaN,airplane,airplane,true,0145_fc_dnn_true_airplane_35_n02690373_2796.png
swag_vit_h14_in1k,1,146,NaN,airplane,airplane,false,0146_fc_dnn_false_airplane_35_n02690373_3362.png
swag_vit_h14_in1k,1,147,NaN,clock,clock,true,0147_fc_dnn_true_clock_35_n02708093_3759.png
swag_vit_h14_in1k,1,148,NaN,elephant,elephant,true,0148_fc_dnn_true_elephant_35_n02504013_2558.png
swag_vit_h14_in1k,1,149,NaN,bear,bear,false,0149_fc_dnn_false_bear_35_n02134418_896.png
swag_vit_h14_in1k,1,150,NaN,truck,truck,false,0150_fc_dnn_false_truck_35_n04467665_56815.png
swag_vit_h14_in1k,1,151,NaN,truck,truck,true,0151_fc_dnn_true_truck_35_n03796401_3695.png
swag_vit_h14_in1k,1,152,NaN,dog,dog,true,0152_fc_dnn_true_dog_35_n02107312_197.png
swag_vit_h14_in1k,1,153,NaN,bear,bear,false,0153_fc_dnn_false_bear_35_n02133161_13356.png
swag_vit_h14_in1k,1,154,NaN,truck,truck,false,0154_fc_dnn_false_truck_35_n03796401_6923.png
swag_vit_h14_in1k,1,155,NaN,elephant,elephant,true,0155_fc_dnn_true_elephant_35_n02504458_7660.png
swag_vit_h14_in1k,1,156,NaN,bicycle,bicycle,false,0156_fc_dnn_false_bicycle_35_n02835271_6554.png
swag_vit_h14_in1k,1,157,NaN,boat,boat,true,0157_fc_dnn_true_boat_35_n04273569_2698.png
swag_vit_h14_in1k,1,158,NaN,bottle,bottle,true,0158_fc_dnn_true_bottle_35_n03983396_5055.png
swag_vit_h14_in1k,1,159,NaN,chair,chair,true,0159_fc_dnn_true_chair_35_n04429376_22811.png
swag_vit_h14_in1k,1,160,NaN,knife,knife,false,0160_fc_dnn_false_knife_35_n03041632_5640.png
swag_vit_h14_in1k,1,161,NaN,bird,bird,true,0161_fc_dnn_true_bird_35_n01795545_14857.png
swag_vit_h14_in1k,1,162,NaN,oven,oven,false,0162_fc_dnn_false_oven_35_n04111531_16144.png
swag_vit_h14_in1k,1,163,NaN,truck,truck,false,0163_fc_dnn_false_truck_35_n04467665_47050.png
swag_vit_h14_in1k,1,164,NaN,bottle,bottle,true,0164_fc_dnn_true_bottle_35_n03937543_8063.png
swag_vit_h14_in1k,1,165,NaN,bear,bear,false,0165_fc_dnn_false_bear_35_n02134084_1655.png
swag_vit_h14_in1k,1,166,NaN,car,car,false,0166_fc_dnn_false_car_35_n03100240_2425.png
swag_vit_h14_in1k,1,167,NaN,keyboard,keyboard,false,0167_fc_dnn_false_keyboard_35_n03085013_21300.png
swag_vit_h14_in1k,1,168,NaN,bear,bear,false,0168_fc_dnn_false_bear_35_n02132136_2248.png
swag_vit_h14_in1k,1,169,NaN,knife,knife,false,0169_fc_dnn_false_knife_35_n03041632_27832.png
swag_vit_h14_in1k,1,170,NaN,keyboard,keyboard,true,0170_fc_dnn_true_keyboard_35_n04505470_4682.png
swag_vit_h14_in1k,1,171,NaN,truck,truck,false,0171_fc_dnn_false_truck_35_n03417042_12908.png
swag_vit_h14_in1k,1,172,NaN,elephant,elephant,false,0172_fc_dnn_false_elephant_35_n02504013_2148.png
swag_vit_h14_in1k,1,173,NaN,boat,boat,true,0173_fc_dnn_true_boat_35_n02951358_20379.png
swag_vit_h14_in1k,1,174,NaN,cat,cat,true,0174_fc_dnn_true_cat_35_n02123394_6521.png
swag_vit_h14_in1k,1,175,NaN,boat,boat,true,0175_fc_dnn_true_boat_35_n03662601_9602.png
swag_vit_h14_in1k,1,176,NaN,clock,clock,true,0176_fc_dnn_true_clock_35_n04548280_3997.png
swag_vit_h14_in1k,1,177,NaN,car,car,false,0177_fc_dnn_false_car_35_n03100240_12694.png
swag_vit_h14_in1k,1,178,NaN,bird,bird,false,0178_fc_dnn_false_bird_35_n02002556_25052.png
swag_vit_h14_in1k,1,179,NaN,chair,chair,true,0179_fc_dnn_true_chair_35_n04429376_22734.png
swag_vit_h14_in1k,1,180,NaN,boat,boat,true,0180_fc_dnn_true_boat_35_n04612504_5334.png
swag_vit_h14_in1k,1,181,NaN,keyboard,keyboard,true,0181_fc_dnn_true_keyboard_35_n03085013_15484.png
swag_vit_h14_in1k,1,182,NaN,bear,bear,true,0182_fc_dnn_true_bear_35_n02134418_1809.png
swag_vit_h14_in1k,1,183,NaN,bottle,bottle,true,0183_fc_dnn_true_bottle_35_n04560804_6392.png
swag_vit_h14_in1k,1,184,NaN,boat,boat,false,0184_fc_dnn_false_boat_35_n02951358_29495.png
swag_vit_h14_in1k,1,185,NaN,dog,dog,false,0185_fc_dnn_false_dog_35_n02086646_8449.png
swag_vit_h14_in1k,1,186,NaN,bird,bird,true,0186_fc_dnn_true_bird_35_n02037110_4043.png
swag_vit_h14_in1k,1,187,NaN,elephant,elephant,true,0187_fc_dnn_true_elephant_35_n02504458_4819.png
swag_vit_h14_in1k,1,188,NaN,bird,bird,true,0188_fc_dnn_true_bird_35_n01829413_282.png
swag_vit_h14_in1k,1,189,NaN,bird,bird,false,0189_fc_dnn_false_bird_35_n02007558_22160.png
swag_vit_h14_in1k,1,190,NaN,truck,truck,false,0190_fc_dnn_false_truck_35_n03417042_3066.png
swag_vit_h14_in1k,1,191,NaN,boat,boat,true,0191_fc_dnn_true_boat_35_n04612504_254.png
swag_vit_h14_in1k,1,192,NaN,keyboard,keyboard,false,0192_fc_dnn_false_keyboard_35_n03085013_20704.png
swag_vit_h14_in1k,1,193,NaN,chair,chair,true,0193_fc_dnn_true_chair_35_n03376595_3015.png
swag_vit_h14_in1k,1,194,NaN,bottle,bottle,false,0194_fc_dnn_false_bottle_35_n03983396_3782.png
swag_vit_h14_in1k,1,195,NaN,bird,bird,false,0195_fc_dnn_false_bird_35_n01592084_4087.png
swag_vit_h14_in1k,1,196,NaN,bird,bird,false,0196_fc_dnn_false_bird_35_n02013706_651.png
swag_vit_h14_in1k,1,197,NaN,keyboard,keyboard,true,0197_fc_dnn_true_keyboard_35_n04505470_2825.png
swag_vit_h14_in1k,1,198,NaN,cat,cat,false,0198_fc_dnn_false_cat_35_n02123597_23346.png
swag_vit_h14_in1k,1,199,NaN,cat,cat,false,0199_fc_dnn_false_cat_35_n02124075_3592.png
swag_vit_h14_in1k,1,200,NaN,airplane,airplane,false,0200_fc_dnn_false_airplane_35_n02690373_5415.png
swag_vit_h14_in1k,1,201,NaN,cat,cat,true,0201_fc_dnn_true_cat_35_n02123597_4591.png
swag_vit_h14_in1k,1,202,NaN,elephant,elephant,false,0202_fc_dnn_false_elephant_35_n02504013_2228.png
swag_vit_h14_in1k,1,203,NaN,knife,knife,false,0203_fc_dnn_false_knife_35_n03041632_47743.png
swag_vit_h14_in1k,1,204,NaN,bear,bear,false,0204_fc_dnn_false_bear_35_n02134418_1105.png
swag_vit_h14_in1k,1,205,NaN,bottle,bottle,true,0205_fc_dnn_true_bottle_35_n04591713_1174.png
swag_vit_h14_in1k,1,206,NaN,keyboard,keyboard,true,0206_fc_dnn_true_keyboard_35_n04505470_8544.png
swag_vit_h14_in1k,1,207,NaN,bear,bear,true,0207_fc_dnn_true_bear_35_n02134418_379.png
swag_vit_h14_in1k,1,208,NaN,knife,knife,false,0208_fc_dnn_false_knife_35_n03041632_33198.png
swag_vit_h14_in1k,1,209,NaN,bear,bear,true,0209_fc_dnn_true_bear_35_n02134084_4490.png
swag_vit_h14_in1k,1,210,NaN,car,car,true,0210_fc_dnn_true_car_35_n02814533_23592.png
swag_vit_h14_in1k,1,211,NaN,dog,dog,false,0211_fc_dnn_false_dog_35_n02102973_7095.png
swag_vit_h14_in1k,1,212,NaN,elephant,elephant,true,0212_fc_dnn_true_elephant_35_n02504013_3810.png
swag_vit_h14_in1k,1,213,NaN,truck,truck,false,0213_fc_dnn_false_truck_35_n03417042_28742.png
swag_vit_h14_in1k,1,214,NaN,bicycle,bicycle,false,0214_fc_dnn_false_bicycle_35_n03792782_4382.png
swag_vit_h14_in1k,1,215,NaN,keyboard,keyboard,false,0215_fc_dnn_false_keyboard_35_n04505470_2868.png
swag_vit_h14_in1k,1,216,NaN,bear,bear,true,0216_fc_dnn_true_bear_35_n02132136_4817.png
swag_vit_h14_in1k,1,217,NaN,bicycle,bicycle,true,0217_fc_dnn_true_bicycle_35_n03792782_1989.png
swag_vit_h14_in1k,1,218,NaN,truck,truck,true,0218_fc_dnn_true_truck_35_n03417042_4883.png
swag_vit_h14_in1k,1,219,NaN,bicycle,bicycle,true,0219_fc_dnn_true_bicycle_35_n03792782_6614.png
swag_vit_h14_in1k,1,220,NaN,car,car,true,0220_fc_dnn_true_car_35_n04285008_8581.png
swag_vit_h14_in1k,1,221,NaN,truck,truck,true,0221_fc_dnn_true_truck_35_n04467665_22051.png
swag_vit_h14_in1k,1,222,NaN,keyboard,keyboard,true,0222_fc_dnn_true_keyboard_35_n04505470_4516.png
swag_vit_h14_in1k,1,223,NaN,clock,clock,true,0223_fc_dnn_true_clock_35_n02708093_3355.png
swag_vit_h14_in1k,1,224,NaN,chair,chair,false,0224_fc_dnn_false_chair_35_n02791124_11404.png
swag_vit_h14_in1k,1,225,NaN,boat,boat,true,0225_fc_dnn_true_boat_35_n03344393_1145.png
swag_vit_h14_in1k,1,226,NaN,keyboard,keyboard,false,0226_fc_dnn_false_keyboard_35_n04505470_4627.png
swag_vit_h14_in1k,1,227,NaN,chair,chair,true,0227_fc_dnn_true_chair_35_n03376595_4354.png
swag_vit_h14_in1k,1,228,NaN,keyboard,keyboard,false,0228_fc_dnn_false_keyboard_35_n03085013_3231.png
swag_vit_h14_in1k,1,229,NaN,car,car,false,0229_fc_dnn_false_car_35_n03100240_7454.png
swag_vit_h14_in1k,1,230,NaN,chair,chair,false,0230_fc_dnn_false_chair_35_n03376595_4212.png
swag_vit_h14_in1k,1,231,NaN,airplane,airplane,true,0231_fc_dnn_true_airplane_35_n02690373_4175.png
swag_vit_h14_in1k,1,232,NaN,bird,bird,false,0232_fc_dnn_false_bird_35_n01614925_19918.png
swag_vit_h14_in1k,1,233,NaN,dog,dog,false,0233_fc_dnn_false_dog_35_n02086240_1183.png
swag_vit_h14_in1k,1,234,NaN,car,car,false,0234_fc_dnn_false_car_35_n02814533_1344.png
swag_vit_h14_in1k,1,235,NaN,bottle,bottle,true,0235_fc_dnn_true_bottle_35_n03983396_1321.png
swag_vit_h14_in1k,1,236,NaN,cat,cat,true,0236_fc_dnn_true_cat_35_n02123597_6291.png
swag_vit_h14_in1k,1,237,NaN,airplane,airplane,true,0237_fc_dnn_true_airplane_35_n02690373_7698.png
swag_vit_h14_in1k,1,238,NaN,airplane,airplane,false,0238_fc_dnn_false_airplane_35_n02690373_4191.png
swag_vit_h14_in1k,1,239,NaN,bear,bear,true,0239_fc_dnn_true_bear_35_n02134418_6204.png
swag_vit_h14_in1k,1,240,NaN,bear,bear,true,0240_fc_dnn_true_bear_35_n02132136_14829.png
swag_vit_h14_in1k,1,241,NaN,car,car,false,0241_fc_dnn_false_car_35_n04285008_2409.png
swag_vit_h14_in1k,1,242,NaN,bird,bird,true,0242_fc_dnn_true_bird_35_n02037110_3761.png
swag_vit_h14_in1k,1,243,NaN,boat,boat,false,0243_fc_dnn_false_boat_35_n02951358_3067.png
swag_vit_h14_in1k,1,244,NaN,chair,chair,false,0244_fc_dnn_false_chair_35_n03376595_14748.png
swag_vit_h14_in1k,1,245,NaN,elephant,elephant,true,0245_fc_dnn_true_elephant_35_n02504458_5951.png
swag_vit_h14_in1k,1,246,NaN,clock,clock,false,0246_fc_dnn_false_clock_35_n02708093_2006.png
swag_vit_h14_in1k,1,247,NaN,car,car,false,0247_fc_dnn_false_car_35_n03100240_18646.png
swag_vit_h14_in1k,1,248,NaN,bicycle,bicycle,false,0248_fc_dnn_false_bicycle_35_n03792782_5864.png
swag_vit_h14_in1k,1,249,NaN,chair,chair,false,0249_fc_dnn_false_chair_35_n04429376_36830.png
swag_vit_h14_in1k,1,250,NaN,boat,boat,true,0250_fc_dnn_true_boat_35_n04273569_9282.png
swag_vit_h14_in1k,1,251,NaN,bird,bird,true,0251_fc_dnn_true_bird_35_n01622779_1609.png
swag_vit_h14_in1k,1,252,NaN,dog,dog,true,0252_fc_dnn_true_dog_35_n02088094_9498.png
swag_vit_h14_in1k,1,253,NaN,car,car,true,0253_fc_dnn_true_car_35_n04285008_5525.png
swag_vit_h14_in1k,1,254,NaN,knife,knife,true,0254_fc_dnn_true_knife_35_n03041632_29343.png
swag_vit_h14_in1k,1,255,NaN,knife,knife,true,0255_fc_dnn_true_knife_35_n03041632_86338.png
swag_vit_h14_in1k,1,256,NaN,keyboard,keyboard,false,0256_fc_dnn_false_keyboard_35_n03085013_20691.png
swag_vit_h14_in1k,1,257,NaN,cat,cat,true,0257_fc_dnn_true_cat_35_n02124075_1957.png
swag_vit_h14_in1k,1,258,NaN,bear,bear,false,0258_fc_dnn_false_bear_35_n02134418_195.png
swag_vit_h14_in1k,1,259,NaN,chair,chair,true,0259_fc_dnn_true_chair_35_n02791124_1376.png
swag_vit_h14_in1k,1,260,NaN,elephant,elephant,false,0260_fc_dnn_false_elephant_35_n02504458_8060.png
swag_vit_h14_in1k,1,261,NaN,oven,oven,false,0261_fc_dnn_false_oven_35_n04111531_6479.png
swag_vit_h14_in1k,1,262,NaN,bear,bear,true,0262_fc_dnn_true_bear_35_n02132136_4070.png
swag_vit_h14_in1k,1,263,NaN,cat,cat,false,0263_fc_dnn_false_cat_35_n02123597_1153.png
swag_vit_h14_in1k,1,264,NaN,truck,truck,false,0264_fc_dnn_false_truck_35_n04467665_49656.png
swag_vit_h14_in1k,1,265,NaN,dog,dog,true,0265_fc_dnn_true_dog_35_n02108915_10239.png
swag_vit_h14_in1k,1,266,NaN,chair,chair,false,0266_fc_dnn_false_chair_35_n04429376_6835.png
swag_vit_h14_in1k,1,267,NaN,truck,truck,true,0267_fc_dnn_true_truck_35_n04467665_54079.png
swag_vit_h14_in1k,1,268,NaN,clock,clock,false,0268_fc_dnn_false_clock_35_n03196217_4464.png
swag_vit_h14_in1k,1,269,NaN,dog,dog,true,0269_fc_dnn_true_dog_35_n02102318_9359.png
swag_vit_h14_in1k,1,270,NaN,bicycle,bicycle,true,0270_fc_dnn_true_bicycle_35_n03792782_12578.png
swag_vit_h14_in1k,1,271,NaN,bicycle,bicycle,true,0271_fc_dnn_true_bicycle_35_n02835271_12752.png
swag_vit_h14_in1k,1,272,NaN,oven,oven,true,0272_fc_dnn_true_oven_35_n04111531_20056.png
swag_vit_h14_in1k,1,273,NaN,oven,oven,true,0273_fc_dnn_true_oven_35_n04111531_12510.png
swag_vit_h14_in1k,1,274,NaN,oven,oven,false,0274_fc_dnn_false_oven_35_n04111531_11079.png
swag_vit_h14_in1k,1,275,NaN,cat,cat,true,0275_fc_dnn_true_cat_35_n02124075_4377.png
swag_vit_h14_in1k,1,276,NaN,knife,knife,true,0276_fc_dnn_true_knife_35_n03041632_20517.png
swag_vit_h14_in1k,1,277,NaN,knife,knife,false,0277_fc_dnn_false_knife_35_n03041632_362.png
swag_vit_h14_in1k,1,278,NaN,airplane,airplane,false,0278_fc_dnn_false_airplane_35_n02690373_6807.png
swag_vit_h14_in1k,1,279,NaN,elephant,elephant,false,0279_fc_dnn_false_elephant_35_n02504013_1494.png
swag_vit_h14_in1k,1,280,NaN,oven,oven,false,0280_fc_dnn_false_oven_35_n04111531_3181.png
swag_vit_h14_in1k,1,281,NaN,truck,truck,false,0281_fc_dnn_false_truck_35_n03796401_6727.png
swag_vit_h14_in1k,1,282,NaN,dog,dog,true,0282_fc_dnn_true_dog_35_n02113023_6956.png
swag_vit_h14_in1k,1,283,NaN,elephant,elephant,false,0283_fc_dnn_false_elephant_35_n02504013_1519.png
swag_vit_h14_in1k,1,284,NaN,oven,oven,false,0284_fc_dnn_false_oven_35_n04111531_8082.png
swag_vit_h14_in1k,1,285,NaN,oven,oven,false,0285_fc_dnn_false_oven_35_n04111531_550.png
swag_vit_h14_in1k,1,286,NaN,clock,clock,false,0286_fc_dnn_false_clock_35_n02708093_2242.png
swag_vit_h14_in1k,1,287,NaN,airplane,airplane,true,0287_fc_dnn_true_airplane_35_n02690373_10809.png
swag_vit_h14_in1k,1,288,NaN,bird,bird,false,0288_fc_dnn_false_bird_35_n02037110_6501.png
swag_vit_h14_in1k,1,289,NaN,airplane,airplane,false,0289_fc_dnn_false_airplane_35_n02690373_12756.png
swag_vit_h14_in1k,1,290,NaN,bottle,bottle,false,0290_fc_dnn_false_bottle_35_n03983396_5413.png
swag_vit_h14_in1k,1,291,NaN,bird,bird,true,0291_fc_dnn_true_bird_35_n01560419_631.png
swag_vit_h14_in1k,1,292,NaN,cat,cat,true,0292_fc_dnn_true_cat_35_n02123394_4734.png
swag_vit_h14_in1k,1,293,NaN,bottle,bottle,true,0293_fc_dnn_true_bottle_35_n03937543_469.png
swag_vit_h14_in1k,1,294,NaN,clock,clock,true,0294_fc_dnn_true_clock_35_n04548280_1055.png
swag_vit_h14_in1k,1,295,NaN,chair,chair,true,0295_fc_dnn_true_chair_35_n02791124_15934.png
swag_vit_h14_in1k,1,296,NaN,keyboard,keyboard,true,0296_fc_dnn_true_keyboard_35_n03085013_22187.png
swag_vit_h14_in1k,1,297,NaN,dog,dog,false,0297_fc_dnn_false_dog_35_n02099601_8560.png
swag_vit_h14_in1k,1,298,NaN,truck,truck,true,0298_fc_dnn_true_truck_35_n03417042_11091.png
swag_vit_h14_in1k,1,299,NaN,bird,bird,true,0299_fc_dnn_true_bird_35_n02013706_7132.png
swag_vit_h14_in1k,1,300,NaN,car,car,false,0300_fc_dnn_false_car_35_n02814533_4978.png
swag_vit_h14_in1k,1,301,NaN,bear,bear,true,0301_fc_dnn_true_bear_35_n02134418_6244.png
swag_vit_h14_in1k,1,302,NaN,bicycle,bicycle,false,0302_fc_dnn_false_bicycle_35_n03792782_50569.png
swag_vit_h14_in1k,1,303,NaN,car,car,true,0303_fc_dnn_true_car_35_n03100240_2632.png
swag_vit_h14_in1k,1,304,NaN,knife,knife,false,0304_fc_dnn_false_knife_35_n03041632_11285.png
swag_vit_h14_in1k,1,305,NaN,knife,knife,false,0305_fc_dnn_false_knife_35_n03041632_39952.png
swag_vit_h14_in1k,1,306,NaN,chair,chair,true,0306_fc_dnn_true_chair_35_n04099969_9745.png
swag_vit_h14_in1k,1,307,NaN,car,car,true,0307_fc_dnn_true_car_35_n03100240_49.png
swag_vit_h14_in1k,1,308,NaN,bird,bird,true,0308_fc_dnn_true_bird_35_n01817953_5953.png
swag_vit_h14_in1k,1,309,NaN,bear,bear,false,0309_fc_dnn_false_bear_35_n02134418_5253.png
swag_vit_h14_in1k,1,310,NaN,bicycle,bicycle,false,0310_fc_dnn_false_bicycle_35_n03792782_7576.png
swag_vit_h14_in1k,1,311,NaN,keyboard,keyboard,true,0311_fc_dnn_true_keyboard_35_n03085013_5157.png
swag_vit_h14_in1k,1,312,NaN,boat,boat,true,0312_fc_dnn_true_boat_35_n03344393_7050.png
swag_vit_h14_in1k,1,313,NaN,bicycle,bicycle,false,0313_fc_dnn_false_bicycle_35_n03792782_51335.png
swag_vit_h14_in1k,1,314,NaN,cat,cat,true,0314_fc_dnn_true_cat_35_n02124075_7230.png
swag_vit_h14_in1k,1,315,NaN,truck,truck,true,0315_fc_dnn_true_truck_35_n04467665_68020.png
swag_vit_h14_in1k,1,316,NaN,elephant,elephant,true,0316_fc_dnn_true_elephant_35_n02504458_2970.png
swag_vit_h14_in1k,1,317,NaN,bicycle,bicycle,false,0317_fc_dnn_false_bicycle_35_n02835271_2714.png
swag_vit_h14_in1k,1,318,NaN,elephant,elephant,true,0318_fc_dnn_true_elephant_35_n02504013_3307.png
swag_vit_h14_in1k,1,319,NaN,truck,truck,true,0319_fc_dnn_true_truck_35_n03796401_3940.png
swag_vit_h14_in1k,1,320,NaN,chair,chair,false,0320_fc_dnn_false_chair_35_n04429376_5362.png
swag_vit_h14_in1k,1,321,NaN,cat,cat,false,0321_fc_dnn_false_cat_35_n02123159_1165.png
swag_vit_h14_in1k,1,322,NaN,boat,boat,true,0322_fc_dnn_true_boat_35_n03662601_4665.png
swag_vit_h14_in1k,1,323,NaN,cat,cat,true,0323_fc_dnn_true_cat_35_n02124075_5067.png
swag_vit_h14_in1k,1,324,NaN,knife,knife,true,0324_fc_dnn_true_knife_35_n03041632_22480.png
swag_vit_h14_in1k,1,325,NaN,truck,bottle,false,0325_fc_dnn_false_bottle_35_n04560804_2539.png
swag_vit_h14_in1k,1,326,NaN,oven,oven,true,0326_fc_dnn_true_oven_35_n04111531_8681.png
swag_vit_h14_in1k,1,327,NaN,car,car,false,0327_fc_dnn_false_car_35_n03100240_23804.png
swag_vit_h14_in1k,1,328,NaN,oven,oven,true,0328_fc_dnn_true_oven_35_n04111531_547.png
swag_vit_h14_in1k,1,329,NaN,boat,boat,false,0329_fc_dnn_false_boat_35_n04273569_9873.png
swag_vit_h14_in1k,1,330,NaN,cat,cat,false,0330_fc_dnn_false_cat_35_n02123597_13140.png
swag_vit_h14_in1k,1,331,NaN,bear,bear,true,0331_fc_dnn_true_bear_35_n02134418_1330.png
swag_vit_h14_in1k,1,332,NaN,chair,chair,false,0332_fc_dnn_false_chair_35_n04429376_6272.png
swag_vit_h14_in1k,1,333,NaN,bear,bear,false,0333_fc_dnn_false_bear_35_n02134084_22997.png
swag_vit_h14_in1k,1,334,NaN,clock,clock,false,0334_fc_dnn_false_clock_35_n03196217_3508.png
swag_vit_h14_in1k,1,335,NaN,chair,chair,true,0335_fc_dnn_true_chair_35_n02791124_958.png
swag_vit_h14_in1k,1,336,NaN,boat,boat,false,0336_fc_dnn_false_boat_35_n03344393_4012.png
swag_vit_h14_in1k,1,337,NaN,airplane,airplane,true,0337_fc_dnn_true_airplane_35_n02690373_4921.png
swag_vit_h14_in1k,1,338,NaN,bear,cat,false,0338_fc_dnn_false_cat_35_n02125311_28052.png
swag_vit_h14_in1k,1,339,NaN,airplane,airplane,false,0339_fc_dnn_false_airplane_35_n02690373_1837.png
swag_vit_h14_in1k,1,340,NaN,elephant,elephant,false,0340_fc_dnn_false_elephant_35_n02504458_5191.png
swag_vit_h14_in1k,1,341,NaN,bird,bird,false,0341_fc_dnn_false_bird_35_n01855672_2187.png
swag_vit_h14_in1k,1,342,NaN,clock,clock,true,0342_fc_dnn_true_clock_35_n04548280_7794.png
swag_vit_h14_in1k,1,343,NaN,clock,clock,false,0343_fc_dnn_false_clock_35_n03196217_8489.png
swag_vit_h14_in1k,1,344,NaN,knife,knife,false,0344_fc_dnn_false_knife_35_n03041632_21590.png
swag_vit_h14_in1k,1,345,NaN,elephant,elephant,false,0345_fc_dnn_false_elephant_35_n02504458_1249.png
swag_vit_h14_in1k,1,346,NaN,keyboard,keyboard,false,0346_fc_dnn_false_keyboard_35_n04505470_4549.png
swag_vit_h14_in1k,1,347,NaN,elephant,elephant,false,0347_fc_dnn_false_elephant_35_n02504013_3771.png
swag_vit_h14_in1k,1,348,NaN,bicycle,bicycle,true,0348_fc_dnn_true_bicycle_35_n02835271_19552.png
swag_vit_h14_in1k,1,349,NaN,bear,bear,true,0349_fc_dnn_true_bear_35_n02134084_4477.png
swag_vit_h14_in1k,1,350,NaN,elephant,elephant,false,0350_fc_dnn_false_elephant_35_n02504013_10149.png
swag_vit_h14_in1k,1,351,NaN,boat,boat,true,0351_fc_dnn_true_boat_35_n04273569_709.png
swag_vit_h14_in1k,1,352,NaN,car,car,false,0352_fc_dnn_false_car_35_n03100240_7120.png
swag_vit_h14_in1k,1,353,NaN,boat,boat,false,0353_fc_dnn_false_boat_35_n02951358_12867.png
swag_vit_h14_in1k,1,354,NaN,bird,bird,true,0354_fc_dnn_true_bird_35_n01558993_38999.png
swag_vit_h14_in1k,1,355,NaN,bicycle,bicycle,false,0355_fc_dnn_false_bicycle_35_n03792782_4210.png
swag_vit_h14_in1k,1,356,NaN,dog,dog,false,0356_fc_dnn_false_dog_35_n02102318_11997.png
swag_vit_h14_in1k,1,357,NaN,clock,clock,false,0357_fc_dnn_false_clock_35_n02708093_6813.png
swag_vit_h14_in1k,1,358,NaN,oven,oven,false,0358_fc_dnn_false_oven_35_n04111531_8036.png
swag_vit_h14_in1k,1,359,NaN,clock,clock,false,0359_fc_dnn_false_clock_35_n02708093_3454.png
swag_vit_h14_in1k,1,360,NaN,keyboard,keyboard,true,0360_fc_dnn_true_keyboard_35_n03085013_21641.png
swag_vit_h14_in1k,1,361,NaN,chair,chair,false,0361_fc_dnn_false_chair_35_n02791124_139.png
swag_vit_h14_in1k,1,362,NaN,bear,bear,false,0362_fc_dnn_false_bear_35_n02134084_6821.png
swag_vit_h14_in1k,1,363,NaN,cat,cat,false,0363_fc_dnn_false_cat_35_n02124075_5874.png
swag_vit_h14_in1k,1,364,NaN,chair,chair,false,0364_fc_dnn_false_chair_35_n04099969_8604.png
swag_vit_h14_in1k,1,365,NaN,bicycle,bicycle,true,0365_fc_dnn_true_bicycle_35_n02835271_15524.png
swag_vit_h14_in1k,1,366,NaN,chair,chair,false,0366_fc_dnn_false_chair_35_n04429376_55163.png
swag_vit_h14_in1k,1,367,NaN,dog,dog,true,0367_fc_dnn_true_dog_35_n02106662_10632.png
swag_vit_h14_in1k,1,368,NaN,car,car,false,0368_fc_dnn_false_car_35_n03100240_9675.png
swag_vit_h14_in1k,1,369,NaN,bird,bird,true,0369_fc_dnn_true_bird_35_n02011460_22291.png
swag_vit_h14_in1k,1,370,NaN,dog,dog,false,0370_fc_dnn_false_dog_35_n02106662_56099.png
swag_vit_h14_in1k,1,371,NaN,keyboard,keyboard,false,0371_fc_dnn_false_keyboard_35_n04505470_3970.png
swag_vit_h14_in1k,1,372,NaN,boat,boat,false,0372_fc_dnn_false_boat_35_n03662601_32803.png
swag_vit_h14_in1k,1,373,NaN,bottle,bottle,false,0373_fc_dnn_false_bottle_35_n02823428_4043.png
swag_vit_h14_in1k,1,374,NaN,airplane,airplane,true,0374_fc_dnn_true_airplane_35_n02690373_5221.png
swag_vit_h14_in1k,1,375,NaN,knife,knife,false,0375_fc_dnn_false_knife_35_n03041632_90125.png
swag_vit_h14_in1k,1,376,NaN,oven,oven,false,0376_fc_dnn_false_oven_35_n04111531_11230.png
swag_vit_h14_in1k,1,377,NaN,keyboard,keyboard,true,0377_fc_dnn_true_keyboard_35_n04505470_3002.png
swag_vit_h14_in1k,1,378,NaN,bicycle,bicycle,true,0378_fc_dnn_true_bicycle_35_n02835271_12237.png
swag_vit_h14_in1k,1,379,NaN,dog,dog,false,0379_fc_dnn_false_dog_35_n02088238_9947.png
swag_vit_h14_in1k,1,380,NaN,airplane,airplane,false,0380_fc_dnn_false_airplane_35_n02690373_2075.png
swag_vit_h14_in1k,1,381,NaN,bicycle,bicycle,false,0381_fc_dnn_false_bicycle_35_n02835271_12930.png
swag_vit_h14_in1k,1,382,NaN,dog,dog,false,0382_fc_dnn_false_dog_35_n02096294_4609.png
swag_vit_h14_in1k,1,383,NaN,knife,knife,false,0383_fc_dnn_false_knife_35_n03041632_15754.png
swag_vit_h14_in1k,1,384,NaN,bird,bird,true,0384_fc_dnn_true_bird_35_n01819313_5634.png
swag_vit_h14_in1k,1,385,NaN,clock,clock,true,0385_fc_dnn_true_clock_35_n02708093_8386.png
swag_vit_h14_in1k,1,386,NaN,bottle,bottle,false,0386_fc_dnn_false_bottle_35_n04579145_6435.png
swag_vit_h14_in1k,1,387,NaN,airplane,airplane,true,0387_fc_dnn_true_airplane_35_n02690373_9531.png
swag_vit_h14_in1k,1,388,NaN,bottle,bottle,true,0388_fc_dnn_true_bottle_35_n04591713_5518.png
swag_vit_h14_in1k,1,389,NaN,airplane,airplane,false,0389_fc_dnn_false_airplane_35_n02690373_12896.png
swag_vit_h14_in1k,1,390,NaN,truck,truck,false,0390_fc_dnn_false_truck_35_n03796401_124.png
swag_vit_h14_in1k,1,391,NaN,bicycle,bicycle,true,0391_fc_dnn_true_bicycle_35_n03792782_7050.png
swag_vit_h14_in1k,1,392,NaN,bicycle,bicycle,true,0392_fc_dnn_true_bicycle_35_n02835271_13729.png
swag_vit_h14_in1k,1,393,NaN,bird,bird,false,0393_fc_dnn_false_bird_35_n02027492_3922.png
swag_vit_h14_in1k,1,394,NaN,elephant,elephant,true,0394_fc_dnn_true_elephant_35_n02504013_9809.png
swag_vit_h14_in1k,1,395,NaN,keyboard,keyboard,false,0395_fc_dnn_false_keyboard_35_n04505470_5086.png
swag_vit_h14_in1k,1,396,NaN,keyboard,keyboard,true,0396_fc_dnn_true_keyboard_35_n03085013_19439.png
swag_vit_h14_in1k,1,397,NaN,airplane,airplane,false,0397_fc_dnn_false_airplane_35_n02690373_9926.png
swag_vit_h14_in1k,1,398,NaN,elephant,elephant,true,0398_fc_dnn_true_elephant_35_n02504458_3197.png
swag_vit_h14_in1k,1,399,NaN,dog,dog,false,0399_fc_dnn_false_dog_35_n02110185_14056.png
swag_vit_h14_in1k,1,400,NaN,airplane,airplane,true,0400_fc_dnn_true_airplane_35_n02690373_2823.png
swag_vit_h14_in1k,1,401,NaN,bicycle,bicycle,false,0401_fc_dnn_false_bicycle_35_n02835271_14157.png
swag_vit_h14_in1k,1,402,NaN,chair,chair,true,0402_fc_dnn_true_chair_35_n03376595_606.png
swag_vit_h14_in1k,1,403,NaN,airplane,airplane,false,0403_fc_dnn_false_airplane_35_n02690373_1442.png
swag_vit_h14_in1k,1,404,NaN,keyboard,keyboard,true,0404_fc_dnn_true_keyboard_35_n04505470_10035.png
swag_vit_h14_in1k,1,405,NaN,bear,bear,true,0405_fc_dnn_true_bear_35_n02133161_13278.png
swag_vit_h14_in1k,1,406,NaN,bear,bear,true,0406_fc_dnn_true_bear_35_n02134418_2657.png
swag_vit_h14_in1k,1,407,NaN,bear,bear,false,0407_fc_dnn_false_bear_35_n02133161_12894.png
swag_vit_h14_in1k,1,408,NaN,clock,clock,false,0408_fc_dnn_false_clock_35_n03196217_6195.png
swag_vit_h14_in1k,1,409,NaN,bottle,bottle,true,0409_fc_dnn_true_bottle_35_n04591713_13349.png
swag_vit_h14_in1k,1,410,NaN,boat,boat,false,0410_fc_dnn_false_boat_35_n04273569_16295.png
swag_vit_h14_in1k,1,411,NaN,elephant,elephant,false,0411_fc_dnn_false_elephant_35_n02504013_2672.png
swag_vit_h14_in1k,1,412,NaN,bear,bear,true,0412_fc_dnn_true_bear_35_n02134084_22292.png
swag_vit_h14_in1k,1,413,NaN,airplane,airplane,false,0413_fc_dnn_false_airplane_35_n02690373_997.png
swag_vit_h14_in1k,1,414,NaN,knife,knife,true,0414_fc_dnn_true_knife_35_n03041632_29337.png
swag_vit_h14_in1k,1,415,NaN,elephant,elephant,true,0415_fc_dnn_true_elephant_35_n02504458_3261.png
swag_vit_h14_in1k,1,416,NaN,oven,oven,true,0416_fc_dnn_true_oven_35_n04111531_22120.png
swag_vit_h14_in1k,1,417,NaN,bear,bear,true,0417_fc_dnn_true_bear_35_n02134418_830.png
swag_vit_h14_in1k,1,418,NaN,truck,truck,false,0418_fc_dnn_false_truck_35_n03417042_2124.png
swag_vit_h14_in1k,1,419,NaN,bicycle,bicycle,false,0419_fc_dnn_false_bicycle_35_n02835271_14585.png
swag_vit_h14_in1k,1,420,NaN,oven,oven,true,0420_fc_dnn_true_oven_35_n04111531_2855.png
swag_vit_h14_in1k,1,421,NaN,cat,cat,false,0421_fc_dnn_false_cat_35_n02123394_4383.png
swag_vit_h14_in1k,1,422,NaN,cat,cat,true,0422_fc_dnn_true_cat_35_n02125311_17068.png
swag_vit_h14_in1k,1,423,NaN,bird,bird,false,0423_fc_dnn_false_bird_35_n01560419_2291.png
swag_vit_h14_in1k,1,424,NaN,bird,bird,false,0424_fc_dnn_false_bird_35_n01829413_2459.png
swag_vit_h14_in1k,1,425,NaN,oven,oven,true,0425_fc_dnn_true_oven_35_n04111531_13822.png
swag_vit_h14_in1k,1,426,NaN,bear,bear,false,0426_fc_dnn_false_bear_35_n02133161_5067.png
swag_vit_h14_in1k,1,427,NaN,chair,chair,false,0427_fc_dnn_false_chair_35_n02791124_885.png
swag_vit_h14_in1k,1,428,NaN,dog,dog,true,0428_fc_dnn_true_dog_35_n02107312_7182.png
swag_vit_h14_in1k,1,429,NaN,truck,truck,true,0429_fc_dnn_true_truck_35_n04467665_13989.png
swag_vit_h14_in1k,1,430,NaN,dog,dog,true,0430_fc_dnn_true_dog_35_n02102480_10232.png
swag_vit_h14_in1k,1,431,NaN,oven,oven,false,0431_fc_dnn_false_oven_35_n04111531_643.png
swag_vit_h14_in1k,1,432,NaN,boat,boat,true,0432_fc_dnn_true_boat_35_n02951358_31514.png
swag_vit_h14_in1k,1,433,NaN,oven,oven,true,0433_fc_dnn_true_oven_35_n04111531_1898.png
swag_vit_h14_in1k,1,434,NaN,car,car,true,0434_fc_dnn_true_car_35_n03100240_5865.png
swag_vit_h14_in1k,1,435,NaN,keyboard,keyboard,true,0435_fc_dnn_true_keyboard_35_n04505470_4369.png
swag_vit_h14_in1k,1,436,NaN,cat,cat,false,0436_fc_dnn_false_cat_35_n02123394_1942.png
swag_vit_h14_in1k,1,437,NaN,car,car,true,0437_fc_dnn_true_car_35_n04285008_2900.png
swag_vit_h14_in1k,1,438,NaN,airplane,airplane,true,0438_fc_dnn_true_airplane_35_n02690373_10926.png
swag_vit_h14_in1k,1,439,NaN,knife,knife,true,0439_fc_dnn_true_knife_35_n03041632_11613.png
swag_vit_h14_in1k,1,440,NaN,knife,knife,true,0440_fc_dnn_true_knife_35_n03041632_24817.png
swag_vit_h14_in1k,1,441,NaN,bicycle,bicycle,true,0441_fc_dnn_true_bicycle_35_n02835271_3042.png
swag_vit_h14_in1k,1,442,NaN,dog,dog,true,0442_fc_dnn_true_dog_35_n02102177_7737.png
swag_vit_h14_in1k,1,443,NaN,oven,oven,true,0443_fc_dnn_true_oven_35_n04111531_21460.png
swag_vit_h14_in1k,1,444,NaN,keyboard,keyboard,false,0444_fc_dnn_false_keyboard_35_n04505470_7388.png
swag_vit_h14_in1k,1,445,NaN,bird,bird,true,0445_fc_dnn_true_bird_35_n01828970_25642.png
swag_vit_h14_in1k,1,446,NaN,bicycle,bicycle,false,0446_fc_dnn_false_bicycle_35_n02835271_608.png
swag_vit_h14_in1k,1,447,NaN,boat,boat,true,0447_fc_dnn_true_boat_35_n04273569_26182.png
swag_vit_h14_in1k,1,448,NaN,cat,cat,false,0448_fc_dnn_false_cat_35_n02123045_9384.png
swag_vit_h14_in1k,1,449,NaN,airplane,airplane,true,0449_fc_dnn_true_airplane_35_n02690373_9529.png
swag_vit_h14_in1k,1,450,NaN,cat,cat,true,0450_fc_dnn_true_cat_35_n02123597_5081.png
swag_vit_h14_in1k,1,451,NaN,oven,oven,false,0451_fc_dnn_false_oven_35_n04111531_4998.png
swag_vit_h14_in1k,1,452,NaN,clock,clock,true,0452_fc_dnn_true_clock_35_n04548280_1245.png
swag_vit_h14_in1k,1,453,NaN,dog,dog,true,0453_fc_dnn_true_dog_35_n02104365_8609.png
swag_vit_h14_in1k,1,454,NaN,clock,clock,false,0454_fc_dnn_false_clock_35_n02708093_6414.png
swag_vit_h14_in1k,1,455,NaN,bird,bird,true,0455_fc_dnn_true_bird_35_n01798484_9155.png
swag_vit_h14_in1k,1,456,NaN,oven,oven,true,0456_fc_dnn_true_oven_35_n04111531_10724.png
swag_vit_h14_in1k,1,457,NaN,boat,boat,true,0457_fc_dnn_true_boat_35_n02951358_32687.png
swag_vit_h14_in1k,1,458,NaN,bicycle,bicycle,true,0458_fc_dnn_true_bicycle_35_n02835271_31.png
swag_vit_h14_in1k,1,459,NaN,bottle,bottle,true,0459_fc_dnn_true_bottle_35_n04557648_4420.png
swag_vit_h14_in1k,1,460,NaN,bear,bear,true,0460_fc_dnn_true_bear_35_n02133161_713.png
swag_vit_h14_in1k,1,461,NaN,airplane,airplane,false,0461_fc_dnn_false_airplane_35_n02690373_5967.png
swag_vit_h14_in1k,1,462,NaN,bird,bird,true,0462_fc_dnn_true_bird_35_n01795545_4502.png
swag_vit_h14_in1k,1,463,NaN,cat,cat,true,0463_fc_dnn_true_cat_35_n02124075_11466.png
swag_vit_h14_in1k,1,464,NaN,keyboard,keyboard,true,0464_fc_dnn_true_keyboard_35_n03085013_21769.png
swag_vit_h14_in1k,1,465,NaN,car,car,false,0465_fc_dnn_false_car_35_n03100240_15097.png
swag_vit_h14_in1k,1,466,NaN,dog,dog,false,0466_fc_dnn_false_dog_35_n02093647_3072.png
swag_vit_h14_in1k,1,467,NaN,bicycle,bicycle,false,0467_fc_dnn_false_bicycle_35_n02835271_12701.png
swag_vit_h14_in1k,1,468,NaN,bear,bear,false,0468_fc_dnn_false_bear_35_n02134084_3227.png
swag_vit_h14_in1k,1,469,NaN,cat,cat,true,0469_fc_dnn_true_cat_35_n02123394_5001.png
swag_vit_h14_in1k,1,470,NaN,keyboard,keyboard,true,0470_fc_dnn_true_keyboard_35_n03085013_6862.png
swag_vit_h14_in1k,1,471,NaN,chair,chair,true,0471_fc_dnn_true_chair_35_n04099969_45461.png
swag_vit_h14_in1k,1,472,NaN,bicycle,bicycle,false,0472_fc_dnn_false_bicycle_35_n03792782_485.png
swag_vit_h14_in1k,1,473,NaN,oven,oven,true,0473_fc_dnn_true_oven_35_n04111531_1674.png
swag_vit_h14_in1k,1,474,NaN,airplane,airplane,true,0474_fc_dnn_true_airplane_35_n02690373_866.png
swag_vit_h14_in1k,1,475,NaN,oven,oven,false,0475_fc_dnn_false_oven_35_n04111531_9297.png
swag_vit_h14_in1k,1,476,NaN,elephant,elephant,false,0476_fc_dnn_false_elephant_35_n02504458_6878.png
swag_vit_h14_in1k,1,477,NaN,car,car,true,0477_fc_dnn_true_car_35_n03100240_3151.png
swag_vit_h14_in1k,1,478,NaN,airplane,airplane,false,0478_fc_dnn_false_airplane_35_n02690373_6363.png
swag_vit_h14_in1k,1,479,NaN,car,car,true,0479_fc_dnn_true_car_35_n04285008_15049.png
swag_vit_h14_in1k,1,480,NaN,truck,truck,true,0480_fc_dnn_true_truck_35_n04467665_2505.png
swag_vit_h14_in1k,1,481,NaN,knife,bottle,true,0481_fc_dnn_true_bottle_35_n04591713_4030.png
swag_vit_h14_in1k,1,482,NaN,oven,oven,true,0482_fc_dnn_true_oven_35_n04111531_12929.png
swag_vit_h14_in1k,1,483,NaN,cat,cat,true,0483_fc_dnn_true_cat_35_n02125311_53315.png
swag_vit_h14_in1k,1,484,NaN,dog,dog,true,0484_fc_dnn_true_dog_35_n02087046_4409.png
swag_vit_h14_in1k,1,485,NaN,oven,oven,false,0485_fc_dnn_false_oven_35_n04111531_21120.png
swag_vit_h14_in1k,1,486,NaN,elephant,elephant,false,0486_fc_dnn_false_elephant_35_n02504013_5934.png
swag_vit_h14_in1k,1,487,NaN,car,car,true,0487_fc_dnn_true_car_35_n04285008_3631.png
swag_vit_h14_in1k,1,488,NaN,clock,clock,true,0488_fc_dnn_true_clock_35_n03196217_7663.png
swag_vit_h14_in1k,1,489,NaN,bicycle,bicycle,false,0489_fc_dnn_false_bicycle_35_n03792782_801.png
swag_vit_h14_in1k,1,490,NaN,bear,bear,false,0490_fc_dnn_false_bear_35_n02133161_6983.png
swag_vit_h14_in1k,1,491,NaN,keyboard,keyboard,true,0491_fc_dnn_true_keyboard_35_n03085013_20825.png
swag_vit_h14_in1k,1,492,NaN,clock,clock,true,0492_fc_dnn_true_clock_35_n03196217_1219.png
swag_vit_h14_in1k,1,493,NaN,airplane,airplane,true,0493_fc_dnn_true_airplane_35_n02690373_18864.png
swag_vit_h14_in1k,1,494,NaN,airplane,airplane,false,0494_fc_dnn_false_airplane_35_n02690373_1019.png
swag_vit_h14_in1k,1,495,NaN,bird,bird,true,0495_fc_dnn_true_bird_35_n02013706_10478.png
swag_vit_h14_in1k,1,496,NaN,bear,bear,true,0496_fc_dnn_true_bear_35_n02132136_258.png
swag_vit_h14_in1k,1,497,NaN,chair,chair,false,0497_fc_dnn_false_chair_35_n04099969_16350.png
swag_vit_h14_in1k,1,498,NaN,chair,chair,true,0498_fc_dnn_true_chair_35_n04099969_16456.png
swag_vit_h14_in1k,1,499,NaN,bottle,bottle,false,0499_fc_dnn_false_bottle_35_n03983396_12027.png
swag_vit_h14_in1k,1,500,NaN,chair,chair,true,0500_fc_dnn_true_chair_35_n02791124_5438.png
swag_vit_h14_in1k,1,501,NaN,elephant,elephant,true,0501_fc_dnn_true_elephant_35_n02504458_4939.png
swag_vit_h14_in1k,1,502,NaN,keyboard,keyboard,false,0502_fc_dnn_false_keyboard_35_n04505470_2600.png
swag_vit_h14_in1k,1,503,NaN,chair,chair,true,0503_fc_dnn_true_chair_35_n03376595_7394.png
swag_vit_h14_in1k,1,504,NaN,bicycle,bicycle,false,0504_fc_dnn_false_bicycle_35_n02835271_9772.png
swag_vit_h14_in1k,1,505,NaN,car,car,true,0505_fc_dnn_true_car_35_n02814533_55937.png
swag_vit_h14_in1k,1,506,NaN,airplane,airplane,true,0506_fc_dnn_true_airplane_35_n02690373_3920.png
swag_vit_h14_in1k,1,507,NaN,oven,oven,false,0507_fc_dnn_false_oven_35_n04111531_6400.png
swag_vit_h14_in1k,1,508,NaN,truck,truck,false,0508_fc_dnn_false_truck_35_n03417042_4587.png
swag_vit_h14_in1k,1,509,NaN,knife,knife,true,0509_fc_dnn_true_knife_35_n03041632_31849.png
swag_vit_h14_in1k,1,510,NaN,cat,cat,true,0510_fc_dnn_true_cat_35_n02125311_8541.png
swag_vit_h14_in1k,1,511,NaN,airplane,airplane,true,0511_fc_dnn_true_airplane_35_n02690373_2162.png
swag_vit_h14_in1k,1,512,NaN,dog,dog,true,0512_fc_dnn_true_dog_35_n02108551_11297.png
swag_vit_h14_in1k,1,513,NaN,car,car,true,0513_fc_dnn_true_car_35_n02814533_34396.png
swag_vit_h14_in1k,1,514,NaN,elephant,elephant,true,0514_fc_dnn_true_elephant_35_n02504013_6431.png
swag_vit_h14_in1k,1,515,NaN,bicycle,bicycle,false,0515_fc_dnn_false_bicycle_35_n03792782_51723.png
swag_vit_h14_in1k,1,516,NaN,dog,dog,false,0516_fc_dnn_false_dog_35_n02093754_5867.png
swag_vit_h14_in1k,1,517,NaN,clock,clock,true,0517_fc_dnn_true_clock_35_n04548280_3245.png
swag_vit_h14_in1k,1,518,NaN,airplane,airplane,true,0518_fc_dnn_true_airplane_35_n02690373_9762.png
swag_vit_h14_in1k,1,519,NaN,bird,bird,true,0519_fc_dnn_true_bird_35_n02002724_2909.png
swag_vit_h14_in1k,1,520,NaN,bottle,bottle,true,0520_fc_dnn_true_bottle_35_n04557648_10123.png
swag_vit_h14_in1k,1,521,NaN,elephant,elephant,true,0521_fc_dnn_true_elephant_35_n02504013_5432.png
swag_vit_h14_in1k,1,522,NaN,cat,cat,false,0522_fc_dnn_false_cat_35_n02123597_4998.png
swag_vit_h14_in1k,1,523,NaN,bottle,bottle,true,0523_fc_dnn_true_bottle_35_n04557648_11594.png
swag_vit_h14_in1k,1,524,NaN,clock,clock,false,0524_fc_dnn_false_clock_35_n03196217_2567.png
swag_vit_h14_in1k,1,525,NaN,truck,truck,false,0525_fc_dnn_false_truck_35_n03796401_9136.png
swag_vit_h14_in1k,1,526,NaN,boat,boat,false,0526_fc_dnn_false_boat_35_n03344393_8492.png
swag_vit_h14_in1k,1,527,NaN,cat,cat,false,0527_fc_dnn_false_cat_35_n02123159_8267.png
swag_vit_h14_in1k,1,528,NaN,bottle,bottle,false,0528_fc_dnn_false_bottle_35_n04557648_12039.png
swag_vit_h14_in1k,1,529,NaN,keyboard,keyboard,false,0529_fc_dnn_false_keyboard_35_n04505470_2828.png
swag_vit_h14_in1k,1,530,NaN,boat,boat,true,0530_fc_dnn_true_boat_35_n02951358_31198.png
swag_vit_h14_in1k,1,531,NaN,oven,oven,false,0531_fc_dnn_false_oven_35_n04111531_5801.png
swag_vit_h14_in1k,1,532,NaN,bicycle,bicycle,false,0532_fc_dnn_false_bicycle_35_n02835271_9672.png
swag_vit_h14_in1k,1,533,NaN,keyboard,keyboard,false,0533_fc_dnn_false_keyboard_35_n03085013_23865.png
swag_vit_h14_in1k,1,534,NaN,bottle,bottle,true,0534_fc_dnn_true_bottle_35_n04591713_7133.png
swag_vit_h14_in1k,1,535,NaN,car,car,true,0535_fc_dnn_true_car_35_n04285008_10006.png
swag_vit_h14_in1k,1,536,NaN,airplane,airplane,true,0536_fc_dnn_true_airplane_35_n02690373_2431.png
swag_vit_h14_in1k,1,537,NaN,boat,boat,true,0537_fc_dnn_true_boat_35_n04612504_15440.png
swag_vit_h14_in1k,1,538,NaN,bicycle,bicycle,true,0538_fc_dnn_true_bicycle_35_n02835271_5648.png
swag_vit_h14_in1k,1,539,NaN,airplane,airplane,false,0539_fc_dnn_false_airplane_35_n02690373_3173.png
swag_vit_h14_in1k,1,540,NaN,oven,oven,false,0540_fc_dnn_false_oven_35_n04111531_82.png
swag_vit_h14_in1k,1,541,NaN,chair,chair,false,0541_fc_dnn_false_chair_35_n02791124_2057.png
swag_vit_h14_in1k,1,542,NaN,elephant,elephant,true,0542_fc_dnn_true_elephant_35_n02504458_12175.png
swag_vit_h14_in1k,1,543,NaN,boat,boat,false,0543_fc_dnn_false_boat_35_n03344393_6869.png
swag_vit_h14_in1k,1,544,NaN,truck,truck,false,0544_fc_dnn_false_truck_35_n03417042_1000.png
swag_vit_h14_in1k,1,545,NaN,boat,boat,true,0545_fc_dnn_true_boat_35_n03344393_6890.png
swag_vit_h14_in1k,1,546,NaN,elephant,elephant,false,0546_fc_dnn_false_elephant_35_n02504458_4139.png
swag_vit_h14_in1k,1,547,NaN,bear,bear,false,0547_fc_dnn_false_bear_35_n02132136_7231.png
swag_vit_h14_in1k,1,548,NaN,bird,bird,false,0548_fc_dnn_false_bird_35_n01860187_1815.png
swag_vit_h14_in1k,1,549,NaN,keyboard,keyboard,true,0549_fc_dnn_true_keyboard_35_n03085013_18891.png
swag_vit_h14_in1k,1,550,NaN,bird,bird,false,0550_fc_dnn_false_bird_35_n01828970_2276.png
swag_vit_h14_in1k,1,551,NaN,elephant,elephant,false,0551_fc_dnn_false_elephant_35_n02504013_1720.png
swag_vit_h14_in1k,1,552,NaN,knife,knife,false,0552_fc_dnn_false_knife_35_n03041632_16104.png
swag_vit_h14_in1k,1,553,NaN,chair,chair,false,0553_fc_dnn_false_chair_35_n03376595_635.png
swag_vit_h14_in1k,1,554,NaN,bottle,bottle,true,0554_fc_dnn_true_bottle_35_n03983396_6116.png
swag_vit_h14_in1k,1,555,NaN,dog,dog,true,0555_fc_dnn_true_dog_35_n02113624_2530.png
swag_vit_h14_in1k,1,556,NaN,bird,bird,true,0556_fc_dnn_true_bird_35_n01592084_3972.png
swag_vit_h14_in1k,1,557,NaN,airplane,airplane,true,0557_fc_dnn_true_airplane_35_n02690373_5130.png
swag_vit_h14_in1k,1,558,NaN,bird,bird,true,0558_fc_dnn_true_bird_35_n01833805_7514.png
swag_vit_h14_in1k,1,559,NaN,truck,truck,false,0559_fc_dnn_false_truck_35_n03417042_16238.png
swag_vit_h14_in1k,1,560,NaN,keyboard,keyboard,true,0560_fc_dnn_true_keyboard_35_n04505470_8620.png
swag_vit_h14_in1k,1,561,NaN,clock,clock,true,0561_fc_dnn_true_clock_35_n03196217_7888.png
swag_vit_h14_in1k,1,562,NaN,keyboard,bottle,true,0562_fc_dnn_true_bottle_35_n04591713_5411.png
swag_vit_h14_in1k,1,563,NaN,clock,clock,false,0563_fc_dnn_false_clock_35_n03196217_2639.png
swag_vit_h14_in1k,1,564,NaN,elephant,elephant,true,0564_fc_dnn_true_elephant_35_n02504458_6437.png
swag_vit_h14_in1k,1,565,NaN,truck,truck,true,0565_fc_dnn_true_truck_35_n03417042_27586.png
swag_vit_h14_in1k,1,566,NaN,keyboard,keyboard,false,0566_fc_dnn_false_keyboard_35_n03085013_24124.png
swag_vit_h14_in1k,1,567,NaN,cat,cat,false,0567_fc_dnn_false_cat_35_n02123597_9663.png
swag_vit_h14_in1k,1,568,NaN,keyboard,keyboard,true,0568_fc_dnn_true_keyboard_35_n04505470_1833.png
swag_vit_h14_in1k,1,569,NaN,car,car,true,0569_fc_dnn_true_car_35_n04285008_4109.png
swag_vit_h14_in1k,1,570,NaN,bird,bird,false,0570_fc_dnn_false_bird_35_n01558993_869.png
swag_vit_h14_in1k,1,571,NaN,truck,truck,true,0571_fc_dnn_true_truck_35_n03796401_6980.png
swag_vit_h14_in1k,1,572,NaN,truck,truck,true,0572_fc_dnn_true_truck_35_n03796401_19058.png
swag_vit_h14_in1k,1,573,NaN,bear,bear,false,0573_fc_dnn_false_bear_35_n02134418_5033.png
swag_vit_h14_in1k,1,574,NaN,truck,truck,false,0574_fc_dnn_false_truck_35_n03417042_6204.png
swag_vit_h14_in1k,1,575,NaN,bicycle,bicycle,true,0575_fc_dnn_true_bicycle_35_n03792782_7388.png
swag_vit_h14_in1k,1,576,NaN,truck,truck,true,0576_fc_dnn_true_truck_35_n03417042_1561.png
swag_vit_h14_in1k,1,577,NaN,elephant,elephant,true,0577_fc_dnn_true_elephant_35_n02504458_5501.png
swag_vit_h14_in1k,1,578,NaN,boat,boat,true,0578_fc_dnn_true_boat_35_n03662601_34124.png
swag_vit_h14_in1k,1,579,NaN,knife,knife,false,0579_fc_dnn_false_knife_35_n03041632_37949.png
swag_vit_h14_in1k,1,580,NaN,airplane,airplane,false,0580_fc_dnn_false_airplane_35_n02690373_13585.png
swag_vit_h14_in1k,1,581,NaN,knife,knife,false,0581_fc_dnn_false_knife_35_n03041632_16932.png
swag_vit_h14_in1k,1,582,NaN,chair,chair,false,0582_fc_dnn_false_chair_35_n04429376_9501.png
swag_vit_h14_in1k,1,583,NaN,bird,bird,false,0583_fc_dnn_false_bird_35_n01532829_10530.png
swag_vit_h14_in1k,1,584,NaN,oven,oven,false,0584_fc_dnn_false_oven_35_n04111531_1562.png
swag_vit_h14_in1k,1,585,NaN,clock,clock,false,0585_fc_dnn_false_clock_35_n02708093_260.png
swag_vit_h14_in1k,1,586,NaN,bottle,bottle,true,0586_fc_dnn_true_bottle_35_n04579145_1457.png
swag_vit_h14_in1k,1,587,NaN,chair,chair,true,0587_fc_dnn_true_chair_35_n03376595_9897.png
swag_vit_h14_in1k,1,588,NaN,bird,bird,true,0588_fc_dnn_true_bird_35_n01601694_4224.png
swag_vit_h14_in1k,1,589,NaN,cat,cat,false,0589_fc_dnn_false_cat_35_n02123159_358.png
swag_vit_h14_in1k,1,590,NaN,bottle,bottle,true,0590_fc_dnn_true_bottle_35_n03983396_11788.png
swag_vit_h14_in1k,1,591,NaN,cat,cat,true,0591_fc_dnn_true_cat_35_n02124075_8341.png
swag_vit_h14_in1k,1,592,NaN,dog,dog,false,0592_fc_dnn_false_dog_35_n02109525_49924.png
swag_vit_h14_in1k,1,593,NaN,oven,oven,false,0593_fc_dnn_false_oven_35_n04111531_797.png
swag_vit_h14_in1k,1,594,NaN,bicycle,bicycle,true,0594_fc_dnn_true_bicycle_35_n02835271_15930.png
swag_vit_h14_in1k,1,595,NaN,knife,knife,true,0595_fc_dnn_true_knife_35_n03041632_13656.png
swag_vit_h14_in1k,1,596,NaN,clock,clock,false,0596_fc_dnn_false_clock_35_n02708093_8104.png
swag_vit_h14_in1k,1,597,NaN,truck,truck,true,0597_fc_dnn_true_truck_35_n03796401_3148.png
swag_vit_h14_in1k,1,598,NaN,bottle,bottle,false,0598_fc_dnn_false_bottle_35_n04560804_15263.png
swag_vit_h14_in1k,1,599,NaN,airplane,airplane,true,0599_fc_dnn_true_airplane_35_n02690373_5003.png
swag_vit_h14_in1k,1,600,NaN,boat,boat,false,0600_fc_dnn_false_boat_35_n03344393_994.png
swag_vit_h14_in1k,1,601,NaN,bicycle,bicycle,true,0601_fc_dnn_true_bicycle_35_n03792782_5959.png
swag_vit_h14_in1k,1,602,NaN,car,car,false,0602_fc_dnn_false_car_35_n04285008_9383.png
swag_vit_h14_in1k,1,603,NaN,clock,clock,true,0603_fc_dnn_true_clock_35_n03196217_5627.png
swag_vit_h14_in1k,1,604,NaN,bird,bird,true,0604_fc_dnn_true_bird_35_n01534433_13846.png
swag_vit_h14_in1k,1,605,NaN,dog,dog,true,0605_fc_dnn_true_dog_35_n02105056_11269.png
swag_vit_h14_in1k,1,606,NaN,airplane,airplane,false,0606_fc_dnn_false_airplane_35_n02690373_9659.png
swag_vit_h14_in1k,1,607,NaN,car,car,false,0607_fc_dnn_false_car_35_n04285008_3269.png
swag_vit_h14_in1k,1,608,NaN,bottle,bottle,true,0608_fc_dnn_true_bottle_35_n02823428_3178.png
swag_vit_h14_in1k,1,609,NaN,elephant,elephant,false,0609_fc_dnn_false_elephant_35_n02504458_4849.png
swag_vit_h14_in1k,1,610,NaN,bear,bear,true,0610_fc_dnn_true_bear_35_n02134418_643.png
swag_vit_h14_in1k,1,611,NaN,boat,boat,true,0611_fc_dnn_true_boat_35_n03344393_7773.png
swag_vit_h14_in1k,1,612,NaN,car,car,true,0612_fc_dnn_true_car_35_n02814533_26516.png
swag_vit_h14_in1k,1,613,NaN,cat,cat,false,0613_fc_dnn_false_cat_35_n02123597_3314.png
swag_vit_h14_in1k,1,614,NaN,bicycle,bicycle,true,0614_fc_dnn_true_bicycle_35_n02835271_6539.png
swag_vit_h14_in1k,1,615,NaN,bear,bear,true,0615_fc_dnn_true_bear_35_n02132136_3090.png
swag_vit_h14_in1k,1,616,NaN,car,car,true,0616_fc_dnn_true_car_35_n03100240_9171.png
swag_vit_h14_in1k,1,617,NaN,cat,cat,false,0617_fc_dnn_false_cat_35_n02123045_12060.png
swag_vit_h14_in1k,1,618,NaN,truck,truck,false,0618_fc_dnn_false_truck_35_n03796401_26801.png
swag_vit_h14_in1k,1,619,NaN,cat,cat,false,0619_fc_dnn_false_cat_35_n02123045_15010.png
swag_vit_h14_in1k,1,620,NaN,knife,knife,true,0620_fc_dnn_true_knife_35_n03041632_24883.png
swag_vit_h14_in1k,1,621,NaN,cat,cat,true,0621_fc_dnn_true_cat_35_n02123597_4040.png
swag_vit_h14_in1k,1,622,NaN,bird,bird,true,0622_fc_dnn_true_bird_35_n01843383_3019.png
swag_vit_h14_in1k,1,623,NaN,bear,bear,true,0623_fc_dnn_true_bear_35_n02132136_8619.png
swag_vit_h14_in1k,1,624,NaN,airplane,airplane,false,0624_fc_dnn_false_airplane_35_n02690373_1912.png
swag_vit_h14_in1k,1,625,NaN,truck,truck,true,0625_fc_dnn_true_truck_35_n03417042_22828.png
swag_vit_h14_in1k,1,626,NaN,car,car,true,0626_fc_dnn_true_car_35_n03100240_2909.png
swag_vit_h14_in1k,1,627,NaN,oven,oven,true,0627_fc_dnn_true_oven_35_n04111531_22563.png
swag_vit_h14_in1k,1,628,NaN,truck,truck,false,0628_fc_dnn_false_truck_35_n03796401_18074.png
swag_vit_h14_in1k,1,629,NaN,cat,cat,true,0629_fc_dnn_true_cat_35_n02123159_3092.png
swag_vit_h14_in1k,1,630,NaN,bird,bird,false,0630_fc_dnn_false_bird_35_n02009912_5983.png
swag_vit_h14_in1k,1,631,NaN,keyboard,keyboard,true,0631_fc_dnn_true_keyboard_35_n03085013_19916.png
swag_vit_h14_in1k,1,632,NaN,bottle,bottle,false,0632_fc_dnn_false_bottle_35_n04591713_4035.png
swag_vit_h14_in1k,1,633,NaN,chair,chair,false,0633_fc_dnn_false_chair_35_n04099969_6189.png
swag_vit_h14_in1k,1,634,NaN,oven,oven,true,0634_fc_dnn_true_oven_35_n04111531_7064.png
swag_vit_h14_in1k,1,635,NaN,boat,boat,false,0635_fc_dnn_false_boat_35_n03344393_595.png
swag_vit_h14_in1k,1,636,NaN,elephant,elephant,true,0636_fc_dnn_true_elephant_35_n02504458_3099.png
swag_vit_h14_in1k,1,637,NaN,chair,chair,false,0637_fc_dnn_false_chair_35_n04429376_19617.png
swag_vit_h14_in1k,1,638,NaN,knife,knife,false,0638_fc_dnn_false_knife_35_n03041632_51766.png
swag_vit_h14_in1k,1,639,NaN,bear,bear,true,0639_fc_dnn_true_bear_35_n02133161_1571.png
swag_vit_h14_in1k,1,640,NaN,bear,bear,false,0640_fc_dnn_false_bear_35_n02132136_8525.png
swag_vit_h14_in1k,1,641,NaN,bird,bird,true,0641_fc_dnn_true_bird_35_n01560419_9124.png
swag_vit_h14_in1k,1,642,NaN,car,car,false,0642_fc_dnn_false_car_35_n02814533_2555.png
swag_vit_h14_in1k,1,643,NaN,cat,cat,false,0643_fc_dnn_false_cat_35_n02125311_31100.png
swag_vit_h14_in1k,1,644,NaN,car,car,true,0644_fc_dnn_true_car_35_n02814533_46508.png
swag_vit_h14_in1k,1,645,NaN,bicycle,bicycle,true,0645_fc_dnn_true_bicycle_35_n03792782_51156.png
swag_vit_h14_in1k,1,646,NaN,elephant,elephant,false,0646_fc_dnn_false_elephant_35_n02504013_637.png
swag_vit_h14_in1k,1,647,NaN,clock,clock,false,0647_fc_dnn_false_clock_35_n04548280_7321.png
swag_vit_h14_in1k,1,648,NaN,airplane,airplane,true,0648_fc_dnn_true_airplane_35_n02690373_2447.png
swag_vit_h14_in1k,1,649,NaN,elephant,elephant,false,0649_fc_dnn_false_elephant_35_n02504458_477.png
swag_vit_h14_in1k,1,650,NaN,bottle,bottle,false,0650_fc_dnn_false_bottle_35_n04557648_2063.png
swag_vit_h14_in1k,1,651,NaN,chair,chair,true,0651_fc_dnn_true_chair_35_n04099969_14155.png
swag_vit_h14_in1k,1,652,NaN,bear,bear,false,0652_fc_dnn_false_bear_35_n02134084_21407.png
swag_vit_h14_in1k,1,653,NaN,boat,boat,false,0653_fc_dnn_false_boat_35_n03662601_4418.png
swag_vit_h14_in1k,1,654,NaN,car,car,true,0654_fc_dnn_true_car_35_n03100240_9497.png
swag_vit_h14_in1k,1,655,NaN,airplane,airplane,false,0655_fc_dnn_false_airplane_35_n02690373_4199.png
swag_vit_h14_in1k,1,656,NaN,boat,boat,false,0656_fc_dnn_false_boat_35_n03662601_4612.png
swag_vit_h14_in1k,1,657,NaN,bicycle,bicycle,true,0657_fc_dnn_true_bicycle_35_n02835271_9531.png
swag_vit_h14_in1k,1,658,NaN,bird,bird,false,0658_fc_dnn_false_bird_35_n02037110_21381.png
swag_vit_h14_in1k,1,659,NaN,bottle,bottle,false,0659_fc_dnn_false_bottle_35_n04560804_6576.png
swag_vit_h14_in1k,1,660,NaN,bottle,bottle,false,0660_fc_dnn_false_bottle_35_n02823428_4358.png
swag_vit_h14_in1k,1,661,NaN,bottle,bottle,false,0661_fc_dnn_false_bottle_35_n04579145_961.png
swag_vit_h14_in1k,1,662,NaN,car,car,true,0662_fc_dnn_true_car_35_n02814533_58462.png
swag_vit_h14_in1k,1,663,NaN,bird,bird,false,0663_fc_dnn_false_bird_35_n01796340_4643.png
swag_vit_h14_in1k,1,664,NaN,dog,dog,false,0664_fc_dnn_false_dog_35_n02091134_7695.png
swag_vit_h14_in1k,1,665,NaN,dog,dog,false,0665_fc_dnn_false_dog_35_n02097209_1133.png
swag_vit_h14_in1k,1,666,NaN,elephant,elephant,true,0666_fc_dnn_true_elephant_35_n02504458_4861.png
swag_vit_h14_in1k,1,667,NaN,dog,dog,false,0667_fc_dnn_false_dog_35_n02110806_3673.png
swag_vit_h14_in1k,1,668,NaN,car,car,false,0668_fc_dnn_false_car_35_n04285008_863.png
swag_vit_h14_in1k,1,669,NaN,bicycle,bicycle,false,0669_fc_dnn_false_bicycle_35_n03792782_52427.png
swag_vit_h14_in1k,1,670,NaN,keyboard,keyboard,true,0670_fc_dnn_true_keyboard_35_n03085013_22796.png
swag_vit_h14_in1k,1,671,NaN,bottle,bottle,false,0671_fc_dnn_false_bottle_35_n03983396_22979.png
swag_vit_h14_in1k,1,672,NaN,dog,dog,true,0672_fc_dnn_true_dog_35_n02109047_4167.png
swag_vit_h14_in1k,1,673,NaN,bottle,bottle,true,0673_fc_dnn_true_bottle_35_n04560804_15843.png
swag_vit_h14_in1k,1,674,NaN,airplane,airplane,true,0674_fc_dnn_true_airplane_35_n02690373_3383.png
swag_vit_h14_in1k,1,675,NaN,truck,truck,true,0675_fc_dnn_true_truck_35_n03796401_7380.png
swag_vit_h14_in1k,1,676,NaN,clock,clock,true,0676_fc_dnn_true_clock_35_n03196217_11054.png
swag_vit_h14_in1k,1,677,NaN,airplane,airplane,true,0677_fc_dnn_true_airplane_35_n02690373_599.png
swag_vit_h14_in1k,1,678,NaN,chair,chair,true,0678_fc_dnn_true_chair_35_n04429376_2693.png
swag_vit_h14_in1k,1,679,NaN,clock,clock,false,0679_fc_dnn_false_clock_35_n02708093_5265.png
swag_vit_h14_in1k,1,680,NaN,knife,knife,true,0680_fc_dnn_true_knife_35_n03041632_48149.png
swag_vit_h14_in1k,1,681,NaN,dog,dog,true,0681_fc_dnn_true_dog_35_n02096585_9543.png
swag_vit_h14_in1k,1,682,NaN,boat,boat,false,0682_fc_dnn_false_boat_35_n04612504_20927.png
swag_vit_h14_in1k,1,683,NaN,oven,oven,false,0683_fc_dnn_false_oven_35_n04111531_2150.png
swag_vit_h14_in1k,1,684,NaN,bird,bird,false,0684_fc_dnn_false_bird_35_n01797886_12436.png
swag_vit_h14_in1k,1,685,NaN,truck,truck,false,0685_fc_dnn_false_truck_35_n04467665_197.png
swag_vit_h14_in1k,1,686,NaN,chair,chair,false,0686_fc_dnn_false_chair_35_n02791124_2091.png
swag_vit_h14_in1k,1,687,NaN,chair,chair,false,0687_fc_dnn_false_chair_35_n03376595_1810.png
swag_vit_h14_in1k,1,688,NaN,keyboard,keyboard,false,0688_fc_dnn_false_keyboard_35_n03085013_24439.png
swag_vit_h14_in1k,1,689,NaN,bottle,bottle,false,0689_fc_dnn_false_bottle_35_n03983396_18753.png
swag_vit_h14_in1k,1,690,NaN,clock,clock,false,0690_fc_dnn_false_clock_35_n02708093_2054.png
swag_vit_h14_in1k,1,691,NaN,bear,bear,true,0691_fc_dnn_true_bear_35_n02132136_7872.png
swag_vit_h14_in1k,1,692,NaN,elephant,elephant,true,0692_fc_dnn_true_elephant_35_n02504458_5144.png
swag_vit_h14_in1k,1,693,NaN,oven,oven,false,0693_fc_dnn_false_oven_35_n04111531_6500.png
swag_vit_h14_in1k,1,694,NaN,elephant,elephant,false,0694_fc_dnn_false_elephant_35_n02504458_209.png
swag_vit_h14_in1k,1,695,NaN,oven,oven,true,0695_fc_dnn_true_oven_35_n04111531_12769.png
swag_vit_h14_in1k,1,696,NaN,dog,dog,false,0696_fc_dnn_false_dog_35_n02107574_3387.png
swag_vit_h14_in1k,1,697,NaN,airplane,airplane,true,0697_fc_dnn_true_airplane_35_n02690373_4706.png
swag_vit_h14_in1k,1,698,NaN,dog,dog,false,0698_fc_dnn_false_dog_35_n02096585_9834.png
swag_vit_h14_in1k,1,699,NaN,chair,chair,true,0699_fc_dnn_true_chair_35_n04429376_29312.png
swag_vit_h14_in1k,1,700,NaN,elephant,elephant,false,0700_fc_dnn_false_elephant_35_n02504013_5774.png
swag_vit_h14_in1k,1,701,NaN,elephant,elephant,true,0701_fc_dnn_true_elephant_35_n02504458_5187.png
swag_vit_h14_in1k,1,702,NaN,oven,oven,true,0702_fc_dnn_true_oven_35_n04111531_12820.png
swag_vit_h14_in1k,1,703,NaN,truck,truck,false,0703_fc_dnn_false_truck_35_n04467665_11888.png
swag_vit_h14_in1k,1,704,NaN,truck,truck,true,0704_fc_dnn_true_truck_35_n03796401_3434.png
swag_vit_h14_in1k,1,705,NaN,elephant,elephant,false,0705_fc_dnn_false_elephant_35_n02504458_3491.png
swag_vit_h14_in1k,1,706,NaN,bear,bear,false,0706_fc_dnn_false_bear_35_n02134084_4677.png
swag_vit_h14_in1k,1,707,NaN,cat,cat,false,0707_fc_dnn_false_cat_35_n02125311_2401.png
swag_vit_h14_in1k,1,708,NaN,car,car,true,0708_fc_dnn_true_car_35_n04285008_16701.png
swag_vit_h14_in1k,1,709,NaN,bear,bear,true,0709_fc_dnn_true_bear_35_n02133161_10632.png
swag_vit_h14_in1k,1,710,NaN,bird,bird,true,0710_fc_dnn_true_bird_35_n01592084_6081.png
swag_vit_h14_in1k,1,711,NaN,bottle,bottle,false,0711_fc_dnn_false_bottle_35_n04560804_15832.png
swag_vit_h14_in1k,1,712,NaN,oven,oven,true,0712_fc_dnn_true_oven_35_n04111531_11116.png
swag_vit_h14_in1k,1,713,NaN,boat,boat,false,0713_fc_dnn_false_boat_35_n03662601_10811.png
swag_vit_h14_in1k,1,714,NaN,bottle,bottle,false,0714_fc_dnn_false_bottle_35_n03937543_211.png
swag_vit_h14_in1k,1,715,NaN,boat,boat,false,0715_fc_dnn_false_boat_35_n03344393_1595.png
swag_vit_h14_in1k,1,716,NaN,bicycle,bicycle,true,0716_fc_dnn_true_bicycle_35_n02835271_10293.png
swag_vit_h14_in1k,1,717,NaN,bear,cat,false,0717_fc_dnn_false_cat_35_n02123159_6170.png
swag_vit_h14_in1k,1,718,NaN,boat,boat,false,0718_fc_dnn_false_boat_35_n03662601_12323.png
swag_vit_h14_in1k,1,719,NaN,oven,oven,true,0719_fc_dnn_true_oven_35_n04111531_17809.png
swag_vit_h14_in1k,1,720,NaN,bear,bear,false,0720_fc_dnn_false_bear_35_n02134084_6783.png
swag_vit_h14_in1k,1,721,NaN,airplane,airplane,false,0721_fc_dnn_false_airplane_35_n02690373_2203.png
swag_vit_h14_in1k,1,722,NaN,knife,knife,false,0722_fc_dnn_false_knife_35_n03041632_38610.png
swag_vit_h14_in1k,1,723,NaN,bicycle,bicycle,true,0723_fc_dnn_true_bicycle_35_n03792782_634.png
swag_vit_h14_in1k,1,724,NaN,bicycle,bicycle,true,0724_fc_dnn_true_bicycle_35_n03792782_47426.png
swag_vit_h14_in1k,1,725,NaN,bird,bird,false,0725_fc_dnn_false_bird_35_n02013706_16546.png
swag_vit_h14_in1k,1,726,NaN,clock,clock,false,0726_fc_dnn_false_clock_35_n02708093_616.png
swag_vit_h14_in1k,1,727,NaN,bear,bear,true,0727_fc_dnn_true_bear_35_n02134418_9289.png
swag_vit_h14_in1k,1,728,NaN,boat,boat,false,0728_fc_dnn_false_boat_35_n02951358_5118.png
swag_vit_h14_in1k,1,729,NaN,clock,clock,false,0729_fc_dnn_false_clock_35_n04548280_2291.png
swag_vit_h14_in1k,1,730,NaN,bird,bird,true,0730_fc_dnn_true_bird_35_n01833805_1104.png
swag_vit_h14_in1k,1,731,NaN,bird,bird,false,0731_fc_dnn_false_bird_35_n01843383_12917.png
swag_vit_h14_in1k,1,732,NaN,knife,knife,true,0732_fc_dnn_true_knife_35_n03041632_30286.png
swag_vit_h14_in1k,1,733,NaN,clock,clock,true,0733_fc_dnn_true_clock_35_n04548280_12615.png
swag_vit_h14_in1k,1,734,NaN,knife,knife,true,0734_fc_dnn_true_knife_35_n03041632_22190.png
swag_vit_h14_in1k,1,735,NaN,boat,boat,true,0735_fc_dnn_true_boat_35_n04273569_11645.png
swag_vit_h14_in1k,1,736,NaN,keyboard,keyboard,false,0736_fc_dnn_false_keyboard_35_n04505470_8148.png
swag_vit_h14_in1k,1,737,NaN,bird,bird,true,0737_fc_dnn_true_bird_35_n02027492_4976.png
swag_vit_h14_in1k,1,738,NaN,chair,chair,true,0738_fc_dnn_true_chair_35_n04429376_7181.png
swag_vit_h14_in1k,1,739,NaN,car,car,false,0739_fc_dnn_false_car_35_n03100240_13908.png
swag_vit_h14_in1k,1,740,NaN,elephant,elephant,true,0740_fc_dnn_true_elephant_35_n02504013_3384.png
swag_vit_h14_in1k,1,741,NaN,knife,knife,false,0741_fc_dnn_false_knife_35_n03041632_38535.png
swag_vit_h14_in1k,1,742,NaN,airplane,airplane,false,0742_fc_dnn_false_airplane_35_n02690373_7375.png
swag_vit_h14_in1k,1,743,NaN,cat,cat,false,0743_fc_dnn_false_cat_35_n02123394_8507.png
swag_vit_h14_in1k,1,744,NaN,knife,knife,true,0744_fc_dnn_true_knife_35_n03041632_36390.png
swag_vit_h14_in1k,1,745,NaN,oven,oven,false,0745_fc_dnn_false_oven_35_n04111531_11794.png
swag_vit_h14_in1k,1,746,NaN,cat,cat,true,0746_fc_dnn_true_cat_35_n02123159_8144.png
swag_vit_h14_in1k,1,747,NaN,bird,bird,false,0747_fc_dnn_false_bird_35_n01558993_11093.png
swag_vit_h14_in1k,1,748,NaN,bicycle,bicycle,false,0748_fc_dnn_false_bicycle_35_n03792782_14966.png
swag_vit_h14_in1k,1,749,NaN,bear,bear,false,0749_fc_dnn_false_bear_35_n02133161_3191.png
swag_vit_h14_in1k,1,750,NaN,car,car,true,0750_fc_dnn_true_car_35_n02814533_56999.png
swag_vit_h14_in1k,1,751,NaN,bicycle,bicycle,false,0751_fc_dnn_false_bicycle_35_n03792782_70169.png
swag_vit_h14_in1k,1,752,NaN,bottle,bottle,true,0752_fc_dnn_true_bottle_35_n04557648_5458.png
swag_vit_h14_in1k,1,753,NaN,dog,dog,true,0753_fc_dnn_true_dog_35_n02090379_4918.png
swag_vit_h14_in1k,1,754,NaN,bicycle,bicycle,false,0754_fc_dnn_false_bicycle_35_n03792782_23334.png
swag_vit_h14_in1k,1,755,NaN,clock,clock,false,0755_fc_dnn_false_clock_35_n02708093_56.png
swag_vit_h14_in1k,1,756,NaN,knife,knife,false,0756_fc_dnn_false_knife_35_n03041632_54627.png
swag_vit_h14_in1k,1,757,NaN,keyboard,keyboard,true,0757_fc_dnn_true_keyboard_35_n03085013_24154.png
swag_vit_h14_in1k,1,758,NaN,clock,clock,true,0758_fc_dnn_true_clock_35_n03196217_5972.png
swag_vit_h14_in1k,1,759,NaN,cat,cat,false,0759_fc_dnn_false_cat_35_n02124075_6210.png
swag_vit_h14_in1k,1,760,NaN,airplane,airplane,false,0760_fc_dnn_false_airplane_35_n02690373_8770.png
swag_vit_h14_in1k,1,761,NaN,boat,boat,true,0761_fc_dnn_true_boat_35_n04612504_5093.png
swag_vit_h14_in1k,1,762,NaN,bicycle,bicycle,false,0762_fc_dnn_false_bicycle_35_n02835271_13404.png
swag_vit_h14_in1k,1,763,NaN,bottle,bottle,false,0763_fc_dnn_false_bottle_35_n04560804_915.png
swag_vit_h14_in1k,1,764,NaN,clock,clock,true,0764_fc_dnn_true_clock_35_n04548280_8942.png
swag_vit_h14_in1k,1,765,NaN,airplane,airplane,false,0765_fc_dnn_false_airplane_35_n02690373_5029.png
swag_vit_h14_in1k,1,766,NaN,bear,bear,true,0766_fc_dnn_true_bear_35_n02132136_8059.png
swag_vit_h14_in1k,1,767,NaN,oven,oven,false,0767_fc_dnn_false_oven_35_n04111531_4574.png
swag_vit_h14_in1k,1,768,NaN,car,car,true,0768_fc_dnn_true_car_35_n03100240_20935.png
swag_vit_h14_in1k,1,769,NaN,bottle,bottle,false,0769_fc_dnn_false_bottle_35_n03937543_2344.png
swag_vit_h14_in1k,1,770,NaN,bird,bird,true,0770_fc_dnn_true_bird_35_n01560419_2726.png
swag_vit_h14_in1k,1,771,NaN,cat,cat,true,0771_fc_dnn_true_cat_35_n02123159_1233.png
swag_vit_h14_in1k,1,772,NaN,chair,chair,true,0772_fc_dnn_true_chair_35_n04099969_38402.png
swag_vit_h14_in1k,1,773,NaN,boat,boat,true,0773_fc_dnn_true_boat_35_n04273569_4324.png
swag_vit_h14_in1k,1,774,NaN,keyboard,keyboard,false,0774_fc_dnn_false_keyboard_35_n03085013_16724.png
swag_vit_h14_in1k,1,775,NaN,oven,oven,true,0775_fc_dnn_true_oven_35_n04111531_7449.png
swag_vit_h14_in1k,1,776,NaN,clock,clock,true,0776_fc_dnn_true_clock_35_n02708093_3360.png
swag_vit_h14_in1k,1,777,NaN,cat,cat,false,0777_fc_dnn_false_cat_35_n02123597_13994.png
swag_vit_h14_in1k,1,778,NaN,bottle,bottle,true,0778_fc_dnn_true_bottle_35_n04591713_4291.png
swag_vit_h14_in1k,1,779,NaN,knife,knife,true,0779_fc_dnn_true_knife_35_n03041632_18748.png
swag_vit_h14_in1k,1,780,NaN,elephant,elephant,false,0780_fc_dnn_false_elephant_35_n02504458_9049.png
swag_vit_h14_in1k,1,781,NaN,bottle,bottle,true,0781_fc_dnn_true_bottle_35_n04579145_1705.png
swag_vit_h14_in1k,1,782,NaN,cat,cat,true,0782_fc_dnn_true_cat_35_n02123159_6087.png
swag_vit_h14_in1k,1,783,NaN,bear,bear,true,0783_fc_dnn_true_bear_35_n02134418_2435.png
swag_vit_h14_in1k,1,784,NaN,bird,bird,false,0784_fc_dnn_false_bird_35_n01592084_5925.png
swag_vit_h14_in1k,1,785,NaN,bird,bird,false,0785_fc_dnn_false_bird_35_n01560419_14207.png
swag_vit_h14_in1k,1,786,NaN,airplane,airplane,true,0786_fc_dnn_true_airplane_35_n02690373_10176.png
swag_vit_h14_in1k,1,787,NaN,cat,cat,false,0787_fc_dnn_false_cat_35_n02123159_6089.png
swag_vit_h14_in1k,1,788,NaN,bear,bear,false,0788_fc_dnn_false_bear_35_n02132136_451.png
swag_vit_h14_in1k,1,789,NaN,clock,clock,false,0789_fc_dnn_false_clock_35_n03196217_6999.png
swag_vit_h14_in1k,1,790,NaN,bottle,bottle,true,0790_fc_dnn_true_bottle_35_n04560804_5636.png
swag_vit_h14_in1k,1,791,NaN,bottle,bottle,true,0791_fc_dnn_true_bottle_35_n04591713_5702.png
swag_vit_h14_in1k,1,792,NaN,bear,bear,false,0792_fc_dnn_false_bear_35_n02133161_693.png
swag_vit_h14_in1k,1,793,NaN,truck,truck,false,0793_fc_dnn_false_truck_35_n03796401_19487.png
swag_vit_h14_in1k,1,794,NaN,knife,knife,true,0794_fc_dnn_true_knife_35_n03041632_17067.png
swag_vit_h14_in1k,1,795,NaN,keyboard,keyboard,true,0795_fc_dnn_true_keyboard_35_n03085013_26449.png
swag_vit_h14_in1k,1,796,NaN,elephant,elephant,true,0796_fc_dnn_true_elephant_35_n02504458_6435.png
swag_vit_h14_in1k,1,797,NaN,truck,truck,true,0797_fc_dnn_true_truck_35_n04467665_43410.png
swag_vit_h14_in1k,1,798,NaN,keyboard,keyboard,true,0798_fc_dnn_true_keyboard_35_n03085013_30335.png
swag_vit_h14_in1k,1,799,NaN,oven,oven,true,0799_fc_dnn_true_oven_35_n04111531_8553.png
swag_vit_h14_in1k,1,800,NaN,bicycle,bicycle,false,0800_fc_dnn_false_bicycle_35_n03792782_3069.png
swag_vit_h14_in1k,1,801,NaN,knife,knife,false,0801_fc_dnn_false_knife_35_n03041632_45636.png
swag_vit_h14_in1k,1,802,NaN,chair,chair,false,0802_fc_dnn_false_chair_35_n04099969_8961.png
swag_vit_h14_in1k,1,803,NaN,bird,bird,true,0803_fc_dnn_true_bird_35_n01582220_4924.png
swag_vit_h14_in1k,1,804,NaN,bear,bear,false,0804_fc_dnn_false_bear_35_n02134418_2438.png
swag_vit_h14_in1k,1,805,NaN,dog,dog,false,0805_fc_dnn_false_dog_35_n02105056_2046.png
swag_vit_h14_in1k,1,806,NaN,keyboard,keyboard,true,0806_fc_dnn_true_keyboard_35_n04505470_3234.png
swag_vit_h14_in1k,1,807,NaN,truck,truck,true,0807_fc_dnn_true_truck_35_n04467665_2246.png
swag_vit_h14_in1k,1,808,NaN,elephant,elephant,true,0808_fc_dnn_true_elephant_35_n02504458_12165.png
swag_vit_h14_in1k,1,809,NaN,bicycle,bicycle,false,0809_fc_dnn_false_bicycle_35_n02835271_18173.png
swag_vit_h14_in1k,1,810,NaN,dog,dog,true,0810_fc_dnn_true_dog_35_n02108551_262.png
swag_vit_h14_in1k,1,811,NaN,dog,dog,true,0811_fc_dnn_true_dog_35_n02096437_1018.png
swag_vit_h14_in1k,1,812,NaN,bird,bird,true,0812_fc_dnn_true_bird_35_n01530575_2039.png
swag_vit_h14_in1k,1,813,NaN,bottle,bottle,true,0813_fc_dnn_true_bottle_35_n02823428_5807.png
swag_vit_h14_in1k,1,814,NaN,truck,truck,false,0814_fc_dnn_false_truck_35_n03417042_8690.png
swag_vit_h14_in1k,1,815,NaN,elephant,elephant,false,0815_fc_dnn_false_elephant_35_n02504458_3881.png
swag_vit_h14_in1k,1,816,NaN,cat,cat,true,0816_fc_dnn_true_cat_35_n02123159_5467.png
swag_vit_h14_in1k,1,817,NaN,boat,boat,false,0817_fc_dnn_false_boat_35_n02951358_16040.png
swag_vit_h14_in1k,1,818,NaN,chair,chair,true,0818_fc_dnn_true_chair_35_n04429376_20873.png
swag_vit_h14_in1k,1,819,NaN,dog,dog,false,0819_fc_dnn_false_dog_35_n02092339_160.png
swag_vit_h14_in1k,1,820,NaN,keyboard,keyboard,false,0820_fc_dnn_false_keyboard_35_n03085013_24001.png
swag_vit_h14_in1k,1,821,NaN,chair,chair,false,0821_fc_dnn_false_chair_35_n04099969_20390.png
swag_vit_h14_in1k,1,822,NaN,clock,clock,false,0822_fc_dnn_false_clock_35_n02708093_1684.png
swag_vit_h14_in1k,1,823,NaN,elephant,elephant,false,0823_fc_dnn_false_elephant_35_n02504013_4023.png
swag_vit_h14_in1k,1,824,NaN,bottle,bottle,false,0824_fc_dnn_false_bottle_35_n02823428_14149.png
swag_vit_h14_in1k,1,825,NaN,clock,clock,true,0825_fc_dnn_true_clock_35_n03196217_3669.png
swag_vit_h14_in1k,1,826,NaN,keyboard,keyboard,false,0826_fc_dnn_false_keyboard_35_n03085013_20957.png
swag_vit_h14_in1k,1,827,NaN,airplane,airplane,false,0827_fc_dnn_false_airplane_35_n02690373_6524.png
swag_vit_h14_in1k,1,828,NaN,boat,boat,false,0828_fc_dnn_false_boat_35_n02951358_26227.png
swag_vit_h14_in1k,1,829,NaN,elephant,elephant,true,0829_fc_dnn_true_elephant_35_n02504458_3599.png
swag_vit_h14_in1k,1,830,NaN,knife,knife,false,0830_fc_dnn_false_knife_35_n03041632_36235.png
swag_vit_h14_in1k,1,831,NaN,clock,clock,true,0831_fc_dnn_true_clock_35_n04548280_5428.png
swag_vit_h14_in1k,1,832,NaN,knife,knife,false,0832_fc_dnn_false_knife_35_n03041632_92063.png
swag_vit_h14_in1k,1,833,NaN,elephant,elephant,true,0833_fc_dnn_true_elephant_35_n02504013_11033.png
swag_vit_h14_in1k,1,834,NaN,chair,chair,false,0834_fc_dnn_false_chair_35_n02791124_4547.png
swag_vit_h14_in1k,1,835,NaN,car,car,true,0835_fc_dnn_true_car_35_n04285008_9456.png
swag_vit_h14_in1k,1,836,NaN,boat,boat,false,0836_fc_dnn_false_boat_35_n02951358_461.png
swag_vit_h14_in1k,1,837,NaN,oven,oven,true,0837_fc_dnn_true_oven_35_n04111531_4116.png
swag_vit_h14_in1k,1,838,NaN,car,car,false,0838_fc_dnn_false_car_35_n03100240_6248.png
swag_vit_h14_in1k,1,839,NaN,dog,dog,true,0839_fc_dnn_true_dog_35_n02086646_6849.png
swag_vit_h14_in1k,1,840,NaN,dog,dog,true,0840_fc_dnn_true_dog_35_n02102040_1187.png
swag_vit_h14_in1k,1,841,NaN,bottle,bottle,false,0841_fc_dnn_false_bottle_35_n03983396_8041.png
swag_vit_h14_in1k,1,842,NaN,bear,bear,true,0842_fc_dnn_true_bear_35_n02132136_8516.png
swag_vit_h14_in1k,1,843,NaN,chair,chair,false,0843_fc_dnn_false_chair_35_n02791124_177.png
swag_vit_h14_in1k,1,844,NaN,boat,boat,false,0844_fc_dnn_false_boat_35_n03662601_10330.png
swag_vit_h14_in1k,1,845,NaN,car,car,false,0845_fc_dnn_false_car_35_n03100240_6311.png
swag_vit_h14_in1k,1,846,NaN,chair,chair,false,0846_fc_dnn_false_chair_35_n03376595_1943.png
swag_vit_h14_in1k,1,847,NaN,bottle,bottle,false,0847_fc_dnn_false_bottle_35_n04557648_4356.png
swag_vit_h14_in1k,1,848,NaN,bear,bear,true,0848_fc_dnn_true_bear_35_n02134084_14754.png
swag_vit_h14_in1k,1,849,NaN,truck,truck,false,0849_fc_dnn_false_truck_35_n03417042_25493.png
swag_vit_h14_in1k,1,850,NaN,knife,knife,true,0850_fc_dnn_true_knife_35_n03041632_30565.png
swag_vit_h14_in1k,1,851,NaN,boat,boat,false,0851_fc_dnn_false_boat_35_n03344393_5501.png
swag_vit_h14_in1k,1,852,NaN,bicycle,bicycle,true,0852_fc_dnn_true_bicycle_35_n02835271_4446.png
swag_vit_h14_in1k,1,853,NaN,knife,knife,true,0853_fc_dnn_true_knife_35_n03041632_3926.png
swag_vit_h14_in1k,1,854,NaN,cat,cat,false,0854_fc_dnn_false_cat_35_n02123159_7580.png
swag_vit_h14_in1k,1,855,NaN,dog,dog,true,0855_fc_dnn_true_dog_35_n02112018_9196.png
swag_vit_h14_in1k,1,856,NaN,car,car,false,0856_fc_dnn_false_car_35_n03100240_20185.png
swag_vit_h14_in1k,1,857,NaN,elephant,elephant,false,0857_fc_dnn_false_elephant_35_n02504458_11693.png
swag_vit_h14_in1k,1,858,NaN,clock,clock,true,0858_fc_dnn_true_clock_35_n04548280_3303.png
swag_vit_h14_in1k,1,859,NaN,bottle,bottle,false,0859_fc_dnn_false_bottle_35_n04560804_10411.png
swag_vit_h14_in1k,1,860,NaN,car,car,false,0860_fc_dnn_false_car_35_n03100240_16803.png
swag_vit_h14_in1k,1,861,NaN,cat,cat,true,0861_fc_dnn_true_cat_35_n02123597_2099.png
swag_vit_h14_in1k,1,862,NaN,truck,truck,true,0862_fc_dnn_true_truck_35_n03796401_27288.png
swag_vit_h14_in1k,1,863,NaN,dog,dog,false,0863_fc_dnn_false_dog_35_n02097130_2470.png
swag_vit_h14_in1k,1,864,NaN,dog,dog,false,0864_fc_dnn_false_dog_35_n02111277_25819.png
swag_vit_h14_in1k,1,865,NaN,bear,bear,false,0865_fc_dnn_false_bear_35_n02134084_12070.png
swag_vit_h14_in1k,1,866,NaN,clock,clock,false,0866_fc_dnn_false_clock_35_n02708093_3525.png
swag_vit_h14_in1k,1,867,NaN,chair,chair,false,0867_fc_dnn_false_chair_35_n03376595_4912.png
swag_vit_h14_in1k,1,868,NaN,airplane,airplane,false,0868_fc_dnn_false_airplane_35_n02690373_6856.png
swag_vit_h14_in1k,1,869,NaN,truck,truck,true,0869_fc_dnn_true_truck_35_n04467665_25130.png
swag_vit_h14_in1k,1,870,NaN,dog,dog,true,0870_fc_dnn_true_dog_35_n02107908_8344.png
swag_vit_h14_in1k,1,871,NaN,car,car,true,0871_fc_dnn_true_car_35_n03100240_14045.png
swag_vit_h14_in1k,1,872,NaN,airplane,airplane,false,0872_fc_dnn_false_airplane_35_n02690373_7735.png
swag_vit_h14_in1k,1,873,NaN,dog,dog,false,0873_fc_dnn_false_dog_35_n02094258_5084.png
swag_vit_h14_in1k,1,874,NaN,knife,knife,false,0874_fc_dnn_false_knife_35_n03041632_13742.png
swag_vit_h14_in1k,1,875,NaN,bottle,bottle,false,0875_fc_dnn_false_bottle_35_n03937543_5062.png
swag_vit_h14_in1k,1,876,NaN,truck,truck,false,0876_fc_dnn_false_truck_35_n03417042_768.png
swag_vit_h14_in1k,1,877,NaN,dog,dog,false,0877_fc_dnn_false_dog_35_n02097209_3172.png
swag_vit_h14_in1k,1,878,NaN,knife,knife,true,0878_fc_dnn_true_knife_35_n03041632_4057.png
swag_vit_h14_in1k,1,879,NaN,clock,clock,true,0879_fc_dnn_true_clock_35_n02708093_7060.png
swag_vit_h14_in1k,1,880,NaN,truck,truck,true,0880_fc_dnn_true_truck_35_n03417042_29353.png
swag_vit_h14_in1k,1,881,NaN,dog,dog,true,0881_fc_dnn_true_dog_35_n02091831_7969.png
swag_vit_h14_in1k,1,882,NaN,bottle,bottle,false,0882_fc_dnn_false_bottle_35_n04591713_5599.png
swag_vit_h14_in1k,1,883,NaN,dog,dog,true,0883_fc_dnn_true_dog_35_n02092339_7915.png
swag_vit_h14_in1k,1,884,NaN,keyboard,keyboard,true,0884_fc_dnn_true_keyboard_35_n03085013_743.png
swag_vit_h14_in1k,1,885,NaN,chair,chair,true,0885_fc_dnn_true_chair_35_n02791124_1135.png
swag_vit_h14_in1k,1,886,NaN,cat,cat,false,0886_fc_dnn_false_cat_35_n02125311_41249.png
swag_vit_h14_in1k,1,887,NaN,car,car,false,0887_fc_dnn_false_car_35_n02814533_4885.png
swag_vit_h14_in1k,1,888,NaN,bear,bear,false,0888_fc_dnn_false_bear_35_n02132136_11149.png
swag_vit_h14_in1k,1,889,NaN,car,car,true,0889_fc_dnn_true_car_35_n03100240_7064.png
swag_vit_h14_in1k,1,890,NaN,bear,bear,true,0890_fc_dnn_true_bear_35_n02132136_10301.png
swag_vit_h14_in1k,1,891,NaN,keyboard,keyboard,false,0891_fc_dnn_false_keyboard_35_n04505470_3937.png
swag_vit_h14_in1k,1,892,NaN,boat,boat,false,0892_fc_dnn_false_boat_35_n03344393_4143.png
swag_vit_h14_in1k,1,893,NaN,dog,dog,false,0893_fc_dnn_false_dog_35_n02086240_5271.png
swag_vit_h14_in1k,1,894,NaN,cat,cat,true,0894_fc_dnn_true_cat_35_n02124075_2806.png
swag_vit_h14_in1k,1,895,NaN,cat,cat,true,0895_fc_dnn_true_cat_35_n02125311_23425.png
swag_vit_h14_in1k,1,896,NaN,boat,boat,true,0896_fc_dnn_true_boat_35_n04273569_928.png
swag_vit_h14_in1k,1,897,NaN,truck,truck,true,0897_fc_dnn_true_truck_35_n03417042_6691.png
swag_vit_h14_in1k,1,898,NaN,boat,boat,false,0898_fc_dnn_false_boat_35_n04612504_20125.png
swag_vit_h14_in1k,1,899,NaN,knife,knife,true,0899_fc_dnn_true_knife_35_n03041632_1143.png
swag_vit_h14_in1k,1,900,NaN,bird,bird,false,0900_fc_dnn_false_bird_35_n01796340_20055.png
swag_vit_h14_in1k,1,901,NaN,car,car,false,0901_fc_dnn_false_car_35_n03100240_10706.png
swag_vit_h14_in1k,1,902,NaN,boat,boat,true,0902_fc_dnn_true_boat_35_n03344393_6324.png
swag_vit_h14_in1k,1,903,NaN,knife,knife,false,0903_fc_dnn_false_knife_35_n03041632_29038.png
swag_vit_h14_in1k,1,904,NaN,keyboard,keyboard,false,0904_fc_dnn_false_keyboard_35_n04505470_5354.png
swag_vit_h14_in1k,1,905,NaN,elephant,elephant,true,0905_fc_dnn_true_elephant_35_n02504013_2033.png
swag_vit_h14_in1k,1,906,NaN,boat,boat,true,0906_fc_dnn_true_boat_35_n03662601_17571.png
swag_vit_h14_in1k,1,907,NaN,oven,oven,true,0907_fc_dnn_true_oven_35_n04111531_21911.png
swag_vit_h14_in1k,1,908,NaN,elephant,elephant,false,0908_fc_dnn_false_elephant_35_n02504013_237.png
swag_vit_h14_in1k,1,909,NaN,truck,truck,true,0909_fc_dnn_true_truck_35_n03417042_12232.png
swag_vit_h14_in1k,1,910,NaN,clock,clock,true,0910_fc_dnn_true_clock_35_n03196217_845.png
swag_vit_h14_in1k,1,911,NaN,oven,oven,false,0911_fc_dnn_false_oven_35_n04111531_4918.png
swag_vit_h14_in1k,1,912,NaN,bottle,bottle,false,0912_fc_dnn_false_bottle_35_n04560804_10.png
swag_vit_h14_in1k,1,913,NaN,bear,bear,true,0913_fc_dnn_true_bear_35_n02133161_2597.png
swag_vit_h14_in1k,1,914,NaN,oven,oven,true,0914_fc_dnn_true_oven_35_n04111531_6485.png
swag_vit_h14_in1k,1,915,NaN,bottle,bottle,true,0915_fc_dnn_true_bottle_35_n02823428_10612.png
swag_vit_h14_in1k,1,916,NaN,car,car,true,0916_fc_dnn_true_car_35_n04285008_11323.png
swag_vit_h14_in1k,1,917,NaN,truck,truck,false,0917_fc_dnn_false_truck_35_n03417042_7313.png
swag_vit_h14_in1k,1,918,NaN,bird,bird,true,0918_fc_dnn_true_bird_35_n02025239_4966.png
swag_vit_h14_in1k,1,919,NaN,boat,boat,true,0919_fc_dnn_true_boat_35_n03344393_4496.png
swag_vit_h14_in1k,1,920,NaN,truck,truck,true,0920_fc_dnn_true_truck_35_n04467665_23055.png
swag_vit_h14_in1k,1,921,NaN,cat,cat,false,0921_fc_dnn_false_cat_35_n02123159_2757.png
swag_vit_h14_in1k,1,922,NaN,elephant,elephant,false,0922_fc_dnn_false_elephant_35_n02504458_7258.png
swag_vit_h14_in1k,1,923,NaN,keyboard,keyboard,false,0923_fc_dnn_false_keyboard_35_n04505470_2921.png
swag_vit_h14_in1k,1,924,NaN,knife,knife,true,0924_fc_dnn_true_knife_35_n03041632_9671.png
swag_vit_h14_in1k,1,925,NaN,oven,oven,true,0925_fc_dnn_true_oven_35_n04111531_594.png
swag_vit_h14_in1k,1,926,NaN,cat,cat,true,0926_fc_dnn_true_cat_35_n02124075_7059.png
swag_vit_h14_in1k,1,927,NaN,truck,truck,false,0927_fc_dnn_false_truck_35_n03417042_3952.png
swag_vit_h14_in1k,1,928,NaN,elephant,elephant,false,0928_fc_dnn_false_elephant_35_n02504013_8007.png
swag_vit_h14_in1k,1,929,NaN,boat,boat,false,0929_fc_dnn_false_boat_35_n03662601_24852.png
swag_vit_h14_in1k,1,930,NaN,boat,boat,false,0930_fc_dnn_false_boat_35_n03662601_18579.png
swag_vit_h14_in1k,1,931,NaN,clock,clock,false,0931_fc_dnn_false_clock_35_n02708093_3745.png
swag_vit_h14_in1k,1,932,NaN,bottle,bottle,false,0932_fc_dnn_false_bottle_35_n02823428_4959.png
swag_vit_h14_in1k,1,933,NaN,bottle,bottle,true,0933_fc_dnn_true_bottle_35_n04579145_54.png
swag_vit_h14_in1k,1,934,NaN,bicycle,bicycle,true,0934_fc_dnn_true_bicycle_35_n02835271_29653.png
swag_vit_h14_in1k,1,935,NaN,chair,chair,true,0935_fc_dnn_true_chair_35_n03376595_10986.png
swag_vit_h14_in1k,1,936,NaN,chair,chair,true,0936_fc_dnn_true_chair_35_n03376595_10153.png
swag_vit_h14_in1k,1,937,NaN,boat,boat,true,0937_fc_dnn_true_boat_35_n03344393_6799.png
swag_vit_h14_in1k,1,938,NaN,oven,oven,true,0938_fc_dnn_true_oven_35_n04111531_20099.png
swag_vit_h14_in1k,1,939,NaN,elephant,elephant,false,0939_fc_dnn_false_elephant_35_n02504013_11073.png
swag_vit_h14_in1k,1,940,NaN,dog,dog,true,0940_fc_dnn_true_dog_35_n02095570_11142.png
swag_vit_h14_in1k,1,941,NaN,keyboard,keyboard,true,0941_fc_dnn_true_keyboard_35_n04505470_489.png
swag_vit_h14_in1k,1,942,NaN,bottle,bottle,true,0942_fc_dnn_true_bottle_35_n04557648_1791.png
swag_vit_h14_in1k,1,943,NaN,oven,oven,false,0943_fc_dnn_false_oven_35_n04111531_18245.png
swag_vit_h14_in1k,1,944,NaN,chair,chair,false,0944_fc_dnn_false_chair_35_n04099969_3414.png
swag_vit_h14_in1k,1,945,NaN,keyboard,keyboard,false,0945_fc_dnn_false_keyboard_35_n03085013_24206.png
swag_vit_h14_in1k,1,946,NaN,car,car,false,0946_fc_dnn_false_car_35_n03100240_18270.png
swag_vit_h14_in1k,1,947,NaN,clock,clock,true,0947_fc_dnn_true_clock_35_n03196217_3430.png
swag_vit_h14_in1k,1,948,NaN,cat,cat,true,0948_fc_dnn_true_cat_35_n02123159_2339.png
swag_vit_h14_in1k,1,949,NaN,truck,truck,false,0949_fc_dnn_false_truck_35_n04467665_11830.png
swag_vit_h14_in1k,1,950,NaN,airplane,airplane,false,0950_fc_dnn_false_airplane_35_n02690373_4198.png
swag_vit_h14_in1k,1,951,NaN,chair,chair,true,0951_fc_dnn_true_chair_35_n04429376_16619.png
swag_vit_h14_in1k,1,952,NaN,bottle,bottle,true,0952_fc_dnn_true_bottle_35_n04579145_6186.png
swag_vit_h14_in1k,1,953,NaN,knife,knife,true,0953_fc_dnn_true_knife_35_n03041632_27929.png
swag_vit_h14_in1k,1,954,NaN,truck,truck,false,0954_fc_dnn_false_truck_35_n04467665_3529.png
swag_vit_h14_in1k,1,955,NaN,oven,oven,false,0955_fc_dnn_false_oven_35_n04111531_4050.png
swag_vit_h14_in1k,1,956,NaN,car,car,true,0956_fc_dnn_true_car_35_n04285008_5440.png
swag_vit_h14_in1k,1,957,NaN,airplane,airplane,true,0957_fc_dnn_true_airplane_35_n02690373_8454.png
swag_vit_h14_in1k,1,958,NaN,knife,knife,false,0958_fc_dnn_false_knife_35_n03041632_11326.png
swag_vit_h14_in1k,1,959,NaN,bird,bird,false,0959_fc_dnn_false_bird_35_n01796340_5485.png
swag_vit_h14_in1k,1,960,NaN,elephant,elephant,true,0960_fc_dnn_true_elephant_35_n02504013_12615.png
swag_vit_h14_in1k,1,961,NaN,keyboard,keyboard,true,0961_fc_dnn_true_keyboard_35_n03085013_3980.png
swag_vit_h14_in1k,1,962,NaN,truck,truck,true,0962_fc_dnn_true_truck_35_n03796401_16337.png
swag_vit_h14_in1k,1,963,NaN,truck,truck,true,0963_fc_dnn_true_truck_35_n03796401_6921.png
swag_vit_h14_in1k,1,964,NaN,bear,bear,true,0964_fc_dnn_true_bear_35_n02134084_7274.png
swag_vit_h14_in1k,1,965,NaN,bird,bird,false,0965_fc_dnn_false_bird_35_n01819313_5839.png
swag_vit_h14_in1k,1,966,NaN,bicycle,bicycle,true,0966_fc_dnn_true_bicycle_35_n03792782_2057.png
swag_vit_h14_in1k,1,967,NaN,clock,clock,false,0967_fc_dnn_false_clock_35_n03196217_3050.png
swag_vit_h14_in1k,1,968,NaN,car,car,true,0968_fc_dnn_true_car_35_n04285008_12754.png
swag_vit_h14_in1k,1,969,NaN,bear,bear,false,0969_fc_dnn_false_bear_35_n02134418_1409.png
swag_vit_h14_in1k,1,970,NaN,chair,chair,true,0970_fc_dnn_true_chair_35_n03376595_3654.png
swag_vit_h14_in1k,1,971,NaN,keyboard,keyboard,false,0971_fc_dnn_false_keyboard_35_n04505470_4873.png
swag_vit_h14_in1k,1,972,NaN,airplane,airplane,true,0972_fc_dnn_true_airplane_35_n02690373_1615.png
swag_vit_h14_in1k,1,973,NaN,bottle,bottle,false,0973_fc_dnn_false_bottle_35_n04591713_6851.png
swag_vit_h14_in1k,1,974,NaN,oven,oven,false,0974_fc_dnn_false_oven_35_n04111531_14804.png
swag_vit_h14_in1k,1,975,NaN,knife,knife,false,0975_fc_dnn_false_knife_35_n03041632_29680.png
swag_vit_h14_in1k,1,976,NaN,airplane,airplane,true,0976_fc_dnn_true_airplane_35_n02690373_2068.png
swag_vit_h14_in1k,1,977,NaN,oven,oven,false,0977_fc_dnn_false_oven_35_n04111531_8309.png
swag_vit_h14_in1k,1,978,NaN,truck,truck,true,0978_fc_dnn_true_truck_35_n04467665_3094.png
swag_vit_h14_in1k,1,979,NaN,elephant,elephant,true,0979_fc_dnn_true_elephant_35_n02504458_5788.png
swag_vit_h14_in1k,1,980,NaN,keyboard,keyboard,true,0980_fc_dnn_true_keyboard_35_n04505470_4500.png
swag_vit_h14_in1k,1,981,NaN,car,car,false,0981_fc_dnn_false_car_35_n04285008_7924.png
swag_vit_h14_in1k,1,982,NaN,cat,cat,false,0982_fc_dnn_false_cat_35_n02123394_9541.png
swag_vit_h14_in1k,1,983,NaN,bear,bear,false,0983_fc_dnn_false_bear_35_n02134418_2440.png
swag_vit_h14_in1k,1,984,NaN,clock,clock,false,0984_fc_dnn_false_clock_35_n03196217_8785.png
swag_vit_h14_in1k,1,985,NaN,dog,dog,true,0985_fc_dnn_true_dog_35_n02094258_1036.png
swag_vit_h14_in1k,1,986,NaN,boat,boat,false,0986_fc_dnn_false_boat_35_n02951358_8503.png
swag_vit_h14_in1k,1,987,NaN,chair,chair,true,0987_fc_dnn_true_chair_35_n02791124_1557.png
swag_vit_h14_in1k,1,988,NaN,keyboard,keyboard,true,0988_fc_dnn_true_keyboard_35_n03085013_5440.png
swag_vit_h14_in1k,1,989,NaN,chair,chair,true,0989_fc_dnn_true_chair_35_n02791124_606.png
swag_vit_h14_in1k,1,990,NaN,bottle,bottle,false,0990_fc_dnn_false_bottle_35_n03937543_10543.png
swag_vit_h14_in1k,1,991,NaN,bicycle,bicycle,false,0991_fc_dnn_false_bicycle_35_n03792782_18665.png
swag_vit_h14_in1k,1,992,NaN,car,car,false,0992_fc_dnn_false_car_35_n02814533_90486.png
swag_vit_h14_in1k,1,993,NaN,bear,bear,false,0993_fc_dnn_false_bear_35_n02134418_4485.png
swag_vit_h14_in1k,1,994,NaN,keyboard,keyboard,false,0994_fc_dnn_false_keyboard_35_n03085013_20727.png
swag_vit_h14_in1k,1,995,NaN,cat,cat,true,0995_fc_dnn_true_cat_35_n02123394_1122.png
swag_vit_h14_in1k,1,996,NaN,cat,cat,true,0996_fc_dnn_true_cat_35_n02123159_7762.png
swag_vit_h14_in1k,1,997,NaN,oven,oven,true,0997_fc_dnn_true_oven_35_n04111531_5897.png
swag_vit_h14_in1k,1,998,NaN,cat,cat,false,0998_fc_dnn_false_cat_35_n02125311_23312.png
swag_vit_h14_in1k,1,999,NaN,elephant,elephant,false,0999_fc_dnn_false_elephant_35_n02504013_1436.png
swag_vit_h14_in1k,1,1000,NaN,bird,bird,false,1000_fc_dnn_false_bird_35_n01622779_11953.png
swag_vit_h14_in1k,1,1001,NaN,elephant,elephant,true,1001_fc_dnn_true_elephant_35_n02504458_975.png
swag_vit_h14_in1k,1,1002,NaN,car,car,true,1002_fc_dnn_true_car_35_n04285008_2841.png
swag_vit_h14_in1k,1,1003,NaN,cat,cat,false,1003_fc_dnn_false_cat_35_n02123597_3575.png
swag_vit_h14_in1k,1,1004,NaN,boat,boat,true,1004_fc_dnn_true_boat_35_n04612504_14418.png
swag_vit_h14_in1k,1,1005,NaN,dog,dog,false,1005_fc_dnn_false_dog_35_n02087394_9938.png
swag_vit_h14_in1k,1,1006,NaN,chair,chair,true,1006_fc_dnn_true_chair_35_n04429376_17646.png
swag_vit_h14_in1k,1,1007,NaN,chair,chair,true,1007_fc_dnn_true_chair_35_n04099969_6309.png
swag_vit_h14_in1k,1,1008,NaN,bottle,bottle,true,1008_fc_dnn_true_bottle_35_n03983396_3331.png
swag_vit_h14_in1k,1,1009,NaN,keyboard,keyboard,true,1009_fc_dnn_true_keyboard_35_n04505470_882.png
swag_vit_h14_in1k,1,1010,NaN,clock,clock,true,1010_fc_dnn_true_clock_35_n02708093_1124.png
swag_vit_h14_in1k,1,1011,NaN,clock,clock,false,1011_fc_dnn_false_clock_35_n04548280_17802.png
swag_vit_h14_in1k,1,1012,NaN,cat,cat,true,1012_fc_dnn_true_cat_35_n02123045_6507.png
swag_vit_h14_in1k,1,1013,NaN,elephant,elephant,true,1013_fc_dnn_true_elephant_35_n02504458_379.png
swag_vit_h14_in1k,1,1014,NaN,boat,boat,false,1014_fc_dnn_false_boat_35_n03662601_6916.png
swag_vit_h14_in1k,1,1015,NaN,knife,knife,true,1015_fc_dnn_true_knife_35_n03041632_2390.png
swag_vit_h14_in1k,1,1016,NaN,car,car,true,1016_fc_dnn_true_car_35_n03100240_17973.png
swag_vit_h14_in1k,1,1017,NaN,cat,cat,false,1017_fc_dnn_false_cat_35_n02123597_9467.png
swag_vit_h14_in1k,1,1018,NaN,bicycle,bicycle,false,1018_fc_dnn_false_bicycle_35_n02835271_12028.png
swag_vit_h14_in1k,1,1019,NaN,chair,chair,true,1019_fc_dnn_true_chair_35_n04099969_25327.png
swag_vit_h14_in1k,1,1020,NaN,bird,bird,true,1020_fc_dnn_true_bird_35_n01818515_8330.png
swag_vit_h14_in1k,1,1021,NaN,keyboard,keyboard,false,1021_fc_dnn_false_keyboard_35_n03085013_9244.png
swag_vit_h14_in1k,1,1022,NaN,boat,boat,true,1022_fc_dnn_true_boat_35_n02951358_31470.png
swag_vit_h14_in1k,1,1023,NaN,airplane,airplane,true,1023_fc_dnn_true_airplane_35_n02690373_10285.png
swag_vit_h14_in1k,1,1024,NaN,dog,dog,false,1024_fc_dnn_false_dog_35_n02085782_6241.png
swag_vit_h14_in1k,1,1025,NaN,airplane,airplane,false,1025_fc_dnn_false_airplane_35_n02690373_5624.png
swag_vit_h14_in1k,1,1026,NaN,bicycle,bicycle,false,1026_fc_dnn_false_bicycle_35_n03792782_1418.png
swag_vit_h14_in1k,1,1027,NaN,dog,dog,true,1027_fc_dnn_true_dog_35_n02096437_1984.png
swag_vit_h14_in1k,1,1028,NaN,car,car,true,1028_fc_dnn_true_car_35_n04285008_9388.png
swag_vit_h14_in1k,1,1029,NaN,truck,truck,true,1029_fc_dnn_true_truck_35_n03417042_26865.png
swag_vit_h14_in1k,1,1030,NaN,dog,dog,true,1030_fc_dnn_true_dog_35_n02105855_18455.png
swag_vit_h14_in1k,1,1031,NaN,bicycle,bicycle,false,1031_fc_dnn_false_bicycle_35_n02835271_8209.png
swag_vit_h14_in1k,1,1032,NaN,dog,dog,true,1032_fc_dnn_true_dog_35_n02111129_6560.png
swag_vit_h14_in1k,1,1033,NaN,bottle,bottle,true,1033_fc_dnn_true_bottle_35_n04579145_5451.png
swag_vit_h14_in1k,1,1034,NaN,bear,bear,true,1034_fc_dnn_true_bear_35_n02133161_6448.png
swag_vit_h14_in1k,1,1035,NaN,airplane,airplane,false,1035_fc_dnn_false_airplane_35_n02690373_3753.png
swag_vit_h14_in1k,1,1036,NaN,car,car,false,1036_fc_dnn_false_car_35_n02814533_10329.png
swag_vit_h14_in1k,1,1037,NaN,chair,chair,true,1037_fc_dnn_true_chair_35_n03376595_1273.png
swag_vit_h14_in1k,1,1038,NaN,chair,chair,false,1038_fc_dnn_false_chair_35_n04429376_10453.png
swag_vit_h14_in1k,1,1039,NaN,dog,dog,false,1039_fc_dnn_false_dog_35_n02100877_3363.png
swag_vit_h14_in1k,1,1040,NaN,bird,bird,false,1040_fc_dnn_false_bird_35_n02013706_5736.png
swag_vit_h14_in1k,1,1041,NaN,car,car,false,1041_fc_dnn_false_car_35_n02814533_31430.png
swag_vit_h14_in1k,1,1042,NaN,keyboard,keyboard,false,1042_fc_dnn_false_keyboard_35_n04505470_3499.png
swag_vit_h14_in1k,1,1043,NaN,cat,cat,true,1043_fc_dnn_true_cat_35_n02123597_1410.png
swag_vit_h14_in1k,1,1044,NaN,keyboard,keyboard,true,1044_fc_dnn_true_keyboard_35_n03085013_8339.png
swag_vit_h14_in1k,1,1045,NaN,dog,dog,false,1045_fc_dnn_false_dog_35_n02100877_4371.png
swag_vit_h14_in1k,1,1046,NaN,bear,bear,true,1046_fc_dnn_true_bear_35_n02134418_2022.png
swag_vit_h14_in1k,1,1047,NaN,bottle,bottle,false,1047_fc_dnn_false_bottle_35_n04557648_3615.png
swag_vit_h14_in1k,1,1048,NaN,dog,dog,false,1048_fc_dnn_false_dog_35_n02105056_10931.png
swag_vit_h14_in1k,1,1049,NaN,knife,knife,true,1049_fc_dnn_true_knife_35_n03041632_8151.png
swag_vit_h14_in1k,1,1050,NaN,bear,bear,false,1050_fc_dnn_false_bear_35_n02132136_7754.png
swag_vit_h14_in1k,1,1051,NaN,cat,cat,false,1051_fc_dnn_false_cat_35_n02123159_6728.png
swag_vit_h14_in1k,1,1052,NaN,bird,bird,true,1052_fc_dnn_true_bird_35_n01843383_9064.png
swag_vit_h14_in1k,1,1053,NaN,airplane,airplane,true,1053_fc_dnn_true_airplane_35_n02690373_9848.png
swag_vit_h14_in1k,1,1054,NaN,knife,knife,false,1054_fc_dnn_false_knife_35_n03041632_18532.png
swag_vit_h14_in1k,1,1055,NaN,oven,oven,true,1055_fc_dnn_true_oven_35_n04111531_13479.png
swag_vit_h14_in1k,1,1056,NaN,oven,oven,true,1056_fc_dnn_true_oven_35_n04111531_9762.png
swag_vit_h14_in1k,1,1057,NaN,knife,knife,false,1057_fc_dnn_false_knife_35_n03041632_104379.png
swag_vit_h14_in1k,1,1058,NaN,car,car,false,1058_fc_dnn_false_car_35_n03100240_9412.png
swag_vit_h14_in1k,1,1059,NaN,airplane,airplane,false,1059_fc_dnn_false_airplane_35_n02690373_6831.png
swag_vit_h14_in1k,1,1060,NaN,bird,bird,true,1060_fc_dnn_true_bird_35_n01855672_13403.png
swag_vit_h14_in1k,1,1061,NaN,oven,oven,false,1061_fc_dnn_false_oven_35_n04111531_5473.png
swag_vit_h14_in1k,1,1062,NaN,elephant,elephant,true,1062_fc_dnn_true_elephant_35_n02504458_5412.png
swag_vit_h14_in1k,1,1063,NaN,truck,truck,true,1063_fc_dnn_true_truck_35_n03796401_6596.png
swag_vit_h14_in1k,1,1064,NaN,bicycle,bicycle,false,1064_fc_dnn_false_bicycle_35_n02835271_927.png
swag_vit_h14_in1k,1,1065,NaN,dog,dog,false,1065_fc_dnn_false_dog_35_n02093428_8946.png
swag_vit_h14_in1k,1,1066,NaN,oven,oven,true,1066_fc_dnn_true_oven_35_n04111531_7034.png
swag_vit_h14_in1k,1,1067,NaN,dog,dog,false,1067_fc_dnn_false_dog_35_n02113023_863.png
swag_vit_h14_in1k,1,1068,NaN,knife,knife,false,1068_fc_dnn_false_knife_35_n03041632_13645.png
swag_vit_h14_in1k,1,1069,NaN,chair,chair,true,1069_fc_dnn_true_chair_35_n04429376_3452.png
swag_vit_h14_in1k,1,1070,NaN,bird,bird,false,1070_fc_dnn_false_bird_35_n01798484_9481.png
swag_vit_h14_in1k,1,1071,NaN,chair,chair,false,1071_fc_dnn_false_chair_35_n04429376_5067.png
swag_vit_h14_in1k,1,1072,NaN,keyboard,keyboard,false,1072_fc_dnn_false_keyboard_35_n04505470_5092.png
swag_vit_h14_in1k,1,1073,NaN,truck,truck,true,1073_fc_dnn_true_truck_35_n03796401_3386.png
swag_vit_h14_in1k,1,1074,NaN,dog,dog,true,1074_fc_dnn_true_dog_35_n02088466_7803.png
swag_vit_h14_in1k,1,1075,NaN,bear,bear,true,1075_fc_dnn_true_bear_35_n02133161_1302.png
swag_vit_h14_in1k,1,1076,NaN,chair,chair,false,1076_fc_dnn_false_chair_35_n02791124_17045.png
swag_vit_h14_in1k,1,1077,NaN,bear,bear,false,1077_fc_dnn_false_bear_35_n02132136_19521.png
swag_vit_h14_in1k,1,1078,NaN,chair,chair,true,1078_fc_dnn_true_chair_35_n04099969_7998.png
swag_vit_h14_in1k,1,1079,NaN,clock,clock,false,1079_fc_dnn_false_clock_35_n02708093_5734.png
