subj,Session,trial,rt,object_response,category,condition,imagename
subject-04,1,1,0.79400110244751,truck,truck,false,0001_fc_s04_false_truck_35_n03417042_2155.png
subject-04,1,2,0.733788967132568,knife,knife,false,0002_fc_s04_false_knife_35_n03041632_51766.png
subject-04,1,3,0.989598035812378,dog,dog,false,0003_fc_s04_false_dog_35_n02096585_9834.png
subject-04,1,4,0.689475059509277,truck,truck,false,0004_fc_s04_false_truck_35_n03796401_6503.png
subject-04,1,5,1.00723791122437,car,car,true,0005_fc_s04_true_car_35_n04285008_9388.png
subject-04,1,6,0.509263038635254,clock,clock,true,0006_fc_s04_true_clock_35_n04548280_9828.png
subject-04,1,7,0.56924295425415,boat,boat,true,0007_fc_s04_true_boat_35_n04612504_13668.png
subject-04,1,8,0.872581958770752,knife,knife,false,0008_fc_s04_false_knife_35_n03041632_90125.png
subject-04,1,9,0.672409057617188,bird,bird,false,0009_fc_s04_false_bird_35_n01592084_4087.png
subject-04,1,10,1.16828608512878,oven,oven,true,0010_fc_s04_true_oven_35_n04111531_13590.png
subject-04,1,11,0.790278911590576,bear,bear,true,0011_fc_s04_true_bear_35_n02134418_11557.png
subject-04,1,12,0.591883182525635,clock,clock,false,0012_fc_s04_false_clock_35_n02708093_3525.png
subject-04,1,13,0.928200006484985,airplane,airplane,true,0013_fc_s04_true_airplane_35_n02690373_18864.png
subject-04,1,14,0.66574501991272,bird,bird,false,0014_fc_s04_false_bird_35_n01531178_53368.png
subject-04,1,15,1.12940788269043,chair,chair,true,0015_fc_s04_true_chair_35_n04429376_22811.png
subject-04,1,16,0.75157904624939,cat,cat,true,0016_fc_s04_true_cat_35_n02125311_8541.png
subject-04,1,17,0.907099962234497,bird,bird,false,0017_fc_s04_false_bird_35_n01558993_11093.png
subject-04,1,18,0.916846990585327,bear,bear,false,0018_fc_s04_false_bear_35_n02134084_1655.png
subject-04,1,19,0.88269305229187,knife,knife,false,0019_fc_s04_false_knife_35_n03041632_13742.png
subject-04,1,20,0.716566801071167,cat,cat,true,0020_fc_s04_true_cat_35_n02123159_5467.png
subject-04,1,21,0.84041690826416,keyboard,keyboard,true,0021_fc_s04_true_keyboard_35_n03085013_8339.png
subject-04,1,22,0.620541095733643,keyboard,keyboard,false,0022_fc_s04_false_keyboard_35_n04505470_5354.png
subject-04,1,23,0.920010089874268,cat,cat,false,0023_fc_s04_false_cat_35_n02123394_9541.png
subject-04,1,24,0.881710052490234,clock,clock,true,0024_fc_s04_true_clock_35_n02708093_8386.png
subject-04,1,25,0.795875072479248,oven,oven,false,0025_fc_s04_false_oven_35_n04111531_4998.png
subject-04,1,26,0.661344051361084,knife,knife,true,0026_fc_s04_true_knife_35_n03041632_17285.png
subject-04,1,27,0.66316294670105,oven,oven,true,0027_fc_s04_true_oven_35_n04111531_594.png
subject-04,1,28,0.708881855010986,airplane,airplane,false,0028_fc_s04_false_airplane_35_n02690373_3821.png
subject-04,1,29,0.83112096786499,cat,cat,false,0029_fc_s04_false_cat_35_n02123045_7167.png
subject-04,1,30,0.834476947784424,bottle,bottle,false,0030_fc_s04_false_bottle_35_n03983396_18753.png
subject-04,1,31,0.754508018493652,airplane,airplane,false,0031_fc_s04_false_airplane_35_n02690373_6363.png
subject-04,1,32,1.38870811462402,car,car,false,0032_fc_s04_false_car_35_n03100240_10706.png
subject-04,1,33,0.858036041259766,keyboard,keyboard,false,0033_fc_s04_false_keyboard_35_n04505470_912.png
subject-04,1,34,1.17395281791687,bear,bicycle,true,0034_fc_s04_true_bicycle_35_n03792782_7050.png
subject-04,1,35,0.773531198501587,cat,cat,true,0035_fc_s04_true_cat_35_n02124075_11466.png
subject-04,1,36,1.05794095993042,knife,knife,true,0036_fc_s04_true_knife_35_n03041632_11613.png
subject-04,1,37,0.633535861968994,bicycle,bicycle,true,0037_fc_s04_true_bicycle_35_n02835271_10293.png
subject-04,1,38,0.733211994171143,dog,dog,false,0038_fc_s04_false_dog_35_n02092339_160.png
subject-04,1,39,0.562842130661011,cat,cat,true,0039_fc_s04_true_cat_35_n02123159_1233.png
subject-04,1,40,0.782644987106323,chair,chair,true,0040_fc_s04_true_chair_35_n03376595_606.png
subject-04,1,41,0.852480173110962,car,car,true,0041_fc_s04_true_car_35_n04285008_3631.png
subject-04,1,42,0.902244091033936,airplane,airplane,true,0042_fc_s04_true_airplane_35_n02690373_8538.png
subject-04,1,43,0.720582962036133,truck,truck,false,0043_fc_s04_false_truck_35_n03796401_6727.png
subject-04,1,44,0.745997905731201,bottle,bottle,true,0044_fc_s04_true_bottle_35_n04557648_4420.png
subject-04,1,45,0.861752986907959,oven,oven,true,0045_fc_s04_true_oven_35_n04111531_9762.png
subject-04,1,46,0.867686033248901,elephant,elephant,false,0046_fc_s04_false_elephant_35_n02504458_5191.png
subject-04,1,47,0.913277864456177,elephant,elephant,false,0047_fc_s04_false_elephant_35_n02504013_10149.png
subject-04,1,48,0.839143037796021,truck,truck,false,0048_fc_s04_false_truck_35_n03796401_18074.png
subject-04,1,49,1.06498789787292,truck,truck,false,0049_fc_s04_false_truck_35_n03417042_7313.png
subject-04,1,50,0.826777935028076,elephant,elephant,true,0050_fc_s04_true_elephant_35_n02504458_6437.png
subject-04,1,51,0.634835004806519,bicycle,bicycle,false,0051_fc_s04_false_bicycle_35_n02835271_608.png
subject-04,1,52,1.03455710411072,elephant,elephant,true,0052_fc_s04_true_elephant_35_n02504013_12615.png
subject-04,1,53,0.794197082519531,bird,bird,true,0053_fc_s04_true_bird_35_n01818515_8330.png
subject-04,1,54,0.99418306350708,knife,knife,true,0054_fc_s04_true_knife_35_n03041632_86338.png
subject-04,1,55,0.707991123199463,bear,bear,true,0055_fc_s04_true_bear_35_n02132136_8619.png
subject-04,1,56,0.760043144226074,chair,chair,false,0056_fc_s04_false_chair_35_n02791124_177.png
subject-04,1,57,0.671574831008911,keyboard,keyboard,true,0057_fc_s04_true_keyboard_35_n03085013_30335.png
subject-04,1,58,0.7255859375,keyboard,keyboard,false,0058_fc_s04_false_keyboard_35_n03085013_3231.png
subject-04,1,59,0.635071992874146,airplane,airplane,true,0059_fc_s04_true_airplane_35_n02690373_2447.png
subject-04,1,60,1.10309410095215,car,car,false,0060_fc_s04_false_car_35_n03100240_18646.png
subject-04,1,61,0.854958057403564,truck,truck,false,0061_fc_s04_false_truck_35_n03417042_8690.png
subject-04,1,62,0.5747230052948,boat,boat,true,0062_fc_s04_true_boat_35_n03344393_6324.png
subject-04,1,63,1.46037411689758,oven,oven,true,0063_fc_s04_true_oven_35_n04111531_5897.png
subject-04,1,64,1.15258097648621,airplane,airplane,false,0064_fc_s04_false_airplane_35_n02690373_9659.png
subject-04,1,65,0.969990015029907,bear,elephant,false,0065_fc_s04_false_elephant_35_n02504013_5934.png
subject-04,1,66,1.36187195777893,dog,dog,false,0066_fc_s04_false_dog_35_n02093428_8946.png
subject-04,1,67,0.937766075134277,dog,dog,false,0067_fc_s04_false_dog_35_n02105056_2046.png
subject-04,1,68,0.639743089675903,clock,clock,false,0068_fc_s04_false_clock_35_n02708093_1684.png
subject-04,1,69,0.761162996292114,clock,clock,false,0069_fc_s04_false_clock_35_n03196217_958.png
subject-04,1,70,0.571054935455322,clock,clock,false,0070_fc_s04_false_clock_35_n02708093_8104.png
subject-04,1,71,0.945037841796875,keyboard,keyboard,true,0071_fc_s04_true_keyboard_35_n04505470_4682.png
subject-04,1,72,0.668627977371216,cat,cat,false,0072_fc_s04_false_cat_35_n02123597_13140.png
subject-04,1,73,0.678915023803711,bicycle,bicycle,false,0073_fc_s04_false_bicycle_35_n03792782_50569.png
subject-04,1,74,0.646304130554199,chair,chair,true,0074_fc_s04_true_chair_35_n02791124_1557.png
subject-04,1,75,1.33205986022949,elephant,cat,false,0075_fc_s04_false_cat_35_n02125311_28052.png
subject-04,1,76,0.892173051834106,elephant,elephant,false,0076_fc_s04_false_elephant_35_n02504458_6109.png
subject-04,1,77,0.623805999755859,cat,cat,true,0077_fc_s04_true_cat_35_n02123159_8144.png
subject-04,1,78,0.637515068054199,boat,boat,true,0078_fc_s04_true_boat_35_n04273569_9282.png
subject-04,1,79,0.855261087417603,clock,chair,false,0079_fc_s04_false_chair_35_n04429376_36830.png
subject-04,1,80,0.685173034667969,airplane,airplane,false,0080_fc_s04_false_airplane_35_n02690373_8770.png
subject-04,1,81,0.616323947906494,boat,boat,true,0081_fc_s04_true_boat_35_n03662601_1926.png
subject-04,1,82,0.727948904037476,bird,bird,true,0082_fc_s04_true_bird_35_n01843383_3019.png
subject-04,1,83,0.839818954467773,cat,cat,false,0083_fc_s04_false_cat_35_n02125311_23312.png
subject-04,1,84,0.541607141494751,cat,cat,false,0084_fc_s04_false_cat_35_n02124075_3592.png
subject-04,1,85,0.473441123962402,boat,boat,true,0085_fc_s04_true_boat_35_n03662601_8221.png
subject-04,1,86,0.639219999313354,keyboard,keyboard,false,0086_fc_s04_false_keyboard_35_n03085013_20727.png
subject-04,1,87,0.606843948364258,keyboard,keyboard,true,0087_fc_s04_true_keyboard_35_n04505470_8620.png
subject-04,1,88,0.548649072647095,bicycle,bicycle,false,0088_fc_s04_false_bicycle_35_n03792782_4210.png
subject-04,1,89,1.01454591751099,dog,dog,false,0089_fc_s04_false_dog_35_n02097130_2470.png
subject-04,1,90,0.628380060195923,elephant,elephant,true,0090_fc_s04_true_elephant_35_n02504458_4939.png
subject-04,1,91,0.590626001358032,cat,cat,true,0091_fc_s04_true_cat_35_n02124075_5067.png
subject-04,1,92,0.744065999984741,chair,chair,false,0092_fc_s04_false_chair_35_n02791124_4547.png
subject-04,1,93,0.647828817367554,bottle,bottle,false,0093_fc_s04_false_bottle_35_n02823428_10942.png
subject-04,1,94,0.877650022506714,dog,dog,true,0094_fc_s04_true_dog_35_n02091831_7969.png
subject-04,1,95,0.883321046829224,keyboard,keyboard,true,0095_fc_s04_true_keyboard_35_n03085013_19916.png
subject-04,1,96,0.591196775436401,oven,oven,false,0096_fc_s04_false_oven_35_n04111531_643.png
subject-04,1,97,0.97295093536377,airplane,airplane,true,0097_fc_s04_true_airplane_35_n02690373_10809.png
subject-04,1,98,0.571003913879395,airplane,airplane,true,0098_fc_s04_true_airplane_35_n02690373_2619.png
subject-04,1,99,0.507065057754517,bicycle,bicycle,false,0099_fc_s04_false_bicycle_35_n03792782_18665.png
subject-04,1,100,1.3244481086731,bird,car,false,0100_fc_s04_false_car_35_n03100240_12694.png
subject-04,1,101,0.666297912597656,cat,cat,true,0101_fc_s04_true_cat_35_n02124075_8341.png
subject-04,1,102,1.00823712348938,car,car,false,0102_fc_s04_false_car_35_n02814533_2555.png
subject-04,1,103,0.612040996551514,keyboard,keyboard,true,0103_fc_s04_true_keyboard_35_n04505470_882.png
subject-04,1,104,0.51583194732666,airplane,airplane,false,0104_fc_s04_false_airplane_35_n02690373_6807.png
subject-04,1,105,0.637485980987549,car,car,true,0105_fc_s04_true_car_35_n02814533_56999.png
subject-04,1,106,0.519333839416504,keyboard,keyboard,true,0106_fc_s04_true_keyboard_35_n03085013_5440.png
subject-04,1,107,0.763286828994751,elephant,elephant,true,0107_fc_s04_true_elephant_35_n02504458_5951.png
subject-04,1,108,0.589315891265869,bird,bird,true,0108_fc_s04_true_bird_35_n01558993_38999.png
subject-04,1,109,0.516950845718384,bird,bird,true,0109_fc_s04_true_bird_35_n01622779_1609.png
subject-04,1,110,0.620668888092041,bird,bird,true,0110_fc_s04_true_bird_35_n01828970_11339.png
subject-04,1,111,0.672539949417114,bird,bird,true,0111_fc_s04_true_bird_35_n01819313_5634.png
subject-04,1,112,0.686213970184326,truck,truck,false,0112_fc_s04_false_truck_35_n03796401_6923.png
subject-04,1,113,0.512096166610718,bear,bear,false,0113_fc_s04_false_bear_35_n02132136_7231.png
subject-04,1,114,0.885819911956787,car,car,false,0114_fc_s04_false_car_35_n03100240_5399.png
subject-04,1,115,0.752104997634888,cat,cat,true,0115_fc_s04_true_cat_35_n02125311_6746.png
subject-04,1,116,0.795783996582031,elephant,elephant,false,0116_fc_s04_false_elephant_35_n02504458_209.png
subject-04,1,117,0.575341939926147,boat,boat,false,0117_fc_s04_false_boat_35_n03662601_10811.png
subject-04,1,118,0.80125880241394,bird,bird,true,0118_fc_s04_true_bird_35_n01833805_1104.png
subject-04,1,119,0.974953174591064,airplane,airplane,false,0119_fc_s04_false_airplane_35_n02690373_4191.png
subject-04,1,120,0.738801956176758,car,car,false,0120_fc_s04_false_car_35_n02814533_31430.png
subject-04,1,121,0.656651973724365,chair,chair,false,0121_fc_s04_false_chair_35_n04099969_7718.png
subject-04,1,122,0.870735168457031,dog,dog,true,0122_fc_s04_true_dog_35_n02102177_7737.png
subject-04,1,123,0.626252174377441,oven,knife,true,0123_fc_s04_true_knife_35_n03041632_30286.png
subject-04,1,124,0.824182033538818,bicycle,bicycle,true,0124_fc_s04_true_bicycle_35_n02835271_19552.png
subject-04,1,125,0.663673162460327,boat,boat,false,0125_fc_s04_false_boat_35_n04273569_2040.png
subject-04,1,126,1.10602998733521,airplane,airplane,true,0126_fc_s04_true_airplane_35_n02690373_2823.png
subject-04,1,127,0.767498016357422,cat,cat,false,0127_fc_s04_false_cat_35_n02123597_4998.png
subject-04,1,128,0.783496856689453,bear,bear,false,0128_fc_s04_false_bear_35_n02134084_6821.png
subject-04,1,129,0.874994993209839,elephant,elephant,false,0129_fc_s04_false_elephant_35_n02504458_6878.png
subject-04,1,130,0.948899984359741,car,car,true,0130_fc_s04_true_car_35_n03100240_49.png
subject-04,1,131,0.684736967086792,cat,cat,true,0131_fc_s04_true_cat_35_n02123597_4591.png
subject-04,1,132,0.584656953811646,cat,cat,false,0132_fc_s04_false_cat_35_n02123159_6089.png
subject-04,1,133,1.11438512802124,car,car,false,0133_fc_s04_false_car_35_n04285008_3269.png
subject-04,1,134,0.902031898498535,keyboard,keyboard,true,0134_fc_s04_true_keyboard_35_n03085013_20825.png
subject-04,1,135,0.593930959701538,car,car,true,0135_fc_s04_true_car_35_n02814533_46508.png
subject-04,1,136,1.22017097473145,bicycle,elephant,false,0136_fc_s04_false_elephant_35_n02504013_1519.png
subject-04,1,137,0.703646898269653,bicycle,bicycle,false,0137_fc_s04_false_bicycle_35_n02835271_6554.png
subject-04,1,138,1.05753803253174,car,car,true,0138_fc_s04_true_car_35_n03100240_14045.png
subject-04,1,139,0.687211036682129,bird,bird,false,0139_fc_s04_false_bird_35_n02027492_3922.png
subject-04,1,140,0.811098098754883,chair,chair,true,0140_fc_s04_true_chair_35_n04099969_38402.png
subject-04,1,141,0.792840957641602,boat,boat,false,0141_fc_s04_false_boat_35_n03344393_4012.png
subject-04,1,142,1.00676608085632,car,car,false,0142_fc_s04_false_car_35_n03100240_9412.png
subject-04,1,143,0.894611120223999,bicycle,bicycle,true,0143_fc_s04_true_bicycle_35_n03792782_17545.png
subject-04,1,144,0.872687101364136,clock,clock,true,0144_fc_s04_true_clock_35_n03196217_845.png
subject-04,1,145,0.722116947174072,keyboard,keyboard,false,0145_fc_s04_false_keyboard_35_n03085013_16724.png
subject-04,1,146,0.751839876174927,chair,chair,true,0146_fc_s04_true_chair_35_n02791124_5438.png
subject-04,1,147,0.771798133850098,knife,knife,false,0147_fc_s04_false_knife_35_n03041632_27832.png
subject-04,1,148,0.731423139572144,bear,bear,true,0148_fc_s04_true_bear_35_n02133161_1302.png
subject-04,1,149,0.663324117660522,truck,truck,true,0149_fc_s04_true_truck_35_n04467665_13989.png
subject-04,1,150,0.907495975494385,keyboard,truck,false,0150_fc_s04_false_truck_35_n03796401_9136.png
subject-04,1,151,0.900905132293701,bear,bear,false,0151_fc_s04_false_bear_35_n02134418_1409.png
subject-04,1,152,0.764753818511963,bottle,bottle,true,0152_fc_s04_true_bottle_35_n03937543_469.png
subject-04,1,153,0.552423000335693,clock,clock,true,0153_fc_s04_true_clock_35_n02708093_1124.png
subject-04,1,154,0.554426908493042,boat,boat,false,0154_fc_s04_false_boat_35_n02951358_16040.png
subject-04,1,155,1.14207887649536,elephant,elephant,false,0155_fc_s04_false_elephant_35_n02504458_3881.png
subject-04,1,156,1.11805415153503,bicycle,bottle,false,0156_fc_s04_false_bottle_35_n04560804_2448.png
subject-04,1,157,0.809864044189453,boat,boat,false,0157_fc_s04_false_boat_35_n03662601_12323.png
subject-04,1,158,0.619617938995361,bicycle,bicycle,true,0158_fc_s04_true_bicycle_35_n03792782_51156.png
subject-04,1,159,0.869467973709106,bottle,bottle,false,0159_fc_s04_false_bottle_35_n02823428_4358.png
subject-04,1,160,0.519098043441772,boat,boat,false,0160_fc_s04_false_boat_35_n03662601_25404.png
subject-04,1,161,0.884742021560669,dog,dog,false,0161_fc_s04_false_dog_35_n02110806_3673.png
subject-04,1,162,0.758398056030273,chair,chair,false,0162_fc_s04_false_chair_35_n03376595_1943.png
subject-04,1,163,0.462460994720459,bicycle,bicycle,false,0163_fc_s04_false_bicycle_35_n02835271_14157.png
subject-04,1,164,0.694152116775513,cat,oven,false,0164_fc_s04_false_oven_35_n04111531_2150.png
subject-04,1,165,1.07622694969177,car,car,false,0165_fc_s04_false_car_35_n02814533_52866.png
subject-04,1,166,0.531867980957031,clock,clock,false,0166_fc_s04_false_clock_35_n02708093_6414.png
subject-04,1,167,0.981554985046387,boat,boat,false,0167_fc_s04_false_boat_35_n03662601_18579.png
subject-04,1,168,0.915335893630981,bear,bear,false,0168_fc_s04_false_bear_35_n02134418_5033.png
subject-04,1,169,0.779030084609985,chair,chair,false,0169_fc_s04_false_chair_35_n04429376_55163.png
subject-04,1,170,0.659297943115234,bird,bird,false,0170_fc_s04_false_bird_35_n01560419_14207.png
subject-04,1,171,0.685128927230835,bird,bird,false,0171_fc_s04_false_bird_35_n02009912_5983.png
subject-04,1,172,0.722561120986938,bottle,bottle,true,0172_fc_s04_true_bottle_35_n04560804_15843.png
subject-04,1,173,0.508296966552734,clock,clock,true,0173_fc_s04_true_clock_35_n02708093_3759.png
subject-04,1,174,0.89814305305481,chair,chair,false,0174_fc_s04_false_chair_35_n04099969_8961.png
subject-04,1,175,1.00010895729065,bicycle,bicycle,false,0175_fc_s04_false_bicycle_35_n03792782_14966.png
subject-04,1,176,0.787781953811646,airplane,airplane,true,0176_fc_s04_true_airplane_35_n02690373_4175.png
subject-04,1,177,0.933590173721313,clock,clock,true,0177_fc_s04_true_clock_35_n02708093_1775.png
subject-04,1,178,1.00550103187561,chair,chair,true,0178_fc_s04_true_chair_35_n04429376_16619.png
subject-04,1,179,1.39531993865967,airplane,airplane,true,0179_fc_s04_true_airplane_35_n02690373_9529.png
subject-04,1,180,0.641268968582153,chair,chair,false,0180_fc_s04_false_chair_35_n02791124_17045.png
subject-04,1,181,0.683062791824341,clock,clock,true,0181_fc_s04_true_clock_35_n03196217_5627.png
subject-04,1,182,1.00863695144653,cat,dog,true,0182_fc_s04_true_dog_35_n02107312_197.png
subject-04,1,183,0.662413120269775,elephant,elephant,false,0183_fc_s04_false_elephant_35_n02504458_4631.png
subject-04,1,184,0.848236083984375,bear,bear,false,0184_fc_s04_false_bear_35_n02134084_12070.png
subject-04,1,185,1.03223514556885,bottle,oven,false,0185_fc_s04_false_oven_35_n04111531_797.png
subject-04,1,186,1.05804395675659,elephant,elephant,false,0186_fc_s04_false_elephant_35_n02504013_4023.png
subject-04,1,187,0.568177938461304,bicycle,bicycle,true,0187_fc_s04_true_bicycle_35_n02835271_5648.png
subject-04,1,188,0.615570068359375,bear,bear,false,0188_fc_s04_false_bear_35_n02134418_4364.png
subject-04,1,189,0.71551513671875,cat,dog,true,0189_fc_s04_true_dog_35_n02113023_6956.png
subject-04,1,190,0.775116920471191,knife,knife,true,0190_fc_s04_true_knife_35_n03041632_965.png
subject-04,1,191,0.795021057128906,bird,bird,false,0191_fc_s04_false_bird_35_n01829413_2459.png
subject-04,1,192,0.785354137420654,knife,keyboard,true,0192_fc_s04_true_keyboard_35_n04505470_3002.png
subject-04,1,193,1.11449503898621,dog,bear,true,0193_fc_s04_true_bear_35_n02132136_8059.png
subject-04,1,194,0.876750946044922,bird,bird,false,0194_fc_s04_false_bird_35_n01592084_5925.png
subject-04,1,195,0.644265174865723,bird,bird,false,0195_fc_s04_false_bird_35_n01833805_4819.png
subject-04,1,196,0.66613507270813,bicycle,bicycle,false,0196_fc_s04_false_bicycle_35_n02835271_9672.png
subject-04,1,197,0.693888902664185,truck,truck,false,0197_fc_s04_false_truck_35_n03417042_6204.png
subject-04,1,198,0.535736799240112,cat,keyboard,true,0198_fc_s04_true_keyboard_35_n03085013_26449.png
subject-04,1,199,0.637564897537231,cat,cat,false,0199_fc_s04_false_cat_35_n02123597_13994.png
subject-04,1,200,0.547295093536377,bicycle,bicycle,false,0200_fc_s04_false_bicycle_35_n03792782_485.png
subject-04,1,201,0.916985988616943,bottle,bottle,false,0201_fc_s04_false_bottle_35_n03983396_12027.png
subject-04,1,202,0.844996929168701,truck,truck,true,0202_fc_s04_true_truck_35_n03796401_3695.png
subject-04,1,203,0.858855962753296,chair,knife,true,0203_fc_s04_true_knife_35_n03041632_98864.png
subject-04,1,204,1.18487191200256,bottle,bottle,true,0204_fc_s04_true_bottle_35_n04557648_2512.png
subject-04,1,205,0.708484888076782,elephant,elephant,false,0205_fc_s04_false_elephant_35_n02504013_11073.png
subject-04,1,206,1.01811909675598,bottle,oven,false,0206_fc_s04_false_oven_35_n04111531_4918.png
subject-04,1,207,0.746165990829468,airplane,airplane,true,0207_fc_s04_true_airplane_35_n02690373_5221.png
subject-04,1,208,0.735860824584961,keyboard,keyboard,true,0208_fc_s04_true_keyboard_35_n04505470_10035.png
subject-04,1,209,0.639661073684692,elephant,elephant,true,0209_fc_s04_true_elephant_35_n02504458_5501.png
subject-04,1,210,0.543301820755005,oven,oven,true,0210_fc_s04_true_oven_35_n04111531_547.png
subject-04,1,211,0.939136981964111,bottle,clock,false,0211_fc_s04_false_clock_35_n04548280_4542.png
subject-04,1,212,0.593123912811279,bottle,bottle,true,0212_fc_s04_true_bottle_35_n04557648_5458.png
subject-04,1,213,0.792980194091797,knife,knife,true,0213_fc_s04_true_knife_35_n03041632_84869.png
subject-04,1,214,1.01461505889893,car,car,false,0214_fc_s04_false_car_35_n03100240_9675.png
subject-04,1,215,0.80878210067749,dog,dog,true,0215_fc_s04_true_dog_35_n02100583_19533.png
subject-04,1,216,0.540521144866943,clock,clock,true,0216_fc_s04_true_clock_35_n02708093_275.png
subject-04,1,217,0.820242881774902,bear,bear,false,0217_fc_s04_false_bear_35_n02132136_2248.png
subject-04,1,218,1.04600501060486,bicycle,oven,false,0218_fc_s04_false_oven_35_n04111531_11794.png
subject-04,1,219,1.50013089179993,bicycle,bottle,false,0219_fc_s04_false_bottle_35_n04560804_2539.png
subject-04,1,220,0.685832023620605,oven,oven,false,0220_fc_s04_false_oven_35_n04111531_21120.png
subject-04,1,221,0.97747015953064,airplane,airplane,true,0221_fc_s04_true_airplane_35_n02690373_8350.png
subject-04,1,222,1.00510406494141,keyboard,keyboard,true,0222_fc_s04_true_keyboard_35_n04505470_8544.png
subject-04,1,223,1.01136612892151,elephant,elephant,true,0223_fc_s04_true_elephant_35_n02504458_2970.png
subject-04,1,224,0.648834943771362,truck,truck,false,0224_fc_s04_false_truck_35_n04467665_11888.png
subject-04,1,225,0.808629035949707,chair,chair,false,0225_fc_s04_false_chair_35_n03376595_635.png
subject-04,1,226,0.638523101806641,chair,chair,false,0226_fc_s04_false_chair_35_n04429376_5067.png
subject-04,1,227,0.838629007339478,bird,bird,false,0227_fc_s04_false_bird_35_n01796340_5485.png
subject-04,1,228,0.574069023132324,keyboard,keyboard,false,0228_fc_s04_false_keyboard_35_n04505470_2828.png
subject-04,1,229,1.46389389038086,truck,truck,false,0229_fc_s04_false_truck_35_n03417042_12908.png
subject-04,1,230,0.953657865524292,chair,bottle,false,0230_fc_s04_false_bottle_35_n04560804_15832.png
subject-04,1,231,0.493501901626587,chair,chair,true,0231_fc_s04_true_chair_35_n04099969_7998.png
subject-04,1,232,1.26927208900452,chair,chair,false,0232_fc_s04_false_chair_35_n03376595_9136.png
subject-04,1,233,0.867511987686157,bird,bird,false,0233_fc_s04_false_bird_35_n01860187_1815.png
subject-04,1,234,0.846808910369873,bottle,bottle,false,0234_fc_s04_false_bottle_35_n03983396_3782.png
subject-04,1,235,0.676777124404907,cat,cat,false,0235_fc_s04_false_cat_35_n02125311_31100.png
subject-04,1,236,0.704544067382812,elephant,elephant,false,0236_fc_s04_false_elephant_35_n02504013_1720.png
subject-04,1,237,0.662286996841431,airplane,airplane,true,0237_fc_s04_true_airplane_35_n02690373_8454.png
subject-04,1,238,0.728056907653809,bird,bird,false,0238_fc_s04_false_bird_35_n02018795_7504.png
subject-04,1,239,0.860448837280273,bicycle,truck,false,0239_fc_s04_false_truck_35_n03417042_4587.png
subject-04,1,240,0.760058164596558,bicycle,bicycle,false,0240_fc_s04_false_bicycle_35_n02835271_14585.png
subject-04,1,241,1.03969192504883,chair,chair,true,0241_fc_s04_true_chair_35_n03376595_4322.png
subject-04,1,242,0.795494794845581,truck,truck,true,0242_fc_s04_true_truck_35_n03796401_3940.png
subject-04,1,243,0.867180109024048,knife,knife,true,0243_fc_s04_true_knife_35_n03041632_8151.png
subject-04,1,244,0.728943109512329,cat,cat,true,0244_fc_s04_true_cat_35_n02123597_4040.png
subject-04,1,245,0.613136053085327,chair,chair,true,0245_fc_s04_true_chair_35_n04429376_29312.png
subject-04,1,246,0.640799045562744,knife,knife,true,0246_fc_s04_true_knife_35_n03041632_29337.png
subject-04,1,247,0.604737997055054,boat,boat,true,0247_fc_s04_true_boat_35_n03662601_9602.png
subject-04,1,248,0.858277082443237,bottle,bottle,true,0248_fc_s04_true_bottle_35_n02823428_10612.png
subject-04,1,249,1.13626003265381,bicycle,knife,true,0249_fc_s04_true_knife_35_n03041632_3926.png
subject-04,1,250,0.688002824783325,bird,bird,false,0250_fc_s04_false_bird_35_n01560419_2291.png
subject-04,1,251,0.743923902511597,elephant,elephant,true,0251_fc_s04_true_elephant_35_n02504013_9809.png
subject-04,1,252,0.945430040359497,bird,bird,true,0252_fc_s04_true_bird_35_n02013706_10478.png
subject-04,1,253,0.629545927047729,clock,clock,true,0253_fc_s04_true_clock_35_n04548280_3245.png
subject-04,1,254,0.756982088088989,boat,boat,false,0254_fc_s04_false_boat_35_n04612504_41355.png
subject-04,1,255,0.559051036834717,boat,boat,false,0255_fc_s04_false_boat_35_n04273569_9873.png
subject-04,1,256,0.822679996490479,bottle,bottle,false,0256_fc_s04_false_bottle_35_n03983396_8041.png
subject-04,1,257,1.02299904823303,truck,truck,false,0257_fc_s04_false_truck_35_n04467665_2044.png
subject-04,1,258,0.786751985549927,bottle,bottle,true,0258_fc_s04_true_bottle_35_n04591713_4291.png
subject-04,1,259,0.666185855865479,car,car,true,0259_fc_s04_true_car_35_n03100240_3151.png
subject-04,1,260,0.788220882415771,bird,bird,true,0260_fc_s04_true_bird_35_n01843383_9064.png
subject-04,1,261,1.01192808151245,elephant,elephant,false,0261_fc_s04_false_elephant_35_n02504013_2672.png
subject-04,1,262,0.857751846313477,dog,dog,true,0262_fc_s04_true_dog_35_n02096585_9543.png
subject-04,1,263,0.929590940475464,airplane,airplane,false,0263_fc_s04_false_airplane_35_n02690373_12896.png
subject-04,1,264,1.17334389686584,knife,knife,true,0264_fc_s04_true_knife_35_n03041632_1143.png
subject-04,1,265,0.990998983383179,cat,cat,false,0265_fc_s04_false_cat_35_n02123159_2757.png
subject-04,1,266,1.14502096176147,bottle,bottle,true,0266_fc_s04_true_bottle_35_n04591713_5518.png
subject-04,1,267,1.0246160030365,chair,chair,false,0267_fc_s04_false_chair_35_n04429376_10453.png
subject-04,1,268,0.88240909576416,oven,oven,true,0268_fc_s04_true_oven_35_n04111531_3353.png
subject-04,1,269,0.758209943771362,dog,dog,false,0269_fc_s04_false_dog_35_n02107683_2904.png
subject-04,1,270,0.958444118499756,airplane,airplane,false,0270_fc_s04_false_airplane_35_n02690373_3362.png
subject-04,1,271,0.558159112930298,cat,cat,true,0271_fc_s04_true_cat_35_n02123159_6087.png
subject-04,1,272,1.05214500427246,bottle,bottle,false,0272_fc_s04_false_bottle_35_n04560804_915.png
subject-04,1,273,0.859413146972656,truck,truck,false,0273_fc_s04_false_truck_35_n03796401_124.png
subject-04,1,274,0.841663122177124,bear,bear,true,0274_fc_s04_true_bear_35_n02134418_2022.png
subject-04,1,275,0.821709871292114,keyboard,keyboard,false,0275_fc_s04_false_keyboard_35_n04505470_2868.png
subject-04,1,276,0.699015140533447,truck,truck,false,0276_fc_s04_false_truck_35_n03796401_19114.png
subject-04,1,277,1.08708786964417,car,car,false,0277_fc_s04_false_car_35_n03100240_13908.png
subject-04,1,278,0.634772062301636,airplane,airplane,true,0278_fc_s04_true_airplane_35_n02690373_1615.png
subject-04,1,279,0.80460000038147,bottle,bottle,false,0279_fc_s04_false_bottle_35_n04560804_10411.png
subject-04,1,280,1.21664595603943,dog,dog,true,0280_fc_s04_true_dog_35_n02108915_10239.png
subject-04,1,281,1.00400495529175,dog,bear,true,0281_fc_s04_true_bear_35_n02134418_830.png
subject-04,1,282,1.04800605773926,dog,oven,false,0282_fc_s04_false_oven_35_n04111531_3181.png
subject-04,1,283,0.579694032669067,oven,oven,true,0283_fc_s04_true_oven_35_n04111531_7064.png
subject-04,1,284,1.36942791938782,bottle,bottle,true,0284_fc_s04_true_bottle_35_n04557648_10123.png
subject-04,1,285,1.09338188171387,elephant,elephant,true,0285_fc_s04_true_elephant_35_n02504013_11033.png
subject-04,1,286,0.981338024139404,elephant,elephant,false,0286_fc_s04_false_elephant_35_n02504013_5774.png
subject-04,1,287,0.611057043075562,boat,boat,true,0287_fc_s04_true_boat_35_n04273569_11645.png
subject-04,1,288,0.834770917892456,bear,bear,false,0288_fc_s04_false_bear_35_n02133161_11351.png
subject-04,1,289,0.882655143737793,car,car,true,0289_fc_s04_true_car_35_n02814533_25278.png
subject-04,1,290,0.846472978591919,oven,oven,false,0290_fc_s04_false_oven_35_n04111531_688.png
subject-04,1,291,0.960347175598145,bicycle,bicycle,true,0291_fc_s04_true_bicycle_35_n02835271_29653.png
subject-04,1,292,0.732571840286255,bicycle,bicycle,false,0292_fc_s04_false_bicycle_35_n03792782_51335.png
subject-04,1,293,0.627732992172241,boat,boat,false,0293_fc_s04_false_boat_35_n02951358_29495.png
subject-04,1,294,0.749640226364136,keyboard,keyboard,false,0294_fc_s04_false_keyboard_35_n04505470_3937.png
subject-04,1,295,0.721904039382935,bird,bird,true,0295_fc_s04_true_bird_35_n01828970_25642.png
subject-04,1,296,1.1572699546814,car,car,true,0296_fc_s04_true_car_35_n04285008_5440.png
subject-04,1,297,0.888957977294922,car,car,false,0297_fc_s04_false_car_35_n03100240_20185.png
subject-04,1,298,0.714838981628418,dog,dog,true,0298_fc_s04_true_dog_35_n02088466_7803.png
subject-04,1,299,0.994616031646729,bird,bird,true,0299_fc_s04_true_bird_35_n01582220_4924.png
subject-04,1,300,0.640532970428467,oven,oven,true,0300_fc_s04_true_oven_35_n04111531_12769.png
subject-04,1,301,0.850250005722046,keyboard,keyboard,true,0301_fc_s04_true_keyboard_35_n03085013_18891.png
subject-04,1,302,0.688189029693604,bottle,bottle,false,0302_fc_s04_false_bottle_35_n02823428_14149.png
subject-04,1,303,0.681987047195435,cat,cat,true,0303_fc_s04_true_cat_35_n02123597_7908.png
subject-04,1,304,0.649741172790527,bicycle,bicycle,true,0304_fc_s04_true_bicycle_35_n02835271_4446.png
subject-04,1,305,1.01341795921326,chair,chair,true,0305_fc_s04_true_chair_35_n04099969_6309.png
subject-04,1,306,1.01939296722412,cat,cat,false,0306_fc_s04_false_cat_35_n02123597_9467.png
subject-04,1,307,0.939089059829712,airplane,airplane,true,0307_fc_s04_true_airplane_35_n02690373_1360.png
subject-04,1,308,0.959397077560425,dog,dog,false,0308_fc_s04_false_dog_35_n02102973_7095.png
subject-04,1,309,0.678750991821289,bear,bear,false,0309_fc_s04_false_bear_35_n02132136_451.png
subject-04,1,310,1.12305808067322,bicycle,bicycle,true,0310_fc_s04_true_bicycle_35_n02835271_6137.png
subject-04,1,311,0.498384952545166,clock,clock,true,0311_fc_s04_true_clock_35_n04548280_309.png
subject-04,1,312,0.532368898391724,cat,cat,false,0312_fc_s04_false_cat_35_n02123045_15010.png
subject-04,1,313,0.890099048614502,truck,truck,false,0313_fc_s04_false_truck_35_n04467665_49656.png
subject-04,1,314,0.658016920089722,truck,truck,true,0314_fc_s04_true_truck_35_n03417042_26865.png
subject-04,1,315,1.18769598007202,clock,clock,true,0315_fc_s04_true_clock_35_n03196217_3351.png
subject-04,1,316,1.00347399711609,chair,airplane,true,0316_fc_s04_true_airplane_35_n02690373_7698.png
subject-04,1,317,0.477347135543823,boat,boat,true,0317_fc_s04_true_boat_35_n04273569_709.png
subject-04,1,318,0.451302051544189,clock,clock,true,0318_fc_s04_true_clock_35_n02708093_3360.png
subject-04,1,319,0.439218997955322,boat,boat,true,0319_fc_s04_true_boat_35_n04273569_2698.png
subject-04,1,320,0.628669023513794,boat,boat,true,0320_fc_s04_true_boat_35_n04612504_254.png
subject-04,1,321,0.786322116851807,bicycle,bicycle,true,0321_fc_s04_true_bicycle_35_n03792782_2057.png
subject-04,1,322,0.526538848876953,clock,clock,true,0322_fc_s04_true_clock_35_n04548280_3303.png
subject-04,1,323,0.661867141723633,clock,clock,true,0323_fc_s04_true_clock_35_n03196217_3669.png
subject-04,1,324,0.893884897232056,car,car,false,0324_fc_s04_false_car_35_n02814533_4978.png
subject-04,1,325,0.76575493812561,airplane,airplane,false,0325_fc_s04_false_airplane_35_n02690373_4199.png
subject-04,1,326,0.757634878158569,keyboard,keyboard,false,0326_fc_s04_false_keyboard_35_n04505470_3499.png
subject-04,1,327,0.771603107452393,oven,oven,true,0327_fc_s04_true_oven_35_n04111531_8681.png
subject-04,1,328,0.826982021331787,chair,chair,true,0328_fc_s04_true_chair_35_n02791124_2150.png
subject-04,1,329,0.53695011138916,clock,clock,true,0329_fc_s04_true_clock_35_n04548280_5408.png
subject-04,1,330,0.634587049484253,bottle,bottle,false,0330_fc_s04_false_bottle_35_n04591713_6851.png
subject-04,1,331,0.630556106567383,cat,cat,true,0331_fc_s04_true_cat_35_n02124075_2806.png
subject-04,1,332,0.666471004486084,oven,oven,false,0332_fc_s04_false_oven_35_n04111531_4050.png
subject-04,1,333,0.774049043655396,bird,bird,true,0333_fc_s04_true_bird_35_n01560419_631.png
subject-04,1,334,1.28635883331299,bottle,boat,false,0334_fc_s04_false_boat_35_n03344393_994.png
subject-04,1,335,0.693744897842407,boat,airplane,true,0335_fc_s04_true_airplane_35_n02690373_5130.png
subject-04,1,336,0.581598997116089,boat,boat,false,0336_fc_s04_false_boat_35_n02951358_26227.png
subject-04,1,337,0.74372410774231,bird,bird,true,0337_fc_s04_true_bird_35_n01829413_282.png
subject-04,1,338,0.72910213470459,bottle,bottle,true,0338_fc_s04_true_bottle_35_n04579145_1457.png
subject-04,1,339,0.958887100219727,airplane,airplane,true,0339_fc_s04_true_airplane_35_n02690373_3383.png
subject-04,1,340,1.01070713996887,truck,truck,false,0340_fc_s04_false_truck_35_n03417042_16238.png
subject-04,1,341,0.648662090301514,clock,clock,false,0341_fc_s04_false_clock_35_n02708093_2006.png
subject-04,1,342,0.984425067901611,bird,bird,false,0342_fc_s04_false_bird_35_n01796340_4853.png
subject-04,1,343,0.652388095855713,bear,bear,false,0343_fc_s04_false_bear_35_n02133161_6983.png
subject-04,1,344,0.704062938690186,keyboard,keyboard,false,0344_fc_s04_false_keyboard_35_n04505470_5086.png
subject-04,1,345,0.623852968215942,chair,chair,false,0345_fc_s04_false_chair_35_n03376595_787.png
subject-04,1,346,0.633611917495728,chair,chair,false,0346_fc_s04_false_chair_35_n04099969_6189.png
subject-04,1,347,0.663492202758789,oven,oven,true,0347_fc_s04_true_oven_35_n04111531_12929.png
subject-04,1,348,0.743455171585083,clock,clock,false,0348_fc_s04_false_clock_35_n03196217_8785.png
subject-04,1,349,1.21514797210693,dog,cat,false,0349_fc_s04_false_cat_35_n02123159_6170.png
subject-04,1,350,0.652879953384399,boat,airplane,true,0350_fc_s04_true_airplane_35_n02690373_2068.png
subject-04,1,351,0.676731109619141,knife,knife,true,0351_fc_s04_true_knife_35_n03041632_9671.png
subject-04,1,352,0.936436891555786,truck,truck,true,0352_fc_s04_true_truck_35_n04467665_3094.png
subject-04,1,353,0.786517858505249,dog,dog,true,0353_fc_s04_true_dog_35_n02109047_4167.png
subject-04,1,354,0.706031084060669,knife,knife,true,0354_fc_s04_true_knife_35_n03041632_17067.png
subject-04,1,355,0.785933971405029,oven,oven,true,0355_fc_s04_true_oven_35_n04111531_21460.png
subject-04,1,356,1.03773093223572,chair,chair,true,0356_fc_s04_true_chair_35_n04429376_20873.png
subject-04,1,357,0.855734825134277,bear,bear,true,0357_fc_s04_true_bear_35_n02132136_14829.png
subject-04,1,358,0.781245946884155,truck,truck,true,0358_fc_s04_true_truck_35_n03796401_7380.png
subject-04,1,359,1.06121611595154,chair,car,true,0359_fc_s04_true_car_35_n04285008_14161.png
subject-04,1,360,0.957129001617432,keyboard,keyboard,false,0360_fc_s04_false_keyboard_35_n04505470_3970.png
subject-04,1,361,0.574695110321045,cat,cat,false,0361_fc_s04_false_cat_35_n02123394_4383.png
subject-04,1,362,0.79262113571167,dog,dog,false,0362_fc_s04_false_dog_35_n02111277_25819.png
subject-04,1,363,0.774535179138184,bottle,bottle,true,0363_fc_s04_true_bottle_35_n03983396_11788.png
subject-04,1,364,0.568201065063477,car,car,true,0364_fc_s04_true_car_35_n04285008_9456.png
subject-04,1,365,0.956143140792847,airplane,airplane,false,0365_fc_s04_false_airplane_35_n02690373_1912.png
subject-04,1,366,0.919857978820801,bird,bird,true,0366_fc_s04_true_bird_35_n01614925_1962.png
subject-04,1,367,0.941838026046753,chair,bear,true,0367_fc_s04_true_bear_35_n02133161_10632.png
subject-04,1,368,0.837409973144531,bird,bird,false,0368_fc_s04_false_bird_35_n02013706_5736.png
subject-04,1,369,0.78738808631897,bicycle,bicycle,false,0369_fc_s04_false_bicycle_35_n03792782_23334.png
subject-04,1,370,0.845360994338989,elephant,elephant,false,0370_fc_s04_false_elephant_35_n02504458_8060.png
subject-04,1,371,0.927001953125,airplane,airplane,false,0371_fc_s04_false_airplane_35_n02690373_1831.png
subject-04,1,372,0.742752075195312,boat,boat,false,0372_fc_s04_false_boat_35_n03662601_10330.png
subject-04,1,373,0.967029094696045,keyboard,keyboard,true,0373_fc_s04_true_keyboard_35_n03085013_21769.png
subject-04,1,374,0.9044349193573,bicycle,bicycle,false,0374_fc_s04_false_bicycle_35_n02835271_12701.png
subject-04,1,375,0.668336153030396,elephant,elephant,false,0375_fc_s04_false_elephant_35_n02504458_4849.png
subject-04,1,376,1.10216999053955,bird,bird,false,0376_fc_s04_false_bird_35_n02013706_16546.png
subject-04,1,377,0.489765882492065,clock,clock,true,0377_fc_s04_true_clock_35_n04548280_7794.png
subject-04,1,378,1.00353598594666,bottle,knife,true,0378_fc_s04_true_knife_35_n03041632_36390.png
subject-04,1,379,1.00339508056641,dog,dog,false,0379_fc_s04_false_dog_35_n02094258_5084.png
subject-04,1,380,0.531194925308228,bicycle,bicycle,true,0380_fc_s04_true_bicycle_35_n02835271_4191.png
subject-04,1,381,0.803056001663208,car,car,true,0381_fc_s04_true_car_35_n04285008_10006.png
subject-04,1,382,0.662966966629028,keyboard,keyboard,true,0382_fc_s04_true_keyboard_35_n04505470_2669.png
subject-04,1,383,0.82497501373291,bear,bear,false,0383_fc_s04_false_bear_35_n02133161_13356.png
subject-04,1,384,0.740374088287354,car,car,false,0384_fc_s04_false_car_35_n03100240_2425.png
subject-04,1,385,1.01231217384338,boat,boat,true,0385_fc_s04_true_boat_35_n03344393_6799.png
subject-04,1,386,0.752230882644653,bottle,bottle,true,0386_fc_s04_true_bottle_35_n04591713_5702.png
subject-04,1,387,0.879878997802734,oven,oven,true,0387_fc_s04_true_oven_35_n04111531_3477.png
subject-04,1,388,0.853767871856689,knife,knife,true,0388_fc_s04_true_knife_35_n03041632_22480.png
subject-04,1,389,0.747552156448364,bear,bear,true,0389_fc_s04_true_bear_35_n02132136_7872.png
subject-04,1,390,0.567390918731689,clock,clock,false,0390_fc_s04_false_clock_35_n02708093_616.png
subject-04,1,391,0.799236059188843,dog,dog,true,0391_fc_s04_true_dog_35_n02102318_9359.png
subject-04,1,392,0.779235124588013,bottle,bottle,false,0392_fc_s04_false_bottle_35_n02823428_3402.png
subject-04,1,393,0.878803014755249,cat,bear,false,0393_fc_s04_false_bear_35_n02132136_10988.png
subject-04,1,394,0.484517812728882,bear,bear,true,0394_fc_s04_true_bear_35_n02132136_3090.png
subject-04,1,395,0.880491971969604,dog,dog,false,0395_fc_s04_false_dog_35_n02093754_5867.png
subject-04,1,396,0.63640284538269,clock,clock,false,0396_fc_s04_false_clock_35_n02708093_2744.png
subject-04,1,397,0.868230104446411,chair,clock,false,0397_fc_s04_false_clock_35_n03196217_8489.png
subject-04,1,398,0.481786966323853,clock,clock,false,0398_fc_s04_false_clock_35_n02708093_56.png
subject-04,1,399,1.04960489273071,keyboard,bottle,true,0399_fc_s04_true_bottle_35_n04591713_4030.png
subject-04,1,400,0.585403919219971,knife,knife,false,0400_fc_s04_false_knife_35_n03041632_25512.png
subject-04,1,401,1.49719500541687,chair,chair,false,0401_fc_s04_false_chair_35_n04429376_6272.png
subject-04,1,402,0.619240999221802,bottle,bottle,true,0402_fc_s04_true_bottle_35_n02823428_5807.png
subject-04,1,403,0.720770120620728,car,car,true,0403_fc_s04_true_car_35_n03100240_2632.png
subject-04,1,404,0.823101043701172,elephant,elephant,true,0404_fc_s04_true_elephant_35_n02504458_379.png
subject-04,1,405,1.46633982658386,boat,boat,false,0405_fc_s04_false_boat_35_n03662601_4612.png
subject-04,1,406,1.14458298683167,clock,oven,false,0406_fc_s04_false_oven_35_n04111531_4574.png
subject-04,1,407,0.636008024215698,elephant,elephant,true,0407_fc_s04_true_elephant_35_n02504458_3197.png
subject-04,1,408,0.683908939361572,boat,boat,false,0408_fc_s04_false_boat_35_n02951358_8503.png
subject-04,1,409,0.751754999160767,elephant,elephant,true,0409_fc_s04_true_elephant_35_n02504458_4819.png
subject-04,1,410,0.83356499671936,chair,chair,true,0410_fc_s04_true_chair_35_n03376595_3015.png
subject-04,1,411,1.22956204414368,dog,dog,false,0411_fc_s04_false_dog_35_n02087394_9938.png
subject-04,1,412,0.833177089691162,car,car,false,0412_fc_s04_false_car_35_n03100240_6311.png
subject-04,1,413,0.656986951828003,clock,clock,false,0413_fc_s04_false_clock_35_n02708093_2054.png
subject-04,1,414,0.592887163162231,cat,bear,true,0414_fc_s04_true_bear_35_n02133161_1571.png
subject-04,1,415,0.565101146697998,clock,clock,false,0415_fc_s04_false_clock_35_n04548280_3994.png
subject-04,1,416,0.812396049499512,keyboard,keyboard,false,0416_fc_s04_false_keyboard_35_n04505470_4549.png
subject-04,1,417,0.570109128952026,oven,oven,false,0417_fc_s04_false_oven_35_n04111531_5801.png
subject-04,1,418,0.608157873153687,bicycle,bicycle,true,0418_fc_s04_true_bicycle_35_n02835271_9531.png
subject-04,1,419,0.709841966629028,elephant,elephant,false,0419_fc_s04_false_elephant_35_n02504458_9049.png
subject-04,1,420,0.667461156845093,oven,oven,true,0420_fc_s04_true_oven_35_n04111531_7449.png
subject-04,1,421,1.1713330745697,dog,dog,true,0421_fc_s04_true_dog_35_n02112018_9196.png
subject-04,1,422,0.849148035049438,car,car,false,0422_fc_s04_false_car_35_n03100240_6626.png
subject-04,1,423,0.701210975646973,airplane,airplane,true,0423_fc_s04_true_airplane_35_n02690373_4921.png
subject-04,1,424,1.25893998146057,clock,clock,true,0424_fc_s04_true_clock_35_n03196217_11054.png
subject-04,1,425,0.582605123519897,cat,cat,false,0425_fc_s04_false_cat_35_n02125311_2401.png
subject-04,1,426,0.462499856948853,oven,oven,true,0426_fc_s04_true_oven_35_n04111531_4227.png
subject-04,1,427,0.396162033081055,clock,clock,false,0427_fc_s04_false_clock_35_n04548280_1022.png
subject-04,1,428,0.622194051742554,bird,bird,true,0428_fc_s04_true_bird_35_n01592084_3972.png
subject-04,1,429,0.714005947113037,chair,chair,true,0429_fc_s04_true_chair_35_n04099969_9745.png
subject-04,1,430,0.607738971710205,boat,boat,false,0430_fc_s04_false_boat_35_n04612504_20125.png
subject-04,1,431,0.51782488822937,airplane,airplane,true,0431_fc_s04_true_airplane_35_n02690373_2796.png
subject-04,1,432,0.77328896522522,bear,bear,true,0432_fc_s04_true_bear_35_n02132136_4070.png
subject-04,1,433,0.845043182373047,elephant,elephant,true,0433_fc_s04_true_elephant_35_n02504458_5788.png
subject-04,1,434,0.577033042907715,cat,dog,false,0434_fc_s04_false_dog_35_n02096294_4609.png
subject-04,1,435,0.480696201324463,clock,clock,false,0435_fc_s04_false_clock_35_n02708093_5734.png
subject-04,1,436,0.432916879653931,chair,chair,true,0436_fc_s04_true_chair_35_n03376595_1273.png
subject-04,1,437,0.590449094772339,chair,chair,true,0437_fc_s04_true_chair_35_n03376595_7394.png
subject-04,1,438,0.522364854812622,keyboard,keyboard,false,0438_fc_s04_false_keyboard_35_n04505470_2600.png
subject-04,1,439,0.57221508026123,car,car,true,0439_fc_s04_true_car_35_n03100240_5865.png
subject-04,1,440,1.12770104408264,keyboard,bottle,true,0440_fc_s04_true_bottle_35_n04591713_7133.png
subject-04,1,441,0.826066017150879,bottle,knife,true,0441_fc_s04_true_knife_35_n03041632_27929.png
subject-04,1,442,0.881624937057495,chair,chair,true,0442_fc_s04_true_chair_35_n03376595_10986.png
subject-04,1,443,0.777320861816406,chair,chair,true,0443_fc_s04_true_chair_35_n02791124_15934.png
subject-04,1,444,0.587065935134888,bird,bird,true,0444_fc_s04_true_bird_35_n01798484_9155.png
subject-04,1,445,0.995232105255127,keyboard,keyboard,false,0445_fc_s04_false_keyboard_35_n03085013_28584.png
subject-04,1,446,0.772719860076904,elephant,elephant,false,0446_fc_s04_false_elephant_35_n02504013_237.png
subject-04,1,447,0.888463020324707,car,car,true,0447_fc_s04_true_car_35_n04285008_2900.png
subject-04,1,448,0.626545906066895,bear,bear,false,0448_fc_s04_false_bear_35_n02132136_7754.png
subject-04,1,449,1.4381160736084,keyboard,truck,true,0449_fc_s04_true_truck_35_n04467665_23055.png
subject-04,1,450,0.761842012405396,truck,truck,false,0450_fc_s04_false_truck_35_n03417042_2124.png
subject-04,1,451,0.843800067901611,knife,knife,false,0451_fc_s04_false_knife_35_n03041632_38610.png
subject-04,1,452,0.701462984085083,clock,clock,true,0452_fc_s04_true_clock_35_n03196217_5888.png
subject-04,1,453,0.837308883666992,bottle,bottle,true,0453_fc_s04_true_bottle_35_n04560804_6392.png
subject-04,1,454,1.03720211982727,truck,truck,true,0454_fc_s04_true_truck_35_n04467665_2246.png
subject-04,1,455,0.641089916229248,oven,oven,true,0455_fc_s04_true_oven_35_n04111531_1898.png
subject-04,1,456,0.712920904159546,dog,dog,true,0456_fc_s04_true_dog_35_n02113624_2530.png
subject-04,1,457,0.812546968460083,elephant,elephant,true,0457_fc_s04_true_elephant_35_n02504013_5432.png
subject-04,1,458,0.964596033096313,bear,bear,false,0458_fc_s04_false_bear_35_n02134084_22997.png
subject-04,1,459,0.922294139862061,keyboard,keyboard,true,0459_fc_s04_true_keyboard_35_n03085013_22796.png
subject-04,1,460,0.650192022323608,oven,oven,false,0460_fc_s04_false_oven_35_n04111531_5473.png
subject-04,1,461,0.694323062896729,airplane,airplane,false,0461_fc_s04_false_airplane_35_n02690373_7735.png
subject-04,1,462,0.995770931243896,knife,knife,true,0462_fc_s04_true_knife_35_n03041632_24883.png
subject-04,1,463,0.665676116943359,clock,clock,true,0463_fc_s04_true_clock_35_n03196217_3430.png
subject-04,1,464,0.857270002365112,bicycle,bicycle,false,0464_fc_s04_false_bicycle_35_n03792782_828.png
subject-04,1,465,0.797317028045654,bear,bear,true,0465_fc_s04_true_bear_35_n02134084_14754.png
subject-04,1,466,0.640995979309082,bird,bird,false,0466_fc_s04_false_bird_35_n01796340_20055.png
subject-04,1,467,0.794734001159668,knife,knife,true,0467_fc_s04_true_knife_35_n03041632_86251.png
subject-04,1,468,1.00658893585205,car,car,true,0468_fc_s04_true_car_35_n04285008_16701.png
subject-04,1,469,0.86046290397644,truck,truck,true,0469_fc_s04_true_truck_35_n03796401_3386.png
subject-04,1,470,0.75816798210144,bear,bear,false,0470_fc_s04_false_bear_35_n02133161_3191.png
subject-04,1,471,1.0699200630188,airplane,airplane,false,0471_fc_s04_false_airplane_35_n02690373_5029.png
subject-04,1,472,1.08788084983826,car,car,false,0472_fc_s04_false_car_35_n02814533_33576.png
subject-04,1,473,0.639681816101074,bird,bird,false,0473_fc_s04_false_bird_35_n02037110_21381.png
subject-04,1,474,0.837481021881104,dog,dog,false,0474_fc_s04_false_dog_35_n02106662_56099.png
subject-04,1,475,0.475440979003906,boat,boat,true,0475_fc_s04_true_boat_35_n02951358_32687.png
subject-04,1,476,0.846943855285645,bicycle,bicycle,false,0476_fc_s04_false_bicycle_35_n02835271_9772.png
subject-04,1,477,0.824892997741699,bear,bear,true,0477_fc_s04_true_bear_35_n02132136_258.png
subject-04,1,478,1.20706796646118,cat,cat,false,0478_fc_s04_false_cat_35_n02123159_358.png
subject-04,1,479,0.764793872833252,truck,truck,false,0479_fc_s04_false_truck_35_n03417042_28742.png
subject-04,1,480,0.732337951660156,dog,dog,true,0480_fc_s04_true_dog_35_n02096437_1984.png
subject-04,1,481,0.616409063339233,bird,bird,false,0481_fc_s04_false_bird_35_n01828970_2276.png
subject-04,1,482,0.664572954177856,boat,boat,false,0482_fc_s04_false_boat_35_n03344393_8492.png
subject-04,1,483,0.716413021087646,bicycle,bicycle,true,0483_fc_s04_true_bicycle_35_n03792782_5959.png
subject-04,1,484,0.447890996932983,boat,boat,true,0484_fc_s04_true_boat_35_n02951358_31470.png
subject-04,1,485,0.687912940979004,cat,cat,false,0485_fc_s04_false_cat_35_n02123597_3575.png
subject-04,1,486,1.14158082008362,elephant,elephant,false,0486_fc_s04_false_elephant_35_n02504013_3771.png
subject-04,1,487,0.639370918273926,keyboard,keyboard,false,0487_fc_s04_false_keyboard_35_n04505470_7388.png
subject-04,1,488,0.933101177215576,truck,truck,true,0488_fc_s04_true_truck_35_n03417042_29353.png
subject-04,1,489,0.887331962585449,bottle,bottle,false,0489_fc_s04_false_bottle_35_n04579145_6435.png
subject-04,1,490,1.22898387908936,bear,bear,true,0490_fc_s04_true_bear_35_n02132136_8516.png
subject-04,1,491,0.702537059783936,car,car,true,0491_fc_s04_true_car_35_n03100240_9497.png
subject-04,1,492,0.782520055770874,knife,knife,false,0492_fc_s04_false_knife_35_n03041632_104379.png
subject-04,1,493,0.926240921020508,airplane,airplane,false,0493_fc_s04_false_airplane_35_n02690373_3753.png
subject-04,1,494,0.926248073577881,bicycle,bicycle,true,0494_fc_s04_true_bicycle_35_n02835271_31.png
subject-04,1,495,0.784048795700073,truck,truck,false,0495_fc_s04_false_truck_35_n03417042_3066.png
subject-04,1,496,0.525749206542969,cat,cat,true,0496_fc_s04_true_cat_35_n02124075_7059.png
subject-04,1,497,0.957587957382202,bear,bear,false,0497_fc_s04_false_bear_35_n02133161_5067.png
subject-04,1,498,0.689696073532104,bird,bird,false,0498_fc_s04_false_bird_35_n02002556_25052.png
subject-04,1,499,1.14937901496887,elephant,elephant,false,0499_fc_s04_false_elephant_35_n02504013_2148.png
subject-04,1,500,1.24093699455261,car,boat,false,0500_fc_s04_false_boat_35_n02951358_12867.png
subject-04,1,501,1.10856008529663,airplane,airplane,true,0501_fc_s04_true_airplane_35_n02690373_9848.png
subject-04,1,502,1.38640904426575,bear,bear,true,0502_fc_s04_true_bear_35_n02134084_22292.png
subject-04,1,503,0.874455213546753,airplane,airplane,true,0503_fc_s04_true_airplane_35_n02690373_9241.png
subject-04,1,504,1.08227682113647,car,car,false,0504_fc_s04_false_car_35_n03100240_7120.png
subject-04,1,505,1.06021285057068,keyboard,keyboard,true,0505_fc_s04_true_keyboard_35_n03085013_3980.png
subject-04,1,506,0.87781810760498,car,car,false,0506_fc_s04_false_car_35_n02814533_10329.png
subject-04,1,507,0.631539106369019,clock,clock,false,0507_fc_s04_false_clock_35_n04548280_5466.png
subject-04,1,508,0.529451131820679,oven,oven,true,0508_fc_s04_true_oven_35_n04111531_17809.png
subject-04,1,509,1.11116886138916,boat,bear,false,0509_fc_s04_false_bear_35_n02134418_4485.png
subject-04,1,510,1.19110989570618,car,airplane,false,0510_fc_s04_false_airplane_35_n02690373_2075.png
subject-04,1,511,0.710831165313721,car,car,true,0511_fc_s04_true_car_35_n04285008_2841.png
subject-04,1,512,0.884983062744141,bird,bird,true,0512_fc_s04_true_bird_35_n01622779_5441.png
subject-04,1,513,0.644335031509399,clock,clock,false,0513_fc_s04_false_clock_35_n02708093_3745.png
subject-04,1,514,0.572278022766113,car,car,true,0514_fc_s04_true_car_35_n03100240_21982.png
subject-04,1,515,0.59616494178772,oven,oven,true,0515_fc_s04_true_oven_35_n04111531_12820.png
subject-04,1,516,0.804049968719482,knife,knife,false,0516_fc_s04_false_knife_35_n03041632_18532.png
subject-04,1,517,0.769836187362671,dog,dog,true,0517_fc_s04_true_dog_35_n02108000_5247.png
subject-04,1,518,0.497530937194824,oven,oven,false,0518_fc_s04_false_oven_35_n04111531_11935.png
subject-04,1,519,0.655688047409058,car,car,true,0519_fc_s04_true_car_35_n03100240_17973.png
subject-04,1,520,0.583148956298828,keyboard,keyboard,false,0520_fc_s04_false_keyboard_35_n04505470_5092.png
subject-04,1,521,0.481003046035767,boat,airplane,true,0521_fc_s04_true_airplane_35_n02690373_3920.png
subject-04,1,522,0.406757116317749,clock,clock,true,0522_fc_s04_true_clock_35_n04548280_8071.png
subject-04,1,523,1.00874090194702,bicycle,bicycle,true,0523_fc_s04_true_bicycle_35_n02835271_6539.png
subject-04,1,524,1.36447787284851,cat,elephant,true,0524_fc_s04_true_elephant_35_n02504458_5187.png
subject-04,1,525,0.592188835144043,bear,bear,true,0525_fc_s04_true_bear_35_n02134084_4490.png
subject-04,1,526,0.652050971984863,airplane,airplane,false,0526_fc_s04_false_airplane_35_n02690373_6524.png
subject-04,1,527,1.08418822288513,bicycle,bicycle,false,0527_fc_s04_false_bicycle_35_n03792782_70169.png
subject-04,1,528,0.805757999420166,boat,boat,true,0528_fc_s04_true_boat_35_n02951358_31514.png
subject-04,1,529,0.943638801574707,oven,oven,true,0529_fc_s04_true_oven_35_n04111531_1674.png
subject-04,1,530,0.631229877471924,bottle,bottle,true,0530_fc_s04_true_bottle_35_n04560804_5636.png
subject-04,1,531,1.01903104782104,car,car,true,0531_fc_s04_true_car_35_n02814533_55937.png
subject-04,1,532,0.813261985778809,knife,knife,true,0532_fc_s04_true_knife_35_n03041632_13656.png
subject-04,1,533,0.892709970474243,chair,chair,false,0533_fc_s04_false_chair_35_n04099969_3414.png
subject-04,1,534,0.910454988479614,elephant,elephant,false,0534_fc_s04_false_elephant_35_n02504458_3491.png
subject-04,1,535,1.47840881347656,car,car,true,0535_fc_s04_true_car_35_n04285008_11323.png
subject-04,1,536,0.976077795028687,elephant,elephant,true,0536_fc_s04_true_elephant_35_n02504458_5412.png
subject-04,1,537,0.699855089187622,bicycle,bicycle,true,0537_fc_s04_true_bicycle_35_n03792782_8098.png
subject-04,1,538,0.955971956253052,dog,dog,true,0538_fc_s04_true_dog_35_n02105855_18455.png
subject-04,1,539,0.787509918212891,dog,dog,false,0539_fc_s04_false_dog_35_n02090721_129.png
subject-04,1,540,0.847598075866699,boat,boat,true,0540_fc_s04_true_boat_35_n03344393_4496.png
subject-04,1,541,0.853393077850342,airplane,airplane,false,0541_fc_s04_false_airplane_35_n02690373_12756.png
subject-04,1,542,0.893532037734985,bicycle,bicycle,false,0542_fc_s04_false_bicycle_35_n03792782_7576.png
subject-04,1,543,0.747227191925049,keyboard,keyboard,true,0543_fc_s04_true_keyboard_35_n04505470_4369.png
subject-04,1,544,0.908718109130859,bicycle,bicycle,true,0544_fc_s04_true_bicycle_35_n03792782_634.png
subject-04,1,545,0.724529981613159,boat,boat,false,0545_fc_s04_false_boat_35_n02951358_3067.png
subject-04,1,546,0.736553907394409,airplane,airplane,false,0546_fc_s04_false_airplane_35_n02690373_1837.png
subject-04,1,547,1.17999386787415,bear,bear,false,0547_fc_s04_false_bear_35_n02133161_12894.png
subject-04,1,548,1.09592890739441,car,car,false,0548_fc_s04_false_car_35_n03100240_10791.png
subject-04,1,549,0.68408203125,oven,oven,true,0549_fc_s04_true_oven_35_n04111531_22120.png
subject-04,1,550,0.461510181427002,bicycle,bicycle,true,0550_fc_s04_true_bicycle_35_n03792782_12578.png
subject-04,1,551,1.0292809009552,truck,truck,false,0551_fc_s04_false_truck_35_n04467665_11830.png
subject-04,1,552,0.989168882369995,bear,bear,false,0552_fc_s04_false_bear_35_n02134418_195.png
subject-04,1,553,0.751219987869263,bottle,bottle,false,0553_fc_s04_false_bottle_35_n04557648_3673.png
subject-04,1,554,0.810863971710205,bird,bird,true,0554_fc_s04_true_bird_35_n01833805_7514.png
subject-04,1,555,0.972681045532227,bicycle,bicycle,true,0555_fc_s04_true_bicycle_35_n02835271_3642.png
subject-04,1,556,0.922463893890381,bottle,bottle,true,0556_fc_s04_true_bottle_35_n04591713_5411.png
subject-04,1,557,0.528110980987549,cat,cat,false,0557_fc_s04_false_cat_35_n02123597_23346.png
subject-04,1,558,0.93618106842041,car,airplane,true,0558_fc_s04_true_airplane_35_n02690373_2431.png
subject-04,1,559,0.729974031448364,car,car,true,0559_fc_s04_true_car_35_n04285008_15049.png
subject-04,1,560,0.813722848892212,knife,knife,false,0560_fc_s04_false_knife_35_n03041632_29038.png
subject-04,1,561,0.905111074447632,truck,truck,true,0561_fc_s04_true_truck_35_n04467665_21542.png
subject-04,1,562,0.623198986053467,truck,truck,false,0562_fc_s04_false_truck_35_n04467665_197.png
subject-04,1,563,0.576779127120972,oven,oven,false,0563_fc_s04_false_oven_35_n04111531_6479.png
subject-04,1,564,0.80443811416626,bicycle,bicycle,false,0564_fc_s04_false_bicycle_35_n02835271_13404.png
subject-04,1,565,0.618672847747803,chair,chair,true,0565_fc_s04_true_chair_35_n03376595_9897.png
subject-04,1,566,1.09215211868286,knife,bird,false,0566_fc_s04_false_bird_35_n01558993_869.png
subject-04,1,567,0.76981782913208,chair,chair,true,0567_fc_s04_true_chair_35_n03376595_10153.png
subject-04,1,568,1.15177607536316,bird,bird,false,0568_fc_s04_false_bird_35_n01797886_12436.png
subject-04,1,569,0.547846078872681,bottle,bottle,true,0569_fc_s04_true_bottle_35_n04591713_3409.png
subject-04,1,570,0.819618940353394,bottle,keyboard,false,0570_fc_s04_false_keyboard_35_n03085013_23865.png
subject-04,1,571,0.851149082183838,clock,clock,true,0571_fc_s04_true_clock_35_n04548280_12615.png
subject-04,1,572,0.435225963592529,clock,clock,false,0572_fc_s04_false_clock_35_n03196217_6999.png
subject-04,1,573,0.846801996231079,airplane,airplane,true,0573_fc_s04_true_airplane_35_n02690373_10926.png
subject-04,1,574,0.63660717010498,clock,keyboard,false,0574_fc_s04_false_keyboard_35_n03085013_9244.png
subject-04,1,575,0.990848064422607,dog,dog,true,0575_fc_s04_true_dog_35_n02104365_8609.png
subject-04,1,576,0.564455986022949,oven,oven,false,0576_fc_s04_false_oven_35_n04111531_82.png
subject-04,1,577,0.701972961425781,bottle,bottle,true,0577_fc_s04_true_bottle_35_n03983396_1321.png
subject-04,1,578,1.26169300079346,clock,knife,true,0578_fc_s04_true_knife_35_n03041632_52929.png
subject-04,1,579,0.681710958480835,knife,knife,false,0579_fc_s04_false_knife_35_n03041632_16104.png
subject-04,1,580,0.927388906478882,dog,dog,true,0580_fc_s04_true_dog_35_n02108551_11297.png
subject-04,1,581,0.807144165039062,elephant,elephant,true,0581_fc_s04_true_elephant_35_n02504013_6431.png
subject-04,1,582,0.919049978256226,bear,bear,false,0582_fc_s04_false_bear_35_n02132136_4237.png
subject-04,1,583,1.01481413841248,cat,cat,false,0583_fc_s04_false_cat_35_n02123045_12060.png
subject-04,1,584,0.698793172836304,chair,chair,true,0584_fc_s04_true_chair_35_n04429376_7181.png
subject-04,1,585,0.734334945678711,elephant,elephant,true,0585_fc_s04_true_elephant_35_n02504458_4861.png
subject-04,1,586,0.712329864501953,oven,oven,true,0586_fc_s04_true_oven_35_n04111531_6415.png
subject-04,1,587,0.57608699798584,keyboard,keyboard,true,0587_fc_s04_true_keyboard_35_n04505470_4516.png
subject-04,1,588,0.447906017303467,bicycle,bicycle,true,0588_fc_s04_true_bicycle_35_n03792782_14935.png
subject-04,1,589,0.933838844299316,bear,cat,true,0589_fc_s04_true_cat_35_n02123159_7762.png
subject-04,1,590,1.0114541053772,keyboard,keyboard,false,0590_fc_s04_false_keyboard_35_n03085013_23287.png
subject-04,1,591,0.751260995864868,clock,oven,true,0591_fc_s04_true_oven_35_n04111531_10724.png
subject-04,1,592,0.631017923355103,cat,cat,false,0592_fc_s04_false_cat_35_n02123394_8507.png
subject-04,1,593,0.845240831375122,truck,truck,false,0593_fc_s04_false_truck_35_n03417042_3952.png
subject-04,1,594,0.61492919921875,oven,oven,false,0594_fc_s04_false_oven_35_n04111531_8082.png
subject-04,1,595,1.19870495796204,elephant,elephant,true,0595_fc_s04_true_elephant_35_n02504458_3099.png
subject-04,1,596,1.10646915435791,dog,dog,false,0596_fc_s04_false_dog_35_n02086240_5271.png
subject-04,1,597,1.00827717781067,bird,bird,true,0597_fc_s04_true_bird_35_n02037110_3761.png
subject-04,1,598,1.14029717445374,oven,elephant,true,0598_fc_s04_true_elephant_35_n02504013_6466.png
subject-04,1,599,0.940054893493652,knife,knife,false,0599_fc_s04_false_knife_35_n03041632_362.png
subject-04,1,600,0.819661855697632,airplane,airplane,false,0600_fc_s04_false_airplane_35_n02690373_5624.png
subject-04,1,601,1.03744983673096,bird,bird,true,0601_fc_s04_true_bird_35_n01795545_14857.png
subject-04,1,602,0.62719202041626,elephant,elephant,false,0602_fc_s04_false_elephant_35_n02504013_1494.png
subject-04,1,603,0.461160182952881,clock,clock,false,0603_fc_s04_false_clock_35_n02708093_5265.png
subject-04,1,604,0.700911998748779,dog,dog,false,0604_fc_s04_false_dog_35_n02110185_14056.png
subject-04,1,605,0.772733926773071,bird,bird,true,0605_fc_s04_true_bird_35_n02011460_22291.png
subject-04,1,606,0.656634092330933,bottle,bottle,true,0606_fc_s04_true_bottle_35_n04557648_1791.png
subject-04,1,607,0.634459018707275,car,car,false,0607_fc_s04_false_car_35_n04285008_9383.png
subject-04,1,608,1.00823998451233,bird,chair,false,0608_fc_s04_false_chair_35_n04099969_16350.png
subject-04,1,609,0.976023197174072,cat,keyboard,false,0609_fc_s04_false_keyboard_35_n03085013_24124.png
subject-04,1,610,0.939600944519043,truck,truck,true,0610_fc_s04_true_truck_35_n03796401_3148.png
subject-04,1,611,0.527807950973511,car,car,false,0611_fc_s04_false_car_35_n02814533_4885.png
subject-04,1,612,0.759246110916138,truck,truck,true,0612_fc_s04_true_truck_35_n03796401_3434.png
subject-04,1,613,0.783300876617432,bicycle,bicycle,false,0613_fc_s04_false_bicycle_35_n02835271_12028.png
subject-04,1,614,0.972979068756104,dog,bear,false,0614_fc_s04_false_bear_35_n02134418_5253.png
subject-04,1,615,0.688764095306396,bicycle,bicycle,true,0615_fc_s04_true_bicycle_35_n03792782_47426.png
subject-04,1,616,1.34651494026184,truck,truck,false,0616_fc_s04_false_truck_35_n03796401_19487.png
subject-04,1,617,0.888893127441406,chair,chair,false,0617_fc_s04_false_chair_35_n03376595_3223.png
subject-04,1,618,0.544343948364258,bicycle,bicycle,true,0618_fc_s04_true_bicycle_35_n02835271_12752.png
subject-04,1,619,0.766195058822632,knife,knife,true,0619_fc_s04_true_knife_35_n03041632_31849.png
subject-04,1,620,1.12792706489563,elephant,elephant,true,0620_fc_s04_true_elephant_35_n02504458_6721.png
subject-04,1,621,1.01162791252136,bicycle,bicycle,false,0621_fc_s04_false_bicycle_35_n03792782_52427.png
subject-04,1,622,0.663674116134644,clock,clock,false,0622_fc_s04_false_clock_35_n02708093_2242.png
subject-04,1,623,0.989381790161133,bear,bear,false,0623_fc_s04_false_bear_35_n02134084_3227.png
subject-04,1,624,0.993046998977661,bird,bird,true,0624_fc_s04_true_bird_35_n01592084_6081.png
subject-04,1,625,0.658895015716553,oven,oven,false,0625_fc_s04_false_oven_35_n04111531_8036.png
subject-04,1,626,0.902652978897095,bird,bird,false,0626_fc_s04_false_bird_35_n01622779_11953.png
subject-04,1,627,0.532563924789429,oven,oven,false,0627_fc_s04_false_oven_35_n04111531_18245.png
subject-04,1,628,1.36630702018738,boat,boat,true,0628_fc_s04_true_boat_35_n04612504_14418.png
subject-04,1,629,1.16828608512878,dog,dog,true,0629_fc_s04_true_dog_35_n02096437_1018.png
subject-04,1,630,1.07791090011597,dog,bear,true,0630_fc_s04_true_bear_35_n02134418_643.png
subject-04,1,631,0.707864999771118,elephant,elephant,false,0631_fc_s04_false_elephant_35_n02504013_5027.png
subject-04,1,632,0.685499906539917,keyboard,keyboard,false,0632_fc_s04_false_keyboard_35_n03085013_24439.png
subject-04,1,633,0.703409910202026,elephant,elephant,false,0633_fc_s04_false_elephant_35_n02504458_1249.png
subject-04,1,634,0.623216152191162,truck,truck,true,0634_fc_s04_true_truck_35_n03417042_27586.png
subject-04,1,635,0.909149169921875,keyboard,keyboard,false,0635_fc_s04_false_keyboard_35_n03085013_21266.png
subject-04,1,636,1.18687295913696,dog,dog,false,0636_fc_s04_false_dog_35_n02086240_1183.png
subject-04,1,637,0.594606876373291,boat,boat,false,0637_fc_s04_false_boat_35_n03344393_595.png
subject-04,1,638,0.776580810546875,keyboard,keyboard,false,0638_fc_s04_false_keyboard_35_n03085013_24206.png
subject-04,1,639,0.812628984451294,car,car,true,0639_fc_s04_true_car_35_n04285008_8581.png
subject-04,1,640,0.790218114852905,bear,bear,false,0640_fc_s04_false_bear_35_n02134418_2440.png
subject-04,1,641,0.705584049224854,airplane,airplane,true,0641_fc_s04_true_airplane_35_n02690373_5003.png
subject-04,1,642,0.491337776184082,oven,oven,true,0642_fc_s04_true_oven_35_n04111531_11116.png
subject-04,1,643,0.521245002746582,car,car,true,0643_fc_s04_true_car_35_n04285008_4109.png
subject-04,1,644,0.957015037536621,elephant,elephant,true,0644_fc_s04_true_elephant_35_n02504458_12165.png
subject-04,1,645,0.602690935134888,bird,bird,false,0645_fc_s04_false_bird_35_n01532829_10530.png
subject-04,1,646,0.580634117126465,bird,bird,true,0646_fc_s04_true_bird_35_n02037110_4043.png
subject-04,1,647,0.560516119003296,boat,boat,true,0647_fc_s04_true_boat_35_n02951358_20379.png
subject-04,1,648,0.464364051818848,truck,truck,true,0648_fc_s04_true_truck_35_n03796401_6921.png
subject-04,1,649,0.650194883346558,cat,cat,true,0649_fc_s04_true_cat_35_n02125311_53315.png
subject-04,1,650,1.16180515289307,boat,boat,true,0650_fc_s04_true_boat_35_n03344393_6890.png
subject-04,1,651,0.661607027053833,keyboard,oven,false,0651_fc_s04_false_oven_35_n04111531_22138.png
subject-04,1,652,0.621595859527588,knife,knife,false,0652_fc_s04_false_knife_35_n03041632_47743.png
subject-04,1,653,0.789308071136475,bottle,bottle,true,0653_fc_s04_true_bottle_35_n04579145_1705.png
subject-04,1,654,0.551466941833496,airplane,airplane,false,0654_fc_s04_false_airplane_35_n02690373_4198.png
subject-04,1,655,0.824787139892578,bear,bear,true,0655_fc_s04_true_bear_35_n02134418_1330.png
subject-04,1,656,1.06464505195618,chair,chair,false,0656_fc_s04_false_chair_35_n04429376_6835.png
subject-04,1,657,0.934425830841064,dog,dog,true,0657_fc_s04_true_dog_35_n02106662_10632.png
subject-04,1,658,0.612529039382935,oven,oven,true,0658_fc_s04_true_oven_35_n04111531_7034.png
subject-04,1,659,0.822295188903809,cat,cat,false,0659_fc_s04_false_cat_35_n02123597_1153.png
subject-04,1,660,0.706018209457397,airplane,airplane,false,0660_fc_s04_false_airplane_35_n02690373_2203.png
subject-04,1,661,0.831773996353149,bicycle,bicycle,false,0661_fc_s04_false_bicycle_35_n02835271_18173.png
subject-04,1,662,1.13372683525085,truck,truck,false,0662_fc_s04_false_truck_35_n04467665_47050.png
subject-04,1,663,0.811430931091309,car,car,false,0663_fc_s04_false_car_35_n02814533_1344.png
subject-04,1,664,1.45910000801086,oven,oven,true,0664_fc_s04_true_oven_35_n04111531_20056.png
subject-04,1,665,1.01885414123535,car,car,false,0665_fc_s04_false_car_35_n04285008_7924.png
subject-04,1,666,0.780674934387207,bird,bird,true,0666_fc_s04_true_bird_35_n01795545_4502.png
subject-04,1,667,0.884735107421875,bicycle,bicycle,true,0667_fc_s04_true_bicycle_35_n02835271_7592.png
subject-04,1,668,0.920324087142944,truck,truck,true,0668_fc_s04_true_truck_35_n04467665_22051.png
subject-04,1,669,0.722350120544434,bear,bear,false,0669_fc_s04_false_bear_35_n02133161_693.png
subject-04,1,670,0.534204959869385,clock,clock,true,0670_fc_s04_true_clock_35_n04548280_5428.png
subject-04,1,671,0.577840089797974,bicycle,bicycle,true,0671_fc_s04_true_bicycle_35_n02835271_12871.png
subject-04,1,672,1.4356529712677,bird,bird,false,0672_fc_s04_false_bird_35_n01614925_19918.png
subject-04,1,673,0.665694952011108,truck,truck,true,0673_fc_s04_true_truck_35_n03417042_4883.png
subject-04,1,674,0.623270988464355,bicycle,bicycle,true,0674_fc_s04_true_bicycle_35_n03792782_6614.png
subject-04,1,675,0.777086973190308,dog,dog,false,0675_fc_s04_false_dog_35_n02100877_3363.png
subject-04,1,676,0.599139928817749,airplane,airplane,false,0676_fc_s04_false_airplane_35_n02690373_6856.png
subject-04,1,677,0.760654926300049,bird,bird,false,0677_fc_s04_false_bird_35_n01798484_9481.png
subject-04,1,678,0.904953002929688,keyboard,keyboard,true,0678_fc_s04_true_keyboard_35_n03085013_24154.png
subject-04,1,679,0.54645299911499,boat,boat,true,0679_fc_s04_true_boat_35_n04273569_26182.png
subject-04,1,680,0.928527116775513,dog,bottle,true,0680_fc_s04_true_bottle_35_n03983396_5055.png
subject-04,1,681,0.755981922149658,keyboard,keyboard,true,0681_fc_s04_true_keyboard_35_n03085013_15484.png
subject-04,1,682,0.733764886856079,chair,chair,true,0682_fc_s04_true_chair_35_n02791124_1376.png
subject-04,1,683,0.989609003067017,bear,bear,true,0683_fc_s04_true_bear_35_n02134084_4477.png
subject-04,1,684,0.841495990753174,bear,bear,true,0684_fc_s04_true_bear_35_n02134418_9289.png
subject-04,1,685,0.959320068359375,car,car,false,0685_fc_s04_false_car_35_n03100240_15097.png
subject-04,1,686,1.32712316513062,bottle,bottle,true,0686_fc_s04_true_bottle_35_n04560804_13316.png
subject-04,1,687,1.08915591239929,bird,bird,false,0687_fc_s04_false_bird_35_n02007558_13217.png
subject-04,1,688,0.688921213150024,cat,cat,true,0688_fc_s04_true_cat_35_n02125311_23425.png
subject-04,1,689,0.616523027420044,cat,cat,true,0689_fc_s04_true_cat_35_n02124075_4377.png
subject-04,1,690,1.26839399337769,bear,bird,true,0690_fc_s04_true_bird_35_n01601694_4224.png
subject-04,1,691,1.39409899711609,cat,dog,false,0691_fc_s04_false_dog_35_n02093647_3072.png
subject-04,1,692,0.814169883728027,knife,knife,false,0692_fc_s04_false_knife_35_n03041632_21590.png
subject-04,1,693,0.529959917068481,cat,cat,false,0693_fc_s04_false_cat_35_n02124075_7880.png
subject-04,1,694,0.889487981796265,dog,dog,true,0694_fc_s04_true_dog_35_n02086646_6849.png
subject-04,1,695,0.605338096618652,oven,oven,false,0695_fc_s04_false_oven_35_n04111531_16144.png
subject-04,1,696,0.645246028900146,knife,knife,false,0696_fc_s04_false_knife_35_n03041632_36235.png
subject-04,1,697,0.863320112228394,truck,truck,true,0697_fc_s04_true_truck_35_n03417042_11091.png
subject-04,1,698,0.592637062072754,truck,truck,true,0698_fc_s04_true_truck_35_n03796401_6596.png
subject-04,1,699,1.28651595115662,chair,chair,true,0699_fc_s04_true_chair_35_n04429376_22734.png
subject-04,1,700,0.802313089370728,knife,knife,false,0700_fc_s04_false_knife_35_n03041632_94470.png
subject-04,1,701,0.738368988037109,bird,bird,false,0701_fc_s04_false_bird_35_n02007558_22160.png
subject-04,1,702,1.20393490791321,oven,clock,true,0702_fc_s04_true_clock_35_n03196217_1219.png
subject-04,1,703,0.528024911880493,clock,clock,true,0703_fc_s04_true_clock_35_n04548280_1055.png
subject-04,1,704,1.03378105163574,boat,boat,false,0704_fc_s04_false_boat_35_n04273569_16295.png
subject-04,1,705,0.921465158462524,airplane,airplane,false,0705_fc_s04_false_airplane_35_n02690373_6831.png
subject-04,1,706,1.487459897995,dog,dog,false,0706_fc_s04_false_dog_35_n02113023_863.png
subject-04,1,707,0.537164926528931,clock,clock,true,0707_fc_s04_true_clock_35_n04548280_3997.png
subject-04,1,708,1.1448450088501,dog,dog,true,0708_fc_s04_true_dog_35_n02102040_1187.png
subject-04,1,709,0.70893406867981,oven,oven,true,0709_fc_s04_true_oven_35_n04111531_12510.png
subject-04,1,710,1.10466694831848,car,truck,false,0710_fc_s04_false_truck_35_n03417042_768.png
subject-04,1,711,0.66841197013855,oven,oven,true,0711_fc_s04_true_oven_35_n04111531_13822.png
subject-04,1,712,0.866235971450806,dog,dog,true,0712_fc_s04_true_dog_35_n02092339_7915.png
subject-04,1,713,0.703948020935059,cat,cat,false,0713_fc_s04_false_cat_35_n02123159_8267.png
subject-04,1,714,0.74586296081543,cat,cat,false,0714_fc_s04_false_cat_35_n02123159_1165.png
subject-04,1,715,1.08161687850952,knife,knife,false,0715_fc_s04_false_knife_35_n03041632_29680.png
subject-04,1,716,1.02354598045349,bird,bird,false,0716_fc_s04_false_bird_35_n02013706_651.png
subject-04,1,717,0.59934401512146,airplane,airplane,false,0717_fc_s04_false_airplane_35_n02690373_2095.png
subject-04,1,718,1.14511585235596,boat,boat,true,0718_fc_s04_true_boat_35_n03662601_4665.png
subject-04,1,719,0.802803039550781,airplane,airplane,true,0719_fc_s04_true_airplane_35_n02690373_9531.png
subject-04,1,720,0.718843936920166,bear,bear,false,0720_fc_s04_false_bear_35_n02132136_11149.png
subject-04,1,721,0.704331874847412,bird,bird,true,0721_fc_s04_true_bird_35_n01855672_13403.png
subject-04,1,722,0.640009880065918,keyboard,keyboard,true,0722_fc_s04_true_keyboard_35_n03085013_5157.png
subject-04,1,723,0.50789999961853,bicycle,bicycle,true,0723_fc_s04_true_bicycle_35_n02835271_13729.png
subject-04,1,724,0.607694864273071,clock,clock,false,0724_fc_s04_false_clock_35_n03196217_3050.png
subject-04,1,725,0.639856815338135,knife,knife,false,0725_fc_s04_false_knife_35_n03041632_23087.png
subject-04,1,726,0.87152099609375,cat,cat,true,0726_fc_s04_true_cat_35_n02123394_4734.png
subject-04,1,727,1.18920397758484,bear,bird,false,0727_fc_s04_false_bird_35_n01796340_4643.png
subject-04,1,728,0.621058940887451,elephant,elephant,false,0728_fc_s04_false_elephant_35_n02504458_11693.png
subject-04,1,729,0.592758178710938,keyboard,keyboard,false,0729_fc_s04_false_keyboard_35_n04505470_4411.png
subject-04,1,730,1.10891699790955,chair,chair,false,0730_fc_s04_false_chair_35_n04429376_9501.png
subject-04,1,731,1.15467405319214,knife,bear,false,0731_fc_s04_false_bear_35_n02134418_2438.png
subject-04,1,732,0.752574920654297,bear,bear,true,0732_fc_s04_true_bear_35_n02134418_2657.png
subject-04,1,733,0.46786904335022,oven,oven,true,0733_fc_s04_true_oven_35_n04111531_8553.png
subject-04,1,734,0.908051013946533,airplane,boat,true,0734_fc_s04_true_boat_35_n03662601_15766.png
subject-04,1,735,0.778122901916504,bicycle,bicycle,true,0735_fc_s04_true_bicycle_35_n03792782_16961.png
subject-04,1,736,0.939579010009766,dog,dog,false,0736_fc_s04_false_dog_35_n02102318_11997.png
subject-04,1,737,0.593217849731445,boat,boat,true,0737_fc_s04_true_boat_35_n04273569_4324.png
subject-04,1,738,0.705142021179199,car,car,false,0738_fc_s04_false_car_35_n03100240_6248.png
subject-04,1,739,0.770911931991577,chair,chair,true,0739_fc_s04_true_chair_35_n04099969_45461.png
subject-04,1,740,0.572810888290405,knife,knife,false,0740_fc_s04_false_knife_35_n03041632_39952.png
subject-04,1,741,0.608618974685669,knife,knife,false,0741_fc_s04_false_knife_35_n03041632_92063.png
subject-04,1,742,0.836482048034668,chair,chair,true,0742_fc_s04_true_chair_35_n02791124_1135.png
subject-04,1,743,0.788115978240967,bottle,bottle,true,0743_fc_s04_true_bottle_35_n04591713_13349.png
subject-04,1,744,0.550151109695435,cat,cat,true,0744_fc_s04_true_cat_35_n02123045_6507.png
subject-04,1,745,0.703751087188721,bear,bear,false,0745_fc_s04_false_bear_35_n02134084_21407.png
subject-04,1,746,0.943712949752808,elephant,elephant,false,0746_fc_s04_false_elephant_35_n02504013_2228.png
subject-04,1,747,0.565308094024658,knife,knife,true,0747_fc_s04_true_knife_35_n03041632_16172.png
subject-04,1,748,1.22737383842468,boat,boat,false,0748_fc_s04_false_boat_35_n03344393_7503.png
subject-04,1,749,0.901167154312134,bicycle,bicycle,false,0749_fc_s04_false_bicycle_35_n03792782_626.png
subject-04,1,750,0.86700701713562,airplane,airplane,false,0750_fc_s04_false_airplane_35_n02690373_5967.png
subject-04,1,751,0.784557104110718,chair,chair,false,0751_fc_s04_false_chair_35_n02791124_885.png
subject-04,1,752,0.690748929977417,keyboard,keyboard,false,0752_fc_s04_false_keyboard_35_n04505470_8148.png
subject-04,1,753,1.04835987091064,knife,knife,true,0753_fc_s04_true_knife_35_n03041632_18748.png
subject-04,1,754,0.854166984558105,dog,dog,true,0754_fc_s04_true_dog_35_n02095570_11142.png
subject-04,1,755,1.15234208106995,chair,chair,false,0755_fc_s04_false_chair_35_n03376595_4212.png
subject-04,1,756,0.837724924087524,truck,truck,true,0756_fc_s04_true_truck_35_n03796401_6980.png
subject-04,1,757,0.51360297203064,boat,boat,false,0757_fc_s04_false_boat_35_n03662601_32803.png
subject-04,1,758,1.16939997673035,airplane,airplane,false,0758_fc_s04_false_airplane_35_n02690373_1019.png
subject-04,1,759,0.833203792572021,bird,bird,true,0759_fc_s04_true_bird_35_n02025239_4966.png
subject-04,1,760,0.725029945373535,airplane,airplane,false,0760_fc_s04_false_airplane_35_n02690373_1442.png
subject-04,1,761,0.578706979751587,knife,knife,false,0761_fc_s04_false_knife_35_n03041632_45636.png
subject-04,1,762,0.816814184188843,elephant,elephant,false,0762_fc_s04_false_elephant_35_n02504013_637.png
subject-04,1,763,0.584435939788818,bottle,bottle,true,0763_fc_s04_true_bottle_35_n04579145_5451.png
subject-04,1,764,0.758589029312134,knife,knife,true,0764_fc_s04_true_knife_35_n03041632_14766.png
subject-04,1,765,0.6301109790802,cat,cat,false,0765_fc_s04_false_cat_35_n02123394_1942.png
subject-04,1,766,0.655886888504028,elephant,elephant,true,0766_fc_s04_true_elephant_35_n02504458_7950.png
subject-04,1,767,1.12791013717651,oven,clock,true,0767_fc_s04_true_clock_35_n03196217_8221.png
subject-04,1,768,0.667453050613403,truck,truck,true,0768_fc_s04_true_truck_35_n03417042_12232.png
subject-04,1,769,0.525759935379028,bicycle,bicycle,true,0769_fc_s04_true_bicycle_35_n02835271_3042.png
subject-04,1,770,1.14927101135254,chair,chair,true,0770_fc_s04_true_chair_35_n04099969_25327.png
subject-04,1,771,1.09898781776428,dog,dog,false,0771_fc_s04_false_dog_35_n02100877_4371.png
subject-04,1,772,0.538654804229736,oven,oven,false,0772_fc_s04_false_oven_35_n04111531_11230.png
subject-04,1,773,0.650747060775757,chair,chair,false,0773_fc_s04_false_chair_35_n03376595_4912.png
subject-04,1,774,1.12429690361023,truck,truck,true,0774_fc_s04_true_truck_35_n03796401_19058.png
subject-04,1,775,1.04019498825073,dog,cat,true,0775_fc_s04_true_cat_35_n02123159_6184.png
subject-04,1,776,1.16984796524048,boat,boat,false,0776_fc_s04_false_boat_35_n03344393_1595.png
subject-04,1,777,0.897816896438599,bottle,bottle,false,0777_fc_s04_false_bottle_35_n04557648_2063.png
subject-04,1,778,0.753609895706177,truck,truck,false,0778_fc_s04_false_truck_35_n03417042_1000.png
subject-04,1,779,0.587471008300781,keyboard,keyboard,false,0779_fc_s04_false_keyboard_35_n03085013_20691.png
subject-04,1,780,0.957602024078369,dog,dog,false,0780_fc_s04_false_dog_35_n02097209_1133.png
subject-04,1,781,1.03907513618469,dog,dog,true,0781_fc_s04_true_dog_35_n02097047_1351.png
subject-04,1,782,0.652930021286011,car,car,false,0782_fc_s04_false_car_35_n04285008_863.png
subject-04,1,783,0.752647876739502,bicycle,bicycle,false,0783_fc_s04_false_bicycle_35_n03792782_8333.png
subject-04,1,784,0.7848060131073,bottle,bottle,false,0784_fc_s04_false_bottle_35_n04557648_4356.png
subject-04,1,785,0.83827805519104,dog,dog,false,0785_fc_s04_false_dog_35_n02097209_3172.png
subject-04,1,786,0.766174077987671,bicycle,bicycle,false,0786_fc_s04_false_bicycle_35_n03792782_801.png
subject-04,1,787,0.747814178466797,keyboard,keyboard,true,0787_fc_s04_true_keyboard_35_n04505470_4500.png
subject-04,1,788,0.653668165206909,keyboard,keyboard,true,0788_fc_s04_true_keyboard_35_n04505470_4033.png
subject-04,1,789,0.525377035140991,boat,boat,true,0789_fc_s04_true_boat_35_n04612504_15440.png
subject-04,1,790,1.06333708763123,keyboard,keyboard,true,0790_fc_s04_true_keyboard_35_n03085013_23562.png
subject-04,1,791,1.15101885795593,elephant,elephant,true,0791_fc_s04_true_elephant_35_n02504458_7660.png
subject-04,1,792,0.620908975601196,oven,knife,true,0792_fc_s04_true_knife_35_n03041632_22190.png
subject-04,1,793,0.782931089401245,bottle,bottle,true,0793_fc_s04_true_bottle_35_n04557648_11594.png
subject-04,1,794,1.24871897697449,airplane,boat,true,0794_fc_s04_true_boat_35_n04612504_5334.png
subject-04,1,795,0.910254001617432,bicycle,bicycle,false,0795_fc_s04_false_bicycle_35_n03792782_3069.png
subject-04,1,796,1.24460411071777,cat,bird,true,0796_fc_s04_true_bird_35_n02013706_7132.png
subject-04,1,797,0.770331144332886,bottle,bottle,false,0797_fc_s04_false_bottle_35_n04579145_961.png
subject-04,1,798,0.711724996566772,airplane,airplane,true,0798_fc_s04_true_airplane_35_n02690373_2162.png
subject-04,1,799,1.07604813575745,bear,bear,true,0799_fc_s04_true_bear_35_n02134418_6244.png
subject-04,1,800,0.539348840713501,clock,clock,false,0800_fc_s04_false_clock_35_n04548280_17802.png
subject-04,1,801,0.811686992645264,elephant,elephant,false,0801_fc_s04_false_elephant_35_n02504458_7258.png
subject-04,1,802,0.809638023376465,chair,chair,true,0802_fc_s04_true_chair_35_n04429376_17646.png
subject-04,1,803,0.505358934402466,clock,clock,true,0803_fc_s04_true_clock_35_n03196217_5972.png
subject-04,1,804,0.637521028518677,bottle,bottle,true,0804_fc_s04_true_bottle_35_n03983396_3331.png
subject-04,1,805,0.955024003982544,car,car,false,0805_fc_s04_false_car_35_n03100240_23804.png
subject-04,1,806,0.832617044448853,car,boat,true,0806_fc_s04_true_boat_35_n03662601_17571.png
subject-04,1,807,0.660476922988892,bear,bear,false,0807_fc_s04_false_bear_35_n02134084_14260.png
subject-04,1,808,0.662474870681763,bird,bird,true,0808_fc_s04_true_bird_35_n01534433_13846.png
subject-04,1,809,0.538288116455078,keyboard,keyboard,true,0809_fc_s04_true_keyboard_35_n03085013_21641.png
subject-04,1,810,0.740154981613159,truck,truck,true,0810_fc_s04_true_truck_35_n04467665_54079.png
subject-04,1,811,0.918088912963867,dog,dog,true,0811_fc_s04_true_dog_35_n02108551_262.png
subject-04,1,812,0.643996000289917,bicycle,bicycle,false,0812_fc_s04_false_bicycle_35_n02835271_12930.png
subject-04,1,813,0.741551876068115,bottle,bottle,false,0813_fc_s04_false_bottle_35_n03937543_211.png
subject-04,1,814,0.439337968826294,clock,clock,false,0814_fc_s04_false_clock_35_n03196217_2639.png
subject-04,1,815,0.657066106796265,elephant,elephant,true,0815_fc_s04_true_elephant_35_n02504013_2033.png
subject-04,1,816,0.907272100448608,bear,bear,true,0816_fc_s04_true_bear_35_n02134418_379.png
subject-04,1,817,0.692988872528076,cat,cat,false,0817_fc_s04_false_cat_35_n02123045_9384.png
subject-04,1,818,0.944571018218994,bird,bird,true,0818_fc_s04_true_bird_35_n01817953_5953.png
subject-04,1,819,1.2744472026825,chair,knife,false,0819_fc_s04_false_knife_35_n03041632_99875.png
subject-04,1,820,0.596261024475098,airplane,airplane,false,0820_fc_s04_false_airplane_35_n02690373_3173.png
subject-04,1,821,0.709891080856323,knife,knife,true,0821_fc_s04_true_knife_35_n03041632_15431.png
subject-04,1,822,0.753931999206543,boat,boat,true,0822_fc_s04_true_boat_35_n03344393_7773.png
subject-04,1,823,0.79153299331665,knife,knife,true,0823_fc_s04_true_knife_35_n03041632_20517.png
subject-04,1,824,0.623861074447632,airplane,airplane,true,0824_fc_s04_true_airplane_35_n02690373_1434.png
subject-04,1,825,0.723272085189819,oven,oven,false,0825_fc_s04_false_oven_35_n04111531_8309.png
subject-04,1,826,0.881303071975708,knife,knife,false,0826_fc_s04_false_knife_35_n03041632_16932.png
subject-04,1,827,0.851018190383911,knife,bottle,false,0827_fc_s04_false_bottle_35_n04560804_6576.png
subject-04,1,828,0.442539930343628,clock,clock,false,0828_fc_s04_false_clock_35_n04548280_2291.png
subject-04,1,829,0.686310052871704,truck,truck,true,0829_fc_s04_true_truck_35_n04467665_25130.png
subject-04,1,830,1.20816898345947,oven,bottle,false,0830_fc_s04_false_bottle_35_n03937543_2344.png
subject-04,1,831,0.728101968765259,chair,chair,false,0831_fc_s04_false_chair_35_n02791124_2057.png
subject-04,1,832,0.925987005233765,bird,bird,false,0832_fc_s04_false_bird_35_n01843065_2350.png
subject-04,1,833,1.24373888969421,dog,dog,false,0833_fc_s04_false_dog_35_n02105056_10931.png
subject-04,1,834,0.609408855438232,clock,clock,true,0834_fc_s04_true_clock_35_n02708093_3355.png
subject-04,1,835,1.18527603149414,chair,knife,false,0835_fc_s04_false_knife_35_n03041632_33198.png
subject-04,1,836,1.03162097930908,bottle,bottle,false,0836_fc_s04_false_bottle_35_n04591713_4035.png
subject-04,1,837,0.862824201583862,elephant,elephant,true,0837_fc_s04_true_elephant_35_n02504013_2558.png
subject-04,1,838,0.53075098991394,oven,oven,false,0838_fc_s04_false_oven_35_n04111531_14804.png
subject-04,1,839,0.93873405456543,keyboard,keyboard,true,0839_fc_s04_true_keyboard_35_n04505470_1833.png
subject-04,1,840,1.46832704544067,elephant,elephant,false,0840_fc_s04_false_elephant_35_n02504013_1436.png
subject-04,1,841,1.0680820941925,bottle,bottle,true,0841_fc_s04_true_bottle_35_n03937543_8063.png
subject-04,1,842,0.7119140625,chair,chair,false,0842_fc_s04_false_chair_35_n04429376_5362.png
subject-04,1,843,0.655730962753296,chair,chair,false,0843_fc_s04_false_chair_35_n03376595_1810.png
subject-04,1,844,0.739518880844116,car,car,true,0844_fc_s04_true_car_35_n02814533_34396.png
subject-04,1,845,0.89536190032959,chair,chair,false,0845_fc_s04_false_chair_35_n02791124_139.png
subject-04,1,846,0.649390935897827,airplane,airplane,true,0846_fc_s04_true_airplane_35_n02690373_866.png
subject-04,1,847,0.701231956481934,cat,cat,true,0847_fc_s04_true_cat_35_n02123597_1410.png
subject-04,1,848,0.898951053619385,bird,bird,true,0848_fc_s04_true_bird_35_n01560419_2726.png
subject-04,1,849,0.709089040756226,cat,cat,true,0849_fc_s04_true_cat_35_n02123597_5081.png
subject-04,1,850,0.822492122650146,clock,clock,false,0850_fc_s04_false_clock_35_n03196217_2567.png
subject-04,1,851,0.804355144500732,bicycle,bicycle,true,0851_fc_s04_true_bicycle_35_n02835271_14225.png
subject-04,1,852,0.740482091903687,dog,dog,false,0852_fc_s04_false_dog_35_n02113712_913.png
subject-04,1,853,0.559989929199219,cat,cat,false,0853_fc_s04_false_cat_35_n02125311_41249.png
subject-04,1,854,0.68184494972229,truck,truck,false,0854_fc_s04_false_truck_35_n03796401_26801.png
subject-04,1,855,0.797579050064087,elephant,elephant,true,0855_fc_s04_true_elephant_35_n02504458_174.png
subject-04,1,856,1.09147000312805,truck,truck,true,0856_fc_s04_true_truck_35_n03417042_6691.png
subject-04,1,857,0.783497095108032,knife,knife,true,0857_fc_s04_true_knife_35_n03041632_2390.png
subject-04,1,858,0.836986064910889,truck,truck,true,0858_fc_s04_true_truck_35_n04467665_2505.png
subject-04,1,859,0.790873050689697,car,car,true,0859_fc_s04_true_car_35_n03100240_20935.png
subject-04,1,860,0.870543003082275,knife,knife,true,0860_fc_s04_true_knife_35_n03041632_7090.png
subject-04,1,861,0.602457046508789,airplane,airplane,false,0861_fc_s04_false_airplane_35_n02690373_13585.png
subject-04,1,862,0.718319892883301,car,car,true,0862_fc_s04_true_car_35_n04285008_5525.png
subject-04,1,863,1.10993409156799,cat,bear,true,0863_fc_s04_true_bear_35_n02134418_6204.png
subject-04,1,864,0.915899038314819,bottle,bottle,false,0864_fc_s04_false_bottle_35_n04560804_10.png
subject-04,1,865,0.913732051849365,bottle,bottle,false,0865_fc_s04_false_bottle_35_n03937543_5062.png
subject-04,1,866,0.633435010910034,clock,clock,false,0866_fc_s04_false_clock_35_n02708093_6813.png
subject-04,1,867,0.701615810394287,boat,boat,true,0867_fc_s04_true_boat_35_n02951358_31198.png
subject-04,1,868,0.925522089004517,dog,dog,true,0868_fc_s04_true_dog_35_n02088094_9498.png
subject-04,1,869,0.6371910572052,boat,boat,false,0869_fc_s04_false_boat_35_n03344393_5501.png
subject-04,1,870,0.826858043670654,car,car,true,0870_fc_s04_true_car_35_n04285008_12754.png
subject-04,1,871,0.666670083999634,chair,chair,false,0871_fc_s04_false_chair_35_n04099969_20390.png
subject-04,1,872,0.712390184402466,knife,knife,true,0872_fc_s04_true_knife_35_n03041632_24817.png
subject-04,1,873,0.83010196685791,bottle,bottle,true,0873_fc_s04_true_bottle_35_n03983396_6116.png
subject-04,1,874,1.06786394119263,car,car,true,0874_fc_s04_true_car_35_n02814533_58462.png
subject-04,1,875,0.791837930679321,keyboard,keyboard,true,0875_fc_s04_true_keyboard_35_n03085013_6862.png
subject-04,1,876,0.859656095504761,keyboard,knife,true,0876_fc_s04_true_knife_35_n03041632_30565.png
subject-04,1,877,0.501594066619873,oven,oven,false,0877_fc_s04_false_oven_35_n04111531_14543.png
subject-04,1,878,0.94524097442627,keyboard,keyboard,false,0878_fc_s04_false_keyboard_35_n03085013_24001.png
subject-04,1,879,0.717084169387817,boat,boat,false,0879_fc_s04_false_boat_35_n03344393_6869.png
subject-04,1,880,0.956721067428589,knife,knife,false,0880_fc_s04_false_knife_35_n03041632_15754.png
subject-04,1,881,0.924878120422363,boat,boat,false,0881_fc_s04_false_boat_35_n02951358_7006.png
subject-04,1,882,0.692445039749146,dog,dog,true,0882_fc_s04_true_dog_35_n02087046_4409.png
subject-04,1,883,0.826268911361694,bear,bear,false,0883_fc_s04_false_bear_35_n02134084_6783.png
subject-04,1,884,0.684108018875122,dog,dog,true,0884_fc_s04_true_dog_35_n02090379_4918.png
subject-04,1,885,0.543793916702271,elephant,elephant,false,0885_fc_s04_false_elephant_35_n02504013_8007.png
subject-04,1,886,0.50357723236084,boat,boat,false,0886_fc_s04_false_boat_35_n03344393_5198.png
subject-04,1,887,0.677428007125854,cat,cat,true,0887_fc_s04_true_cat_35_n02123394_6521.png
subject-04,1,888,0.565210819244385,bottle,bottle,false,0888_fc_s04_false_bottle_35_n04591713_5599.png
subject-04,1,889,0.547008037567139,clock,clock,true,0889_fc_s04_true_clock_35_n03196217_7663.png
subject-04,1,890,0.380838871002197,clock,clock,false,0890_fc_s04_false_clock_35_n03196217_4464.png
subject-04,1,891,0.440685987472534,cat,cat,true,0891_fc_s04_true_cat_35_n02123394_1122.png
subject-04,1,892,0.464506864547729,bottle,bottle,true,0892_fc_s04_true_bottle_35_n04591713_1174.png
subject-04,1,893,1.00027394294739,bear,elephant,true,0893_fc_s04_true_elephant_35_n02504458_5144.png
subject-04,1,894,1.02615690231323,bicycle,bicycle,false,0894_fc_s04_false_bicycle_35_n03792782_5864.png
subject-04,1,895,1.06779909133911,chair,chair,false,0895_fc_s04_false_chair_35_n02791124_11404.png
subject-04,1,896,0.823812007904053,bear,bear,false,0896_fc_s04_false_bear_35_n02134084_4677.png
subject-04,1,897,1.09545397758484,airplane,airplane,true,0897_fc_s04_true_airplane_35_n02690373_10285.png
subject-04,1,898,0.831638813018799,bear,dog,true,0898_fc_s04_true_dog_35_n02097658_4387.png
subject-04,1,899,0.687035083770752,clock,clock,false,0899_fc_s04_false_clock_35_n04548280_7321.png
subject-04,1,900,1.06899905204773,cat,dog,false,0900_fc_s04_false_dog_35_n02085782_6241.png
subject-04,1,901,0.846644878387451,keyboard,keyboard,true,0901_fc_s04_true_keyboard_35_n04505470_489.png
subject-04,1,902,1.15667915344238,bottle,keyboard,false,0902_fc_s04_false_keyboard_35_n03085013_20704.png
subject-04,1,903,0.622437000274658,bicycle,bicycle,true,0903_fc_s04_true_bicycle_35_n02835271_12237.png
subject-04,1,904,0.800152778625488,chair,chair,true,0904_fc_s04_true_chair_35_n03376595_4354.png
subject-04,1,905,1.46207594871521,chair,oven,true,0905_fc_s04_true_oven_35_n04111531_21911.png
subject-04,1,906,1.03002095222473,keyboard,keyboard,false,0906_fc_s04_false_keyboard_35_n03085013_21127.png
subject-04,1,907,0.529772996902466,knife,knife,false,0907_fc_s04_false_knife_35_n03041632_54627.png
subject-04,1,908,0.831403970718384,keyboard,keyboard,false,0908_fc_s04_false_keyboard_35_n04505470_4627.png
subject-04,1,909,1.10370087623596,truck,truck,true,0909_fc_s04_true_truck_35_n04467665_68020.png
subject-04,1,910,0.711163997650146,oven,oven,false,0910_fc_s04_false_oven_35_n04111531_5126.png
subject-04,1,911,0.520917892456055,cat,cat,false,0911_fc_s04_false_cat_35_n02123597_9663.png
subject-04,1,912,0.580974102020264,boat,boat,false,0912_fc_s04_false_boat_35_n02951358_5118.png
subject-04,1,913,0.84260106086731,knife,knife,true,0913_fc_s04_true_knife_35_n03041632_45569.png
subject-04,1,914,0.606697082519531,bear,bear,true,0914_fc_s04_true_bear_35_n02133161_2597.png
subject-04,1,915,0.920230865478516,car,car,true,0915_fc_s04_true_car_35_n03100240_9171.png
subject-04,1,916,0.576092958450317,truck,truck,true,0916_fc_s04_true_truck_35_n03417042_1561.png
subject-04,1,917,0.644099950790405,car,car,false,0917_fc_s04_false_car_35_n04285008_14689.png
subject-04,1,918,0.719905138015747,bear,bear,false,0918_fc_s04_false_bear_35_n02134418_896.png
subject-04,1,919,0.619408130645752,truck,truck,true,0919_fc_s04_true_truck_35_n03417042_9018.png
subject-04,1,920,0.579319000244141,boat,boat,false,0920_fc_s04_false_boat_35_n03344393_4143.png
subject-04,1,921,0.635128021240234,bicycle,bicycle,false,0921_fc_s04_false_bicycle_35_n03792782_16819.png
subject-04,1,922,0.512964010238647,bear,bear,false,0922_fc_s04_false_bear_35_n02134418_1105.png
subject-04,1,923,0.558787107467651,boat,boat,true,0923_fc_s04_true_boat_35_n04273569_928.png
subject-04,1,924,0.704345941543579,bear,bear,true,0924_fc_s04_true_bear_35_n02133161_13278.png
subject-04,1,925,0.718307018280029,knife,knife,true,0925_fc_s04_true_knife_35_n03041632_4057.png
subject-04,1,926,1.13023996353149,truck,truck,true,0926_fc_s04_true_truck_35_n03417042_10694.png
subject-04,1,927,1.04799604415894,knife,knife,false,0927_fc_s04_false_knife_35_n03041632_46185.png
subject-04,1,928,0.733785152435303,knife,oven,true,0928_fc_s04_true_oven_35_n04111531_4116.png
subject-04,1,929,0.575502157211304,oven,oven,true,0929_fc_s04_true_oven_35_n04111531_20099.png
subject-04,1,930,0.627279043197632,bottle,bottle,false,0930_fc_s04_false_bottle_35_n04557648_12039.png
subject-04,1,931,0.653038024902344,clock,clock,true,0931_fc_s04_true_clock_35_n04548280_1245.png
subject-04,1,932,0.946978807449341,oven,knife,true,0932_fc_s04_true_knife_35_n03041632_29343.png
subject-04,1,933,0.842848062515259,elephant,elephant,true,0933_fc_s04_true_elephant_35_n02504458_3599.png
subject-04,1,934,0.79855489730835,bicycle,bicycle,false,0934_fc_s04_false_bicycle_35_n02835271_2714.png
subject-04,1,935,1.21845698356628,keyboard,airplane,true,0935_fc_s04_true_airplane_35_n02690373_9762.png
subject-04,1,936,0.766604900360107,chair,chair,false,0936_fc_s04_false_chair_35_n04429376_19617.png
subject-04,1,937,0.624082088470459,truck,truck,false,0937_fc_s04_false_truck_35_n04467665_46470.png
subject-04,1,938,0.621860027313232,knife,knife,false,0938_fc_s04_false_knife_35_n03041632_11285.png
subject-04,1,939,0.665581941604614,airplane,airplane,true,0939_fc_s04_true_airplane_35_n02690373_4706.png
subject-04,1,940,0.791722059249878,clock,clock,false,0940_fc_s04_false_clock_35_n04548280_7872.png
subject-04,1,941,0.947286128997803,bear,bear,true,0941_fc_s04_true_bear_35_n02134418_2435.png
subject-04,1,942,0.753029823303223,boat,boat,true,0942_fc_s04_true_boat_35_n03662601_11862.png
subject-04,1,943,0.922926902770996,cat,cat,true,0943_fc_s04_true_cat_35_n02123597_2099.png
subject-04,1,944,0.98269510269165,car,car,false,0944_fc_s04_false_car_35_n03100240_16803.png
subject-04,1,945,0.534502029418945,cat,cat,false,0945_fc_s04_false_cat_35_n02124075_6210.png
subject-04,1,946,0.680526971817017,bicycle,bicycle,true,0946_fc_s04_true_bicycle_35_n02835271_15524.png
subject-04,1,947,0.792140007019043,truck,truck,false,0947_fc_s04_false_truck_35_n04467665_2240.png
subject-04,1,948,0.929908990859985,dog,dog,false,0948_fc_s04_false_dog_35_n02109525_49924.png
subject-04,1,949,0.791716814041138,chair,chair,false,0949_fc_s04_false_chair_35_n03376595_120.png
subject-04,1,950,0.60170578956604,cat,cat,true,0950_fc_s04_true_cat_35_n02125311_36167.png
subject-04,1,951,0.755440950393677,truck,truck,true,0951_fc_s04_true_truck_35_n04467665_62080.png
subject-04,1,952,0.991107940673828,chair,chair,false,0952_fc_s04_false_chair_35_n02791124_2091.png
subject-04,1,953,0.754987955093384,elephant,elephant,false,0953_fc_s04_false_elephant_35_n02504458_3205.png
subject-04,1,954,0.806926012039185,truck,truck,true,0954_fc_s04_true_truck_35_n03417042_22828.png
subject-04,1,955,0.944625854492188,bottle,bottle,true,0955_fc_s04_true_bottle_35_n04579145_6186.png
subject-04,1,956,1.07647204399109,keyboard,keyboard,false,0956_fc_s04_false_keyboard_35_n04505470_4873.png
subject-04,1,957,0.648176908493042,clock,clock,true,0957_fc_s04_true_clock_35_n04548280_8942.png
subject-04,1,958,0.615936040878296,keyboard,keyboard,true,0958_fc_s04_true_keyboard_35_n04505470_3234.png
subject-04,1,959,1.05787897109985,bear,bear,false,0959_fc_s04_false_bear_35_n02132136_8525.png
subject-04,1,960,0.913764953613281,cat,cat,false,0960_fc_s04_false_cat_35_n02123159_7580.png
subject-04,1,961,0.653127908706665,bear,bear,true,0961_fc_s04_true_bear_35_n02134418_1809.png
subject-04,1,962,0.490972995758057,cat,cat,false,0962_fc_s04_false_cat_35_n02124075_5874.png
subject-04,1,963,0.558799028396606,truck,truck,false,0963_fc_s04_false_truck_35_n03417042_25493.png
subject-04,1,964,0.688381195068359,bottle,bottle,true,0964_fc_s04_true_bottle_35_n04579145_54.png
subject-04,1,965,0.526352882385254,oven,oven,false,0965_fc_s04_false_oven_35_n04111531_550.png
subject-04,1,966,1.03004884719849,dog,dog,false,0966_fc_s04_false_dog_35_n02099601_8560.png
subject-04,1,967,0.731982946395874,chair,chair,false,0967_fc_s04_false_chair_35_n02791124_13701.png
subject-04,1,968,0.95983099937439,keyboard,keyboard,true,0968_fc_s04_true_keyboard_35_n04505470_2825.png
subject-04,1,969,1.26752090454102,bottle,bottle,false,0969_fc_s04_false_bottle_35_n03937543_10543.png
subject-04,1,970,1.34966397285461,elephant,elephant,true,0970_fc_s04_true_elephant_35_n02504458_6435.png
subject-04,1,971,0.805296897888184,car,car,false,0971_fc_s04_false_car_35_n03100240_18270.png
subject-04,1,972,0.699329137802124,boat,boat,false,0972_fc_s04_false_boat_35_n02951358_461.png
subject-04,1,973,1.00077199935913,chair,chair,true,0973_fc_s04_true_chair_35_n02791124_958.png
subject-04,1,974,0.936621904373169,bicycle,bicycle,false,0974_fc_s04_false_bicycle_35_n03792782_4740.png
subject-04,1,975,0.970412969589233,chair,oven,true,0975_fc_s04_true_oven_35_n04111531_22563.png
subject-04,1,976,1.30642700195312,dog,dog,true,0976_fc_s04_true_dog_35_n02107908_8344.png
subject-04,1,977,0.662375926971436,clock,clock,false,0977_fc_s04_false_clock_35_n02708093_3454.png
subject-04,1,978,0.831881046295166,elephant,elephant,true,0978_fc_s04_true_elephant_35_n02504458_12175.png
subject-04,1,979,1.07775092124939,bear,bear,true,0979_fc_s04_true_bear_35_n02132136_11640.png
subject-04,1,980,0.723455190658569,car,car,true,0980_fc_s04_true_car_35_n03100240_2909.png
subject-04,1,981,0.753349781036377,bird,bird,false,0981_fc_s04_false_bird_35_n01855672_2187.png
subject-04,1,982,1.23518896102905,oven,oven,true,0982_fc_s04_true_oven_35_n04111531_10093.png
subject-04,1,983,0.729279041290283,bird,bird,false,0983_fc_s04_false_bird_35_n01843383_12917.png
subject-04,1,984,0.890769958496094,bear,oven,false,0984_fc_s04_false_oven_35_n04111531_6400.png
subject-04,1,985,1.06064391136169,bicycle,bicycle,false,0985_fc_s04_false_bicycle_35_n03792782_4382.png
subject-04,1,986,0.718218803405762,elephant,elephant,false,0986_fc_s04_false_elephant_35_n02504458_6738.png
subject-04,1,987,0.638345003128052,elephant,elephant,true,0987_fc_s04_true_elephant_35_n02504013_3307.png
subject-04,1,988,1.18415498733521,bird,elephant,true,0988_fc_s04_true_elephant_35_n02504013_3384.png
subject-04,1,989,1.25390005111694,cat,cat,true,0989_fc_s04_true_cat_35_n02123159_2339.png
subject-04,1,990,1.00774192810059,elephant,elephant,false,0990_fc_s04_false_elephant_35_n02504458_13245.png
subject-04,1,991,0.855499982833862,boat,boat,true,0991_fc_s04_true_boat_35_n04612504_5093.png
subject-04,1,992,0.76318097114563,oven,oven,false,0992_fc_s04_false_oven_35_n04111531_1562.png
subject-04,1,993,1.33689498901367,bird,dog,false,0993_fc_s04_false_dog_35_n02106166_16884.png
subject-04,1,994,0.992836952209473,car,car,false,0994_fc_s04_false_car_35_n02814533_90486.png
subject-04,1,995,0.729113817214966,bottle,bottle,false,0995_fc_s04_false_bottle_35_n02823428_4959.png
subject-04,1,996,0.796455144882202,clock,clock,true,0996_fc_s04_true_clock_35_n04548280_503.png
subject-04,1,997,0.818587064743042,chair,chair,true,0997_fc_s04_true_chair_35_n04429376_3452.png
subject-04,1,998,0.58449387550354,oven,oven,true,0998_fc_s04_true_oven_35_n04111531_6485.png
subject-04,1,999,0.777878046035767,chair,chair,true,0999_fc_s04_true_chair_35_n04099969_16456.png
subject-04,1,1000,0.971946001052856,cat,dog,false,1000_fc_s04_false_dog_35_n02091134_7695.png
subject-04,1,1001,0.919665098190308,bird,bird,false,1001_fc_s04_false_bird_35_n01819313_5839.png
subject-04,1,1002,0.93140721321106,boat,boat,true,1002_fc_s04_true_boat_35_n03344393_2919.png
subject-04,1,1003,0.901381015777588,boat,boat,true,1003_fc_s04_true_boat_35_n03344393_7050.png
subject-04,1,1004,0.727030038833618,knife,knife,false,1004_fc_s04_false_knife_35_n03041632_51225.png
subject-04,1,1005,0.708884954452515,cat,cat,false,1005_fc_s04_false_cat_35_n02123159_6728.png
subject-04,1,1006,0.546677827835083,boat,boat,true,1006_fc_s04_true_boat_35_n03662601_34124.png
subject-04,1,1007,1.14036202430725,bottle,bottle,false,1007_fc_s04_false_bottle_35_n04560804_564.png
subject-04,1,1008,1.36633086204529,bird,bird,true,1008_fc_s04_true_bird_35_n02027492_4976.png
subject-04,1,1009,0.938085079193115,chair,chair,false,1009_fc_s04_false_chair_35_n04099969_8604.png
subject-04,1,1010,0.580000162124634,oven,knife,false,1010_fc_s04_false_knife_35_n03041632_11326.png
subject-04,1,1011,0.601989030838013,oven,oven,false,1011_fc_s04_false_oven_35_n04111531_11079.png
subject-04,1,1012,1.07175707817078,elephant,elephant,false,1012_fc_s04_false_elephant_35_n02504458_477.png
subject-04,1,1013,0.843208789825439,knife,knife,false,1013_fc_s04_false_knife_35_n03041632_38535.png
subject-04,1,1014,0.711127042770386,bottle,bottle,false,1014_fc_s04_false_bottle_35_n03983396_5413.png
subject-04,1,1015,0.721035003662109,elephant,elephant,true,1015_fc_s04_true_elephant_35_n02504013_3810.png
subject-04,1,1016,1.06289196014404,oven,oven,false,1016_fc_s04_false_oven_35_n04111531_16583.png
subject-04,1,1017,0.910399913787842,dog,dog,false,1017_fc_s04_false_dog_35_n02086646_8449.png
