subj,Session,trial,rt,object_response,category,condition,imagename
subject-03,1,1,0.497289896011353,boat,boat,true,0001_fc_s03_true_boat_35_n04612504_13668.png
subject-03,1,2,1.13521599769592,knife,knife,false,0002_fc_s03_false_knife_35_n03041632_90125.png
subject-03,1,3,0.526983976364136,clock,clock,false,0003_fc_s03_false_clock_35_n02708093_5734.png
subject-03,1,4,0.766710996627808,airplane,airplane,true,0004_fc_s03_true_airplane_35_n02690373_9241.png
subject-03,1,5,0.82060980796814,car,car,false,0005_fc_s03_false_car_35_n03100240_5399.png
subject-03,1,6,1.08470106124878,bird,bird,false,0006_fc_s03_false_bird_35_n02002556_25052.png
subject-03,1,7,0.874186992645264,keyboard,keyboard,true,0007_fc_s03_true_keyboard_35_n03085013_5440.png
subject-03,1,8,0.832327842712402,cat,cat,true,0008_fc_s03_true_cat_35_n02123159_8144.png
subject-03,1,9,0.824055910110474,truck,truck,false,0009_fc_s03_false_truck_35_n03417042_28742.png
subject-03,1,10,0.617583036422729,cat,cat,true,0010_fc_s03_true_cat_35_n02124075_4377.png
subject-03,1,11,0.797883987426758,airplane,airplane,false,0011_fc_s03_false_airplane_35_n02690373_3753.png
subject-03,1,12,0.827307939529419,boat,boat,false,0012_fc_s03_false_boat_35_n03662601_32803.png
subject-03,1,13,0.789041042327881,oven,oven,false,0013_fc_s03_false_oven_35_n04111531_8036.png
subject-03,1,14,0.686970949172974,bicycle,bicycle,false,0014_fc_s03_false_bicycle_35_n02835271_9672.png
subject-03,1,15,0.796700954437256,cat,cat,false,0015_fc_s03_false_cat_35_n02125311_23312.png
subject-03,1,16,0.774559020996094,oven,oven,true,0016_fc_s03_true_oven_35_n04111531_5897.png
subject-03,1,17,1.108234167099,chair,knife,true,0017_fc_s03_true_knife_35_n03041632_27929.png
subject-03,1,18,0.875996112823486,chair,chair,false,0018_fc_s03_false_chair_35_n04429376_55163.png
subject-03,1,19,0.873937129974365,dog,dog,true,0019_fc_s03_true_dog_35_n02102480_10232.png
subject-03,1,20,0.969643115997314,bird,bird,true,0020_fc_s03_true_bird_35_n01828970_11339.png
subject-03,1,21,0.851469993591309,cat,cat,true,0021_fc_s03_true_cat_35_n02123159_6087.png
subject-03,1,22,0.681339979171753,chair,chair,true,0022_fc_s03_true_chair_35_n03376595_1273.png
subject-03,1,23,1.1172239780426,elephant,elephant,true,0023_fc_s03_true_elephant_35_n02504013_11033.png
subject-03,1,24,0.751332998275757,keyboard,keyboard,true,0024_fc_s03_true_keyboard_35_n04505470_4369.png
subject-03,1,25,0.678714990615845,chair,chair,true,0025_fc_s03_true_chair_35_n04099969_7998.png
subject-03,1,26,0.998558044433594,elephant,elephant,true,0026_fc_s03_true_elephant_35_n02504458_4819.png
subject-03,1,27,0.856379985809326,cat,cat,true,0027_fc_s03_true_cat_35_n02125311_23425.png
subject-03,1,28,1.18028521537781,airplane,airplane,false,0028_fc_s03_false_airplane_35_n02690373_3821.png
subject-03,1,29,1.13215899467468,dog,dog,true,0029_fc_s03_true_dog_35_n02090379_4918.png
subject-03,1,30,1.05174612998962,boat,boat,false,0030_fc_s03_false_boat_35_n04612504_20125.png
subject-03,1,31,0.659648180007935,boat,boat,true,0031_fc_s03_true_boat_35_n03662601_17571.png
subject-03,1,32,1.06559109687805,bird,oven,false,0032_fc_s03_false_oven_35_n04111531_3181.png
subject-03,1,33,0.797457933425903,bicycle,bicycle,false,0033_fc_s03_false_bicycle_35_n03792782_4740.png
subject-03,1,34,0.53108811378479,boat,boat,false,0034_fc_s03_false_boat_35_n04612504_20927.png
subject-03,1,35,NaN,na,car,false,0035_fc_s03_false_car_35_n03100240_23804.png
subject-03,1,36,0.656905174255371,airplane,airplane,false,0036_fc_s03_false_airplane_35_n02690373_5967.png
subject-03,1,37,0.756517171859741,keyboard,keyboard,false,0037_fc_s03_false_keyboard_35_n04505470_3499.png
subject-03,1,38,0.568787097930908,cat,cat,false,0038_fc_s03_false_cat_35_n02123159_7580.png
subject-03,1,39,0.934133052825928,bird,bird,false,0039_fc_s03_false_bird_35_n01798484_9481.png
subject-03,1,40,1.1858959197998,chair,chair,false,0040_fc_s03_false_chair_35_n04099969_3414.png
subject-03,1,41,0.627902984619141,keyboard,keyboard,false,0041_fc_s03_false_keyboard_35_n04505470_2600.png
subject-03,1,42,0.495882034301758,cat,cat,false,0042_fc_s03_false_cat_35_n02123597_9467.png
subject-03,1,43,0.571534156799316,cat,cat,false,0043_fc_s03_false_cat_35_n02124075_3592.png
subject-03,1,44,1.13117599487305,bicycle,bicycle,true,0044_fc_s03_true_bicycle_35_n02835271_15930.png
subject-03,1,45,0.673037052154541,bottle,bottle,true,0045_fc_s03_true_bottle_35_n04557648_1791.png
subject-03,1,46,0.844949960708618,bottle,bottle,true,0046_fc_s03_true_bottle_35_n02823428_3178.png
subject-03,1,47,0.584663867950439,boat,boat,false,0047_fc_s03_false_boat_35_n04273569_9873.png
subject-03,1,48,0.622616052627563,bear,bear,true,0048_fc_s03_true_bear_35_n02132136_14829.png
subject-03,1,49,0.778352975845337,chair,chair,false,0049_fc_s03_false_chair_35_n04099969_7718.png
subject-03,1,50,0.778071880340576,truck,truck,false,0050_fc_s03_false_truck_35_n04467665_16276.png
subject-03,1,51,0.912271976470947,keyboard,keyboard,false,0051_fc_s03_false_keyboard_35_n03085013_9244.png
subject-03,1,52,0.740139007568359,car,car,true,0052_fc_s03_true_car_35_n04285008_4109.png
subject-03,1,53,0.557622909545898,bear,bear,true,0053_fc_s03_true_bear_35_n02132136_8516.png
subject-03,1,54,0.753299951553345,car,car,true,0054_fc_s03_true_car_35_n03100240_49.png
subject-03,1,55,1.15754318237305,knife,knife,true,0055_fc_s03_true_knife_35_n03041632_13656.png
subject-03,1,56,1.04908299446106,dog,dog,true,0056_fc_s03_true_dog_35_n02096585_9543.png
subject-03,1,57,1.23688793182373,chair,knife,true,0057_fc_s03_true_knife_35_n03041632_98864.png
subject-03,1,58,0.672676086425781,truck,truck,true,0058_fc_s03_true_truck_35_n03417042_4883.png
subject-03,1,59,1.31282687187195,car,clock,false,0059_fc_s03_false_clock_35_n02708093_260.png
subject-03,1,60,0.468237161636353,cat,cat,true,0060_fc_s03_true_cat_35_n02124075_8341.png
subject-03,1,61,1.04599618911743,dog,dog,false,0061_fc_s03_false_dog_35_n02091134_7695.png
subject-03,1,62,0.850034952163696,oven,oven,true,0062_fc_s03_true_oven_35_n04111531_21911.png
subject-03,1,63,0.989780902862549,truck,truck,false,0063_fc_s03_false_truck_35_n04467665_49656.png
subject-03,1,64,0.725804090499878,airplane,airplane,true,0064_fc_s03_true_airplane_35_n02690373_9848.png
subject-03,1,65,0.595354080200195,cat,cat,false,0065_fc_s03_false_cat_35_n02123597_1153.png
subject-03,1,66,0.713419198989868,bicycle,bicycle,false,0066_fc_s03_false_bicycle_35_n02835271_14585.png
subject-03,1,67,0.688776969909668,bicycle,bicycle,false,0067_fc_s03_false_bicycle_35_n02835271_12930.png
subject-03,1,68,0.768780946731567,truck,truck,false,0068_fc_s03_false_truck_35_n03417042_7313.png
subject-03,1,69,0.550623893737793,cat,cat,true,0069_fc_s03_true_cat_35_n02123045_6507.png
subject-03,1,70,1.23633790016174,airplane,airplane,false,0070_fc_s03_false_airplane_35_n02690373_1019.png
subject-03,1,71,0.480334997177124,cat,cat,false,0071_fc_s03_false_cat_35_n02123159_358.png
subject-03,1,72,0.744246006011963,elephant,elephant,true,0072_fc_s03_true_elephant_35_n02504458_5501.png
subject-03,1,73,0.66575288772583,airplane,airplane,true,0073_fc_s03_true_airplane_35_n02690373_5003.png
subject-03,1,74,0.601547956466675,bottle,bottle,false,0074_fc_s03_false_bottle_35_n03983396_8041.png
subject-03,1,75,0.779736042022705,bird,bird,true,0075_fc_s03_true_bird_35_n01833805_7514.png
subject-03,1,76,0.631216049194336,clock,clock,true,0076_fc_s03_true_clock_35_n04548280_3303.png
subject-03,1,77,1.18696188926697,knife,knife,true,0077_fc_s03_true_knife_35_n03041632_17285.png
subject-03,1,78,0.816800832748413,oven,knife,true,0078_fc_s03_true_knife_35_n03041632_30286.png
subject-03,1,79,0.644719839096069,car,car,false,0079_fc_s03_false_car_35_n02814533_33576.png
subject-03,1,80,0.846827030181885,clock,clock,false,0080_fc_s03_false_clock_35_n02708093_616.png
subject-03,1,81,0.58729887008667,clock,clock,false,0081_fc_s03_false_clock_35_n02708093_3454.png
subject-03,1,82,0.893465995788574,knife,knife,false,0082_fc_s03_false_knife_35_n03041632_32054.png
subject-03,1,83,0.715122938156128,bicycle,bicycle,true,0083_fc_s03_true_bicycle_35_n02835271_5648.png
subject-03,1,84,0.747154951095581,truck,truck,true,0084_fc_s03_true_truck_35_n03796401_6921.png
subject-03,1,85,0.598522901535034,elephant,elephant,true,0085_fc_s03_true_elephant_35_n02504458_12165.png
subject-03,1,86,1.50014305114746,bottle,bird,false,0086_fc_s03_false_bird_35_n01796340_4643.png
subject-03,1,87,1.15819787979126,keyboard,bottle,true,0087_fc_s03_true_bottle_35_n04591713_7133.png
subject-03,1,88,0.782191038131714,car,car,true,0088_fc_s03_true_car_35_n02814533_23592.png
subject-03,1,89,0.577720880508423,bicycle,bicycle,true,0089_fc_s03_true_bicycle_35_n02835271_4191.png
subject-03,1,90,0.795576095581055,bird,bird,true,0090_fc_s03_true_bird_35_n01833805_1104.png
subject-03,1,91,0.695791006088257,bird,bird,true,0091_fc_s03_true_bird_35_n01817953_5953.png
subject-03,1,92,0.705513000488281,clock,clock,true,0092_fc_s03_true_clock_35_n03196217_5627.png
subject-03,1,93,1.12746810913086,oven,oven,false,0093_fc_s03_false_oven_35_n04111531_4574.png
subject-03,1,94,1.07099199295044,oven,oven,true,0094_fc_s03_true_oven_35_n04111531_22563.png
subject-03,1,95,1.42299389839172,knife,chair,true,0095_fc_s03_true_chair_35_n02791124_2150.png
subject-03,1,96,1.04661703109741,bottle,bottle,true,0096_fc_s03_true_bottle_35_n04591713_5411.png
subject-03,1,97,0.524724006652832,keyboard,keyboard,false,0097_fc_s03_false_keyboard_35_n03085013_20691.png
subject-03,1,98,0.844527006149292,truck,truck,true,0098_fc_s03_true_truck_35_n03796401_3434.png
subject-03,1,99,0.654000997543335,truck,truck,false,0099_fc_s03_false_truck_35_n04467665_47050.png
subject-03,1,100,0.919925928115845,keyboard,keyboard,true,0100_fc_s03_true_keyboard_35_n04505470_2669.png
subject-03,1,101,0.573562145233154,cat,cat,true,0101_fc_s03_true_cat_35_n02124075_7059.png
subject-03,1,102,0.881409883499146,keyboard,keyboard,false,0102_fc_s03_false_keyboard_35_n04505470_2828.png
subject-03,1,103,0.777245044708252,cat,cat,true,0103_fc_s03_true_cat_35_n02124075_1957.png
subject-03,1,104,0.722982168197632,keyboard,keyboard,true,0104_fc_s03_true_keyboard_35_n03085013_23562.png
subject-03,1,105,0.699321031570435,elephant,elephant,false,0105_fc_s03_false_elephant_35_n02504458_6878.png
subject-03,1,106,1.16676497459412,cat,cat,false,0106_fc_s03_false_cat_35_n02123394_8507.png
subject-03,1,107,0.752591133117676,bottle,bottle,true,0107_fc_s03_true_bottle_35_n04591713_5518.png
subject-03,1,108,1.12629795074463,bear,bear,true,0108_fc_s03_true_bear_35_n02134418_1330.png
subject-03,1,109,0.664199829101562,bottle,bottle,true,0109_fc_s03_true_bottle_35_n04560804_6392.png
subject-03,1,110,0.655845880508423,bottle,bottle,true,0110_fc_s03_true_bottle_35_n03983396_3331.png
subject-03,1,111,0.475718975067139,cat,cat,true,0111_fc_s03_true_cat_35_n02123159_5467.png
subject-03,1,112,0.745662927627563,bicycle,bicycle,true,0112_fc_s03_true_bicycle_35_n02835271_7592.png
subject-03,1,113,0.911411046981812,truck,truck,false,0113_fc_s03_false_truck_35_n04467665_11830.png
subject-03,1,114,1.5000159740448,bottle,keyboard,false,0114_fc_s03_false_keyboard_35_n03085013_20704.png
subject-03,1,115,1.50009202957153,knife,bottle,false,0115_fc_s03_false_bottle_35_n04560804_915.png
subject-03,1,116,0.864961862564087,oven,oven,false,0116_fc_s03_false_oven_35_n04111531_4918.png
subject-03,1,117,0.714828014373779,elephant,elephant,true,0117_fc_s03_true_elephant_35_n02504458_5951.png
subject-03,1,118,1.11234307289124,dog,dog,true,0118_fc_s03_true_dog_35_n02097047_1351.png
subject-03,1,119,0.854185104370117,bird,bird,false,0119_fc_s03_false_bird_35_n01819313_5839.png
subject-03,1,120,0.83800220489502,airplane,airplane,false,0120_fc_s03_false_airplane_35_n02690373_7375.png
subject-03,1,121,0.775798797607422,bottle,bottle,true,0121_fc_s03_true_bottle_35_n04591713_5702.png
subject-03,1,122,0.607630968093872,airplane,airplane,true,0122_fc_s03_true_airplane_35_n02690373_2796.png
subject-03,1,123,0.766042947769165,elephant,elephant,false,0123_fc_s03_false_elephant_35_n02504013_10149.png
subject-03,1,124,0.529279947280884,clock,clock,false,0124_fc_s03_false_clock_35_n03196217_4464.png
subject-03,1,125,1.30511808395386,bottle,bottle,true,0125_fc_s03_true_bottle_35_n04557648_10123.png
subject-03,1,126,0.819309949874878,bear,bear,true,0126_fc_s03_true_bear_35_n02132136_11640.png
subject-03,1,127,0.722861051559448,bicycle,bicycle,false,0127_fc_s03_false_bicycle_35_n03792782_801.png
subject-03,1,128,0.526581048965454,clock,clock,false,0128_fc_s03_false_clock_35_n02708093_56.png
subject-03,1,129,0.888317108154297,bicycle,bicycle,true,0129_fc_s03_true_bicycle_35_n03792782_14935.png
subject-03,1,130,0.792076826095581,bird,bird,true,0130_fc_s03_true_bird_35_n01582220_4924.png
subject-03,1,131,0.601995944976807,bicycle,bicycle,false,0131_fc_s03_false_bicycle_35_n03792782_52427.png
subject-03,1,132,0.490005016326904,clock,clock,true,0132_fc_s03_true_clock_35_n04548280_8942.png
subject-03,1,133,0.575639009475708,cat,cat,true,0133_fc_s03_true_cat_35_n02124075_11466.png
subject-03,1,134,0.981805086135864,bear,bird,false,0134_fc_s03_false_bird_35_n01829413_2459.png
subject-03,1,135,0.871783018112183,knife,knife,true,0135_fc_s03_true_knife_35_n03041632_16172.png
subject-03,1,136,0.636969089508057,keyboard,keyboard,false,0136_fc_s03_false_keyboard_35_n03085013_3231.png
subject-03,1,137,0.836947202682495,truck,truck,true,0137_fc_s03_true_truck_35_n03417042_26865.png
subject-03,1,138,0.538892030715942,boat,boat,true,0138_fc_s03_true_boat_35_n04273569_11645.png
subject-03,1,139,1.12838387489319,oven,chair,false,0139_fc_s03_false_chair_35_n04429376_5362.png
subject-03,1,140,0.704432010650635,bird,bird,false,0140_fc_s03_false_bird_35_n01860187_1815.png
subject-03,1,141,0.656062126159668,bottle,bottle,true,0141_fc_s03_true_bottle_35_n04557648_11594.png
subject-03,1,142,0.68208909034729,keyboard,keyboard,true,0142_fc_s03_true_keyboard_35_n04505470_4516.png
subject-03,1,143,0.73583197593689,bottle,bottle,true,0143_fc_s03_true_bottle_35_n04591713_3409.png
subject-03,1,144,0.695661067962646,bear,bear,false,0144_fc_s03_false_bear_35_n02133161_13356.png
subject-03,1,145,0.825500965118408,car,car,true,0145_fc_s03_true_car_35_n02814533_58462.png
subject-03,1,146,0.889081954956055,bear,bear,false,0146_fc_s03_false_bear_35_n02134084_3227.png
subject-03,1,147,0.761085033416748,bird,bird,false,0147_fc_s03_false_bird_35_n02013706_651.png
subject-03,1,148,1.01901507377625,car,car,false,0148_fc_s03_false_car_35_n04285008_2409.png
subject-03,1,149,0.570854187011719,car,car,true,0149_fc_s03_true_car_35_n04285008_11323.png
subject-03,1,150,0.562440872192383,bear,bear,false,0150_fc_s03_false_bear_35_n02133161_6983.png
subject-03,1,151,0.894269943237305,car,car,true,0151_fc_s03_true_car_35_n03100240_17973.png
subject-03,1,152,0.774148941040039,bicycle,bicycle,false,0152_fc_s03_false_bicycle_35_n03792782_16819.png
subject-03,1,153,0.812175035476685,knife,knife,true,0153_fc_s03_true_knife_35_n03041632_14766.png
subject-03,1,154,0.711635828018188,bear,bear,false,0154_fc_s03_false_bear_35_n02134418_5033.png
subject-03,1,155,0.487571954727173,clock,clock,false,0155_fc_s03_false_clock_35_n04548280_7321.png
subject-03,1,156,1.1192319393158,knife,bottle,false,0156_fc_s03_false_bottle_35_n04579145_961.png
subject-03,1,157,0.851503849029541,bear,bear,false,0157_fc_s03_false_bear_35_n02132136_4237.png
subject-03,1,158,0.992876052856445,dog,dog,true,0158_fc_s03_true_dog_35_n02102318_9359.png
subject-03,1,159,0.757019996643066,car,car,true,0159_fc_s03_true_car_35_n04285008_10006.png
subject-03,1,160,0.966787815093994,chair,chair,false,0160_fc_s03_false_chair_35_n03376595_3223.png
subject-03,1,161,1.29542207717896,dog,bottle,false,0161_fc_s03_false_bottle_35_n04557648_2063.png
subject-03,1,162,0.747344017028809,clock,clock,false,0162_fc_s03_false_clock_35_n02708093_2054.png
subject-03,1,163,0.647006988525391,car,car,true,0163_fc_s03_true_car_35_n04285008_3631.png
subject-03,1,164,0.660835027694702,bear,bear,false,0164_fc_s03_false_bear_35_n02134418_1409.png
subject-03,1,165,0.478574991226196,clock,clock,false,0165_fc_s03_false_clock_35_n04548280_2291.png
subject-03,1,166,0.668726921081543,keyboard,keyboard,false,0166_fc_s03_false_keyboard_35_n03085013_16724.png
subject-03,1,167,0.650179147720337,bear,bear,true,0167_fc_s03_true_bear_35_n02134418_9289.png
subject-03,1,168,0.714030027389526,bicycle,bicycle,false,0168_fc_s03_false_bicycle_35_n03792782_3069.png
subject-03,1,169,0.625818967819214,chair,chair,true,0169_fc_s03_true_chair_35_n04429376_3452.png
subject-03,1,170,0.919746160507202,bicycle,bicycle,false,0170_fc_s03_false_bicycle_35_n03792782_14966.png
subject-03,1,171,0.881842136383057,elephant,elephant,false,0171_fc_s03_false_elephant_35_n02504458_4139.png
subject-03,1,172,0.609571933746338,bottle,bottle,false,0172_fc_s03_false_bottle_35_n03983396_5413.png
subject-03,1,173,0.809188842773438,truck,truck,false,0173_fc_s03_false_truck_35_n03796401_19114.png
subject-03,1,174,0.632861852645874,bear,bear,true,0174_fc_s03_true_bear_35_n02132136_4817.png
subject-03,1,175,0.888741016387939,chair,chair,false,0175_fc_s03_false_chair_35_n04099969_6189.png
subject-03,1,176,0.600669860839844,chair,chair,true,0176_fc_s03_true_chair_35_n04099969_14155.png
subject-03,1,177,0.794418096542358,boat,boat,true,0177_fc_s03_true_boat_35_n03344393_6890.png
subject-03,1,178,0.66236400604248,truck,truck,true,0178_fc_s03_true_truck_35_n03417042_6691.png
subject-03,1,179,0.709982872009277,chair,chair,false,0179_fc_s03_false_chair_35_n04099969_20390.png
subject-03,1,180,0.638247013092041,truck,truck,true,0180_fc_s03_true_truck_35_n03796401_3940.png
subject-03,1,181,0.731614828109741,knife,knife,true,0181_fc_s03_true_knife_35_n03041632_7090.png
subject-03,1,182,0.714023113250732,bicycle,bicycle,false,0182_fc_s03_false_bicycle_35_n02835271_18173.png
subject-03,1,183,0.743262052536011,car,car,false,0183_fc_s03_false_car_35_n04285008_7924.png
subject-03,1,184,0.876991033554077,knife,knife,true,0184_fc_s03_true_knife_35_n03041632_24817.png
subject-03,1,185,0.714881181716919,cat,cat,false,0185_fc_s03_false_cat_35_n02123159_6089.png
subject-03,1,186,0.816717863082886,car,car,false,0186_fc_s03_false_car_35_n03100240_20185.png
subject-03,1,187,0.800479888916016,knife,knife,false,0187_fc_s03_false_knife_35_n03041632_92063.png
subject-03,1,188,0.588315010070801,clock,clock,true,0188_fc_s03_true_clock_35_n04548280_1245.png
subject-03,1,189,0.750333070755005,elephant,elephant,true,0189_fc_s03_true_elephant_35_n02504013_3810.png
subject-03,1,190,1.00604581832886,knife,chair,true,0190_fc_s03_true_chair_35_n02791124_15934.png
subject-03,1,191,0.535932779312134,bear,bear,true,0191_fc_s03_true_bear_35_n02134418_6204.png
subject-03,1,192,1.22801494598389,airplane,airplane,true,0192_fc_s03_true_airplane_35_n02690373_866.png
subject-03,1,193,1.17140889167786,knife,oven,false,0193_fc_s03_false_oven_35_n04111531_5801.png
subject-03,1,194,0.597452163696289,keyboard,keyboard,true,0194_fc_s03_true_keyboard_35_n03085013_20825.png
subject-03,1,195,1.47904014587402,bottle,oven,false,0195_fc_s03_false_oven_35_n04111531_22138.png
subject-03,1,196,0.562881946563721,bear,bear,true,0196_fc_s03_true_bear_35_n02133161_713.png
subject-03,1,197,0.594582080841064,truck,truck,true,0197_fc_s03_true_truck_35_n04467665_68020.png
subject-03,1,198,0.834467172622681,elephant,elephant,false,0198_fc_s03_false_elephant_35_n02504013_1720.png
subject-03,1,199,0.498279094696045,cat,cat,true,0199_fc_s03_true_cat_35_n02123159_1233.png
subject-03,1,200,0.646295070648193,boat,boat,false,0200_fc_s03_false_boat_35_n03662601_4418.png
subject-03,1,201,0.64398193359375,clock,clock,false,0201_fc_s03_false_clock_35_n03196217_6195.png
subject-03,1,202,0.791696071624756,bird,bird,true,0202_fc_s03_true_bird_35_n01601694_4224.png
subject-03,1,203,0.72746205329895,bird,bird,true,0203_fc_s03_true_bird_35_n01560419_631.png
subject-03,1,204,0.707373857498169,truck,truck,true,0204_fc_s03_true_truck_35_n03417042_10694.png
subject-03,1,205,0.52123498916626,clock,clock,true,0205_fc_s03_true_clock_35_n04548280_503.png
subject-03,1,206,0.551080942153931,cat,cat,true,0206_fc_s03_true_cat_35_n02123159_3655.png
subject-03,1,207,0.888729095458984,dog,dog,false,0207_fc_s03_false_dog_35_n02099601_8560.png
subject-03,1,208,0.730479001998901,bicycle,bicycle,false,0208_fc_s03_false_bicycle_35_n03792782_51335.png
subject-03,1,209,0.650433778762817,bottle,bottle,true,0209_fc_s03_true_bottle_35_n03983396_1321.png
subject-03,1,210,0.83819580078125,bear,bear,false,0210_fc_s03_false_bear_35_n02132136_7231.png
subject-03,1,211,0.836097955703735,oven,oven,false,0211_fc_s03_false_oven_35_n04111531_1562.png
subject-03,1,212,0.694227933883667,truck,truck,true,0212_fc_s03_true_truck_35_n04467665_43410.png
subject-03,1,213,0.53771185874939,boat,boat,true,0213_fc_s03_true_boat_35_n04612504_254.png
subject-03,1,214,0.573338031768799,car,car,false,0214_fc_s03_false_car_35_n02814533_90486.png
subject-03,1,215,0.657359838485718,airplane,airplane,false,0215_fc_s03_false_airplane_35_n02690373_1831.png
subject-03,1,216,0.549171924591064,bottle,bottle,false,0216_fc_s03_false_bottle_35_n02823428_4959.png
subject-03,1,217,1.17280411720276,chair,bear,false,0217_fc_s03_false_bear_35_n02134418_4485.png
subject-03,1,218,1.12302494049072,dog,dog,true,0218_fc_s03_true_dog_35_n02108551_262.png
subject-03,1,219,0.612730979919434,clock,clock,false,0219_fc_s03_false_clock_35_n02708093_5265.png
subject-03,1,220,0.668385982513428,bird,cat,false,0220_fc_s03_false_cat_35_n02123159_6170.png
subject-03,1,221,0.698358058929443,elephant,elephant,true,0221_fc_s03_true_elephant_35_n02504013_3307.png
subject-03,1,222,0.847924947738647,bird,bicycle,true,0222_fc_s03_true_bicycle_35_n03792782_8098.png
subject-03,1,223,0.491701126098633,clock,clock,true,0223_fc_s03_true_clock_35_n04548280_7794.png
subject-03,1,224,0.671555995941162,knife,knife,false,0224_fc_s03_false_knife_35_n03041632_51225.png
subject-03,1,225,0.473372936248779,cat,cat,true,0225_fc_s03_true_cat_35_n02124075_7230.png
subject-03,1,226,0.857445001602173,chair,chair,false,0226_fc_s03_false_chair_35_n04429376_9501.png
subject-03,1,227,1.14491105079651,dog,bicycle,true,0227_fc_s03_true_bicycle_35_n02835271_3642.png
subject-03,1,228,0.628936052322388,bear,bear,false,0228_fc_s03_false_bear_35_n02134084_21407.png
subject-03,1,229,0.728844881057739,bear,bear,false,0229_fc_s03_false_bear_35_n02134418_2438.png
subject-03,1,230,0.836447954177856,elephant,elephant,true,0230_fc_s03_true_elephant_35_n02504013_2033.png
subject-03,1,231,0.884320974349976,knife,knife,true,0231_fc_s03_true_knife_35_n03041632_4057.png
subject-03,1,232,0.530168056488037,cat,cat,false,0232_fc_s03_false_cat_35_n02123597_4998.png
subject-03,1,233,0.670013904571533,elephant,elephant,true,0233_fc_s03_true_elephant_35_n02504458_3599.png
subject-03,1,234,0.795720815658569,boat,boat,false,0234_fc_s03_false_boat_35_n02951358_16040.png
subject-03,1,235,0.687871217727661,knife,knife,false,0235_fc_s03_false_knife_35_n03041632_27832.png
subject-03,1,236,0.663344860076904,chair,chair,false,0236_fc_s03_false_chair_35_n03376595_787.png
subject-03,1,237,0.781112194061279,elephant,elephant,false,0237_fc_s03_false_elephant_35_n02504458_13245.png
subject-03,1,238,1.02529406547546,bird,bird,false,0238_fc_s03_false_bird_35_n02018795_7504.png
subject-03,1,239,0.678903102874756,oven,oven,false,0239_fc_s03_false_oven_35_n04111531_643.png
subject-03,1,240,0.714406967163086,bicycle,bicycle,true,0240_fc_s03_true_bicycle_35_n02835271_31.png
subject-03,1,241,0.725600004196167,bear,bear,false,0241_fc_s03_false_bear_35_n02133161_3191.png
subject-03,1,242,0.777383089065552,truck,truck,true,0242_fc_s03_true_truck_35_n04467665_25130.png
subject-03,1,243,1.25524687767029,elephant,elephant,false,0243_fc_s03_false_elephant_35_n02504013_1436.png
subject-03,1,244,0.875180959701538,keyboard,keyboard,false,0244_fc_s03_false_keyboard_35_n04505470_2868.png
subject-03,1,245,0.899216890335083,elephant,elephant,true,0245_fc_s03_true_elephant_35_n02504013_5432.png
subject-03,1,246,0.57679295539856,boat,boat,true,0246_fc_s03_true_boat_35_n03662601_34124.png
subject-03,1,247,0.740499019622803,bicycle,bicycle,false,0247_fc_s03_false_bicycle_35_n02835271_12028.png
subject-03,1,248,1.09826588630676,clock,elephant,false,0248_fc_s03_false_elephant_35_n02504013_1519.png
subject-03,1,249,0.595900058746338,oven,oven,true,0249_fc_s03_true_oven_35_n04111531_2855.png
subject-03,1,250,0.719877958297729,elephant,elephant,true,0250_fc_s03_true_elephant_35_n02504458_379.png
subject-03,1,251,0.829742908477783,cat,cat,true,0251_fc_s03_true_cat_35_n02125311_36167.png
subject-03,1,252,1.29959893226624,knife,dog,true,0252_fc_s03_true_dog_35_n02104365_8609.png
subject-03,1,253,0.641542911529541,bicycle,bicycle,true,0253_fc_s03_true_bicycle_35_n02835271_9531.png
subject-03,1,254,0.623517036437988,chair,chair,false,0254_fc_s03_false_chair_35_n04429376_5067.png
subject-03,1,255,0.655275106430054,airplane,airplane,false,0255_fc_s03_false_airplane_35_n02690373_8770.png
subject-03,1,256,0.504671812057495,cat,cat,false,0256_fc_s03_false_cat_35_n02125311_2401.png
subject-03,1,257,0.700476884841919,clock,clock,false,0257_fc_s03_false_clock_35_n02708093_2242.png
subject-03,1,258,0.622418165206909,truck,truck,true,0258_fc_s03_true_truck_35_n04467665_22051.png
subject-03,1,259,0.644237041473389,keyboard,keyboard,true,0259_fc_s03_true_keyboard_35_n03085013_6862.png
subject-03,1,260,0.794091939926147,keyboard,keyboard,false,0260_fc_s03_false_keyboard_35_n04505470_5086.png
subject-03,1,261,0.997837066650391,bear,bear,true,0261_fc_s03_true_bear_35_n02132136_4070.png
subject-03,1,262,0.511627912521362,car,car,true,0262_fc_s03_true_car_35_n04285008_9456.png
subject-03,1,263,0.699532985687256,bird,bird,false,0263_fc_s03_false_bird_35_n02027492_3922.png
subject-03,1,264,1.22310996055603,clock,clock,true,0264_fc_s03_true_clock_35_n03196217_845.png
subject-03,1,265,0.637155055999756,bottle,bottle,true,0265_fc_s03_true_bottle_35_n04557648_4420.png
subject-03,1,266,0.669049978256226,bear,oven,false,0266_fc_s03_false_oven_35_n04111531_9297.png
subject-03,1,267,1.19263601303101,chair,bottle,false,0267_fc_s03_false_bottle_35_n04560804_2539.png
subject-03,1,268,0.696477174758911,elephant,elephant,true,0268_fc_s03_true_elephant_35_n02504458_5788.png
subject-03,1,269,0.550331830978394,bottle,bottle,false,0269_fc_s03_false_bottle_35_n04557648_4356.png
subject-03,1,270,0.832108020782471,oven,truck,false,0270_fc_s03_false_truck_35_n03417042_3952.png
subject-03,1,271,1.42394185066223,airplane,airplane,true,0271_fc_s03_true_airplane_35_n02690373_5221.png
subject-03,1,272,0.587821006774902,bicycle,bicycle,true,0272_fc_s03_true_bicycle_35_n02835271_3042.png
subject-03,1,273,1.04151010513306,bear,bear,false,0273_fc_s03_false_bear_35_n02132136_2248.png
subject-03,1,274,1.19951701164246,airplane,airplane,false,0274_fc_s03_false_airplane_35_n02690373_7279.png
subject-03,1,275,0.715045928955078,bicycle,bicycle,true,0275_fc_s03_true_bicycle_35_n03792782_634.png
subject-03,1,276,0.800812959671021,oven,truck,false,0276_fc_s03_false_truck_35_n03796401_9136.png
subject-03,1,277,0.925133943557739,truck,truck,true,0277_fc_s03_true_truck_35_n04467665_23055.png
subject-03,1,278,0.988728046417236,bottle,bottle,false,0278_fc_s03_false_bottle_35_n04579145_6435.png
subject-03,1,279,0.500408172607422,oven,oven,true,0279_fc_s03_true_oven_35_n04111531_3353.png
subject-03,1,280,1.22614502906799,dog,dog,false,0280_fc_s03_false_dog_35_n02105056_2046.png
subject-03,1,281,0.690046072006226,car,car,false,0281_fc_s03_false_car_35_n02814533_4885.png
subject-03,1,282,0.595751047134399,chair,chair,true,0282_fc_s03_true_chair_35_n03376595_3015.png
subject-03,1,283,0.947669982910156,keyboard,keyboard,false,0283_fc_s03_false_keyboard_35_n03085013_21127.png
subject-03,1,284,0.73336386680603,knife,knife,true,0284_fc_s03_true_knife_35_n03041632_2390.png
subject-03,1,285,0.657614946365356,chair,chair,false,0285_fc_s03_false_chair_35_n03376595_635.png
subject-03,1,286,0.598994016647339,chair,chair,false,0286_fc_s03_false_chair_35_n03376595_1810.png
subject-03,1,287,1.00289916992188,bear,bear,true,0287_fc_s03_true_bear_35_n02134418_643.png
subject-03,1,288,NaN,na,oven,true,0288_fc_s03_true_oven_35_n04111531_7034.png
subject-03,1,289,1.30267906188965,clock,clock,false,0289_fc_s03_false_clock_35_n04548280_17802.png
subject-03,1,290,0.810373067855835,oven,oven,true,0290_fc_s03_true_oven_35_n04111531_1898.png
subject-03,1,291,0.596151113510132,cat,cat,true,0291_fc_s03_true_cat_35_n02123394_4734.png
subject-03,1,292,0.547959089279175,bottle,bottle,true,0292_fc_s03_true_bottle_35_n03983396_8768.png
subject-03,1,293,1.46170592308044,dog,dog,false,0293_fc_s03_false_dog_35_n02100877_4371.png
subject-03,1,294,0.615520000457764,truck,truck,true,0294_fc_s03_true_truck_35_n04467665_13989.png
subject-03,1,295,0.825387001037598,truck,truck,false,0295_fc_s03_false_truck_35_n03417042_2124.png
subject-03,1,296,0.873363018035889,bottle,bottle,true,0296_fc_s03_true_bottle_35_n03983396_11788.png
subject-03,1,297,0.603215932846069,clock,clock,false,0297_fc_s03_false_clock_35_n02708093_585.png
subject-03,1,298,0.656826019287109,keyboard,keyboard,false,0298_fc_s03_false_keyboard_35_n03085013_21300.png
subject-03,1,299,0.976702928543091,oven,bottle,false,0299_fc_s03_false_bottle_35_n04560804_564.png
subject-03,1,300,0.788662910461426,elephant,elephant,false,0300_fc_s03_false_elephant_35_n02504013_1494.png
subject-03,1,301,0.610702037811279,clock,clock,true,0301_fc_s03_true_clock_35_n04548280_5408.png
subject-03,1,302,0.858141899108887,bottle,bottle,true,0302_fc_s03_true_bottle_35_n04557648_2512.png
subject-03,1,303,0.957956075668335,dog,dog,true,0303_fc_s03_true_dog_35_n02095570_11142.png
subject-03,1,304,0.73580002784729,boat,boat,false,0304_fc_s03_false_boat_35_n02951358_26227.png
subject-03,1,305,0.639413118362427,bottle,bottle,false,0305_fc_s03_false_bottle_35_n04557648_12039.png
subject-03,1,306,0.843400001525879,truck,truck,false,0306_fc_s03_false_truck_35_n03417042_1000.png
subject-03,1,307,1.28910207748413,elephant,elephant,false,0307_fc_s03_false_elephant_35_n02504458_7258.png
subject-03,1,308,0.677288055419922,bird,bird,true,0308_fc_s03_true_bird_35_n01560419_2726.png
subject-03,1,309,0.722840070724487,truck,truck,true,0309_fc_s03_true_truck_35_n04467665_3094.png
subject-03,1,310,0.728899002075195,bicycle,bicycle,false,0310_fc_s03_false_bicycle_35_n03792782_7576.png
subject-03,1,311,0.674365997314453,bear,bear,true,0311_fc_s03_true_bear_35_n02133161_1302.png
subject-03,1,312,0.90214991569519,elephant,elephant,false,0312_fc_s03_false_elephant_35_n02504458_3205.png
subject-03,1,313,0.711992979049683,clock,clock,false,0313_fc_s03_false_clock_35_n03196217_3050.png
subject-03,1,314,0.751821041107178,knife,knife,true,0314_fc_s03_true_knife_35_n03041632_9671.png
subject-03,1,315,0.803680896759033,bird,bird,true,0315_fc_s03_true_bird_35_n01828970_25642.png
subject-03,1,316,1.50014710426331,bottle,bottle,false,0316_fc_s03_false_bottle_35_n03983396_18753.png
subject-03,1,317,1.27742218971252,elephant,elephant,false,0317_fc_s03_false_elephant_35_n02504013_5027.png
subject-03,1,318,0.571276903152466,keyboard,keyboard,true,0318_fc_s03_true_keyboard_35_n03085013_19439.png
subject-03,1,319,0.624938011169434,chair,chair,true,0319_fc_s03_true_chair_35_n04099969_45461.png
subject-03,1,320,0.657059907913208,bottle,knife,false,0320_fc_s03_false_knife_35_n03041632_21590.png
subject-03,1,321,0.894399166107178,clock,bicycle,true,0321_fc_s03_true_bicycle_35_n03792782_7388.png
subject-03,1,322,0.878112077713013,cat,cat,false,0322_fc_s03_false_cat_35_n02123159_1165.png
subject-03,1,323,0.74372386932373,bear,bear,true,0323_fc_s03_true_bear_35_n02132136_8059.png
subject-03,1,324,0.857517957687378,bird,bird,false,0324_fc_s03_false_bird_35_n01558993_11093.png
subject-03,1,325,0.827456951141357,boat,boat,false,0325_fc_s03_false_boat_35_n03662601_18579.png
subject-03,1,326,0.685073852539062,keyboard,keyboard,true,0326_fc_s03_true_keyboard_35_n04505470_2825.png
subject-03,1,327,0.604780912399292,cat,cat,true,0327_fc_s03_true_cat_35_n02123394_5001.png
subject-03,1,328,0.744836091995239,truck,truck,false,0328_fc_s03_false_truck_35_n03417042_6204.png
subject-03,1,329,0.782520055770874,bicycle,bicycle,true,0329_fc_s03_true_bicycle_35_n02835271_15524.png
subject-03,1,330,0.894327878952026,dog,dog,true,0330_fc_s03_true_dog_35_n02108551_11297.png
subject-03,1,331,0.721925020217896,keyboard,keyboard,true,0331_fc_s03_true_keyboard_35_n03085013_21641.png
subject-03,1,332,0.692084074020386,chair,chair,true,0332_fc_s03_true_chair_35_n03376595_7394.png
subject-03,1,333,0.729750871658325,bicycle,truck,false,0333_fc_s03_false_truck_35_n03417042_4587.png
subject-03,1,334,1.50001811981201,bottle,bottle,false,0334_fc_s03_false_bottle_35_n04560804_15263.png
subject-03,1,335,1.05357193946838,airplane,airplane,false,0335_fc_s03_false_airplane_35_n02690373_3173.png
subject-03,1,336,0.729094982147217,truck,truck,false,0336_fc_s03_false_truck_35_n04467665_197.png
subject-03,1,337,0.534898996353149,clock,clock,true,0337_fc_s03_true_clock_35_n04548280_8071.png
subject-03,1,338,0.752866983413696,bottle,bottle,false,0338_fc_s03_false_bottle_35_n04557648_3673.png
subject-03,1,339,0.67084002494812,truck,truck,false,0339_fc_s03_false_truck_35_n04467665_11888.png
subject-03,1,340,0.482448101043701,clock,clock,true,0340_fc_s03_true_clock_35_n02708093_1124.png
subject-03,1,341,0.872112035751343,chair,clock,false,0341_fc_s03_false_clock_35_n04548280_4542.png
subject-03,1,342,0.858171939849854,knife,knife,false,0342_fc_s03_false_knife_35_n03041632_13742.png
subject-03,1,343,1.00394892692566,bird,bird,false,0343_fc_s03_false_bird_35_n02013706_5736.png
subject-03,1,344,0.751589059829712,keyboard,keyboard,false,0344_fc_s03_false_keyboard_35_n03085013_28584.png
subject-03,1,345,1.30553603172302,elephant,elephant,false,0345_fc_s03_false_elephant_35_n02504458_209.png
subject-03,1,346,0.481712102890015,clock,clock,true,0346_fc_s03_true_clock_35_n04548280_309.png
subject-03,1,347,0.631196975708008,elephant,elephant,true,0347_fc_s03_true_elephant_35_n02504458_5187.png
subject-03,1,348,0.644781112670898,airplane,airplane,false,0348_fc_s03_false_airplane_35_n02690373_4198.png
subject-03,1,349,0.629086971282959,keyboard,keyboard,true,0349_fc_s03_true_keyboard_35_n03085013_22796.png
subject-03,1,350,0.462590932846069,clock,clock,false,0350_fc_s03_false_clock_35_n02708093_1684.png
subject-03,1,351,1.32025504112244,chair,chair,false,0351_fc_s03_false_chair_35_n03376595_120.png
subject-03,1,352,0.584174871444702,bear,bear,false,0352_fc_s03_false_bear_35_n02134084_6821.png
subject-03,1,353,0.942068099975586,bear,bear,false,0353_fc_s03_false_bear_35_n02132136_10988.png
subject-03,1,354,0.58995509147644,clock,clock,false,0354_fc_s03_false_clock_35_n04548280_1022.png
subject-03,1,355,1.04387712478638,bear,bear,true,0355_fc_s03_true_bear_35_n02133161_6448.png
subject-03,1,356,0.519495964050293,clock,clock,false,0356_fc_s03_false_clock_35_n02708093_3745.png
subject-03,1,357,0.581150054931641,bear,bear,true,0357_fc_s03_true_bear_35_n02132136_7872.png
subject-03,1,358,0.625320911407471,car,car,true,0358_fc_s03_true_car_35_n04285008_5440.png
subject-03,1,359,0.910867929458618,bird,bird,true,0359_fc_s03_true_bird_35_n01795545_4502.png
subject-03,1,360,0.714731931686401,keyboard,keyboard,true,0360_fc_s03_true_keyboard_35_n03085013_743.png
subject-03,1,361,NaN,na,oven,false,0361_fc_s03_false_oven_35_n04111531_688.png
subject-03,1,362,0.556432962417603,bicycle,bicycle,true,0362_fc_s03_true_bicycle_35_n02835271_12752.png
subject-03,1,363,0.728262186050415,chair,chair,true,0363_fc_s03_true_chair_35_n02791124_1135.png
subject-03,1,364,0.765870094299316,airplane,airplane,false,0364_fc_s03_false_airplane_35_n02690373_2095.png
subject-03,1,365,0.812097072601318,truck,truck,false,0365_fc_s03_false_truck_35_n03796401_6923.png
subject-03,1,366,0.847707033157349,bottle,bottle,true,0366_fc_s03_true_bottle_35_n03937543_469.png
subject-03,1,367,0.573409080505371,bear,bear,true,0367_fc_s03_true_bear_35_n02133161_1571.png
subject-03,1,368,0.915294885635376,truck,truck,true,0368_fc_s03_true_truck_35_n03796401_27288.png
subject-03,1,369,0.710820198059082,keyboard,keyboard,true,0369_fc_s03_true_keyboard_35_n03085013_5157.png
subject-03,1,370,0.780694007873535,airplane,airplane,true,0370_fc_s03_true_airplane_35_n02690373_10285.png
subject-03,1,371,0.608793020248413,cat,cat,false,0371_fc_s03_false_cat_35_n02125311_41249.png
subject-03,1,372,0.576333045959473,cat,cat,true,0372_fc_s03_true_cat_35_n02125311_6746.png
subject-03,1,373,0.654253959655762,bottle,bottle,false,0373_fc_s03_false_bottle_35_n04591713_5599.png
subject-03,1,374,0.518534183502197,clock,clock,true,0374_fc_s03_true_clock_35_n03196217_5972.png
subject-03,1,375,0.541849136352539,oven,oven,true,0375_fc_s03_true_oven_35_n04111531_12769.png
subject-03,1,376,0.743774175643921,car,car,false,0376_fc_s03_false_car_35_n02814533_31430.png
subject-03,1,377,0.795392990112305,car,car,true,0377_fc_s03_true_car_35_n03100240_2909.png
subject-03,1,378,0.841249942779541,bottle,bottle,false,0378_fc_s03_false_bottle_35_n04557648_3615.png
subject-03,1,379,0.931051015853882,dog,dog,true,0379_fc_s03_true_dog_35_n02102177_7737.png
subject-03,1,380,0.892989873886108,dog,dog,false,0380_fc_s03_false_dog_35_n02102973_7095.png
subject-03,1,381,0.785029172897339,elephant,elephant,false,0381_fc_s03_false_elephant_35_n02504458_4631.png
subject-03,1,382,1.16656017303467,elephant,elephant,true,0382_fc_s03_true_elephant_35_n02504013_12615.png
subject-03,1,383,0.696392059326172,keyboard,keyboard,true,0383_fc_s03_true_keyboard_35_n04505470_3864.png
subject-03,1,384,0.632297039031982,boat,boat,true,0384_fc_s03_true_boat_35_n03662601_11862.png
subject-03,1,385,0.663877010345459,cat,cat,false,0385_fc_s03_false_cat_35_n02124075_5874.png
subject-03,1,386,NaN,na,knife,true,0386_fc_s03_true_knife_35_n03041632_22480.png
subject-03,1,387,1.25169610977173,bird,bird,true,0387_fc_s03_true_bird_35_n02002724_2909.png
subject-03,1,388,0.829522132873535,dog,dog,true,0388_fc_s03_true_dog_35_n02111129_6560.png
subject-03,1,389,1.26502108573914,dog,elephant,true,0389_fc_s03_true_elephant_35_n02504458_2970.png
subject-03,1,390,0.642922878265381,oven,chair,false,0390_fc_s03_false_chair_35_n02791124_13701.png
subject-03,1,391,0.906933069229126,bear,bear,false,0391_fc_s03_false_bear_35_n02132136_19521.png
subject-03,1,392,1.00876092910767,dog,bear,false,0392_fc_s03_false_bear_35_n02134084_14260.png
subject-03,1,393,0.754472970962524,knife,knife,false,0393_fc_s03_false_knife_35_n03041632_8051.png
subject-03,1,394,0.75228214263916,bear,bear,false,0394_fc_s03_false_bear_35_n02134084_4677.png
subject-03,1,395,0.685978889465332,knife,knife,false,0395_fc_s03_false_knife_35_n03041632_13645.png
subject-03,1,396,0.616034030914307,elephant,elephant,false,0396_fc_s03_false_elephant_35_n02504013_11073.png
subject-03,1,397,1.01579403877258,dog,oven,false,0397_fc_s03_false_oven_35_n04111531_797.png
subject-03,1,398,0.791686058044434,clock,clock,true,0398_fc_s03_true_clock_35_n03196217_5888.png
subject-03,1,399,0.827326059341431,dog,dog,true,0399_fc_s03_true_dog_35_n02107312_7182.png
subject-03,1,400,0.959414958953857,bird,bird,true,0400_fc_s03_true_bird_35_n01818515_8330.png
subject-03,1,401,0.914747953414917,dog,dog,true,0401_fc_s03_true_dog_35_n02105855_18455.png
subject-03,1,402,0.562736988067627,chair,chair,true,0402_fc_s03_true_chair_35_n03376595_9897.png
subject-03,1,403,0.524737119674683,clock,clock,true,0403_fc_s03_true_clock_35_n03196217_7663.png
subject-03,1,404,0.60820198059082,airplane,airplane,false,0404_fc_s03_false_airplane_35_n02690373_4191.png
subject-03,1,405,0.666055917739868,car,car,true,0405_fc_s03_true_car_35_n04285008_2841.png
subject-03,1,406,0.845893144607544,dog,dog,true,0406_fc_s03_true_dog_35_n02096437_1984.png
subject-03,1,407,0.587778091430664,dog,dog,true,0407_fc_s03_true_dog_35_n02092339_7915.png
subject-03,1,408,0.993479013442993,bird,bird,false,0408_fc_s03_false_bird_35_n01560419_2291.png
subject-03,1,409,0.869257926940918,knife,knife,true,0409_fc_s03_true_knife_35_n03041632_86251.png
subject-03,1,410,0.765117883682251,boat,boat,true,0410_fc_s03_true_boat_35_n04612504_5093.png
subject-03,1,411,0.601037979125977,boat,boat,true,0411_fc_s03_true_boat_35_n04612504_15440.png
subject-03,1,412,0.506731986999512,oven,oven,true,0412_fc_s03_true_oven_35_n04111531_4227.png
subject-03,1,413,0.662509202957153,airplane,airplane,false,0413_fc_s03_false_airplane_35_n02690373_9926.png
subject-03,1,414,1.29642081260681,bottle,bottle,true,0414_fc_s03_true_bottle_35_n04560804_15843.png
subject-03,1,415,1.14813184738159,car,car,true,0415_fc_s03_true_car_35_n04285008_2900.png
subject-03,1,416,0.544059991836548,bicycle,bicycle,false,0416_fc_s03_false_bicycle_35_n02835271_14157.png
subject-03,1,417,0.753680944442749,bottle,bottle,false,0417_fc_s03_false_bottle_35_n03983396_3782.png
subject-03,1,418,0.743671894073486,bicycle,bicycle,true,0418_fc_s03_true_bicycle_35_n02835271_10293.png
subject-03,1,419,0.573441982269287,keyboard,keyboard,true,0419_fc_s03_true_keyboard_35_n03085013_30335.png
subject-03,1,420,0.907283067703247,knife,knife,false,0420_fc_s03_false_knife_35_n03041632_18532.png
subject-03,1,421,0.701172113418579,cat,cat,true,0421_fc_s03_true_cat_35_n02123597_5081.png
subject-03,1,422,0.84691596031189,chair,chair,true,0422_fc_s03_true_chair_35_n04429376_16619.png
subject-03,1,423,0.662690162658691,cat,cat,false,0423_fc_s03_false_cat_35_n02123394_4383.png
subject-03,1,424,0.858671188354492,clock,clock,false,0424_fc_s03_false_clock_35_n04548280_3994.png
subject-03,1,425,1.44234991073608,oven,knife,false,0425_fc_s03_false_knife_35_n03041632_29680.png
subject-03,1,426,0.846054077148438,dog,dog,false,0426_fc_s03_false_dog_35_n02086240_5271.png
subject-03,1,427,1.00182604789734,dog,dog,false,0427_fc_s03_false_dog_35_n02113712_913.png
subject-03,1,428,1.18189406394958,car,car,false,0428_fc_s03_false_car_35_n03100240_2425.png
subject-03,1,429,0.943417072296143,bird,bird,true,0429_fc_s03_true_bird_35_n01819313_5634.png
subject-03,1,430,0.937460899353027,bear,oven,false,0430_fc_s03_false_oven_35_n04111531_6400.png
subject-03,1,431,0.551055908203125,bicycle,bicycle,false,0431_fc_s03_false_bicycle_35_n03792782_626.png
subject-03,1,432,0.855013132095337,keyboard,keyboard,true,0432_fc_s03_true_keyboard_35_n03085013_3980.png
subject-03,1,433,0.684877872467041,oven,oven,true,0433_fc_s03_true_oven_35_n04111531_13590.png
subject-03,1,434,0.542795181274414,oven,oven,true,0434_fc_s03_true_oven_35_n04111531_12510.png
subject-03,1,435,0.736411094665527,oven,oven,false,0435_fc_s03_false_oven_35_n04111531_11079.png
subject-03,1,436,0.694293022155762,airplane,airplane,false,0436_fc_s03_false_airplane_35_n02690373_13585.png
subject-03,1,437,0.786122798919678,knife,knife,false,0437_fc_s03_false_knife_35_n03041632_51766.png
subject-03,1,438,0.635879993438721,boat,boat,false,0438_fc_s03_false_boat_35_n03344393_4143.png
subject-03,1,439,0.683696031570435,bear,bear,false,0439_fc_s03_false_bear_35_n02134084_22997.png
subject-03,1,440,1.2956428527832,boat,boat,false,0440_fc_s03_false_boat_35_n03344393_7503.png
subject-03,1,441,0.62940502166748,chair,chair,false,0441_fc_s03_false_chair_35_n03376595_4212.png
subject-03,1,442,0.903140783309937,bird,bird,true,0442_fc_s03_true_bird_35_n02013706_10478.png
subject-03,1,443,0.651160001754761,bottle,bottle,true,0443_fc_s03_true_bottle_35_n04591713_4291.png
subject-03,1,444,0.588793039321899,bear,bear,false,0444_fc_s03_false_bear_35_n02133161_11351.png
subject-03,1,445,0.688688993453979,bear,bear,true,0445_fc_s03_true_bear_35_n02132136_258.png
subject-03,1,446,0.656458139419556,car,car,true,0446_fc_s03_true_car_35_n03100240_21982.png
subject-03,1,447,0.710216045379639,airplane,airplane,false,0447_fc_s03_false_airplane_35_n02690373_6831.png
subject-03,1,448,0.828178882598877,knife,knife,true,0448_fc_s03_true_knife_35_n03041632_24883.png
subject-03,1,449,0.982245206832886,oven,oven,true,0449_fc_s03_true_oven_35_n04111531_547.png
subject-03,1,450,1.10560297966003,boat,boat,true,0450_fc_s03_true_boat_35_n03344393_7050.png
subject-03,1,451,0.575493097305298,bottle,bottle,true,0451_fc_s03_true_bottle_35_n04591713_1174.png
subject-03,1,452,0.78516697883606,airplane,airplane,true,0452_fc_s03_true_airplane_35_n02690373_1434.png
subject-03,1,453,1.47110295295715,truck,boat,true,0453_fc_s03_true_boat_35_n03662601_15766.png
subject-03,1,454,0.642863035202026,airplane,airplane,true,0454_fc_s03_true_airplane_35_n02690373_10809.png
subject-03,1,455,0.63282585144043,truck,truck,false,0455_fc_s03_false_truck_35_n03417042_25493.png
subject-03,1,456,1.09034585952759,clock,clock,true,0456_fc_s03_true_clock_35_n04548280_12615.png
subject-03,1,457,1.44226408004761,cat,dog,false,0457_fc_s03_false_dog_35_n02093647_3072.png
subject-03,1,458,1.02009606361389,clock,clock,true,0458_fc_s03_true_clock_35_n03196217_3430.png
subject-03,1,459,0.697846174240112,bicycle,bicycle,true,0459_fc_s03_true_bicycle_35_n03792782_7050.png
subject-03,1,460,0.883692979812622,oven,oven,true,0460_fc_s03_true_oven_35_n04111531_13822.png
subject-03,1,461,1.16977691650391,bird,bird,true,0461_fc_s03_true_bird_35_n01843383_9064.png
subject-03,1,462,0.43147611618042,cat,cat,true,0462_fc_s03_true_cat_35_n02124075_5067.png
subject-03,1,463,1.00112581253052,knife,oven,false,0463_fc_s03_false_oven_35_n04111531_11794.png
subject-03,1,464,0.70498514175415,car,car,false,0464_fc_s03_false_car_35_n02814533_10329.png
subject-03,1,465,0.672791957855225,truck,truck,false,0465_fc_s03_false_truck_35_n04467665_2240.png
subject-03,1,466,0.53056001663208,cat,cat,true,0466_fc_s03_true_cat_35_n02123597_4040.png
subject-03,1,467,0.638370037078857,car,car,true,0467_fc_s03_true_car_35_n03100240_14045.png
subject-03,1,468,0.934195995330811,dog,dog,false,0468_fc_s03_false_dog_35_n02100877_3363.png
subject-03,1,469,0.520153045654297,airplane,airplane,true,0469_fc_s03_true_airplane_35_n02690373_10926.png
subject-03,1,470,0.482276916503906,bird,bird,true,0470_fc_s03_true_bird_35_n02037110_3761.png
subject-03,1,471,0.771723985671997,oven,oven,false,0471_fc_s03_false_oven_35_n04111531_18245.png
subject-03,1,472,0.667703866958618,clock,clock,true,0472_fc_s03_true_clock_35_n02708093_1775.png
subject-03,1,473,0.901344060897827,bicycle,bicycle,false,0473_fc_s03_false_bicycle_35_n02835271_8209.png
subject-03,1,474,0.917190074920654,truck,truck,true,0474_fc_s03_true_truck_35_n04467665_2505.png
subject-03,1,475,0.581079006195068,boat,boat,true,0475_fc_s03_true_boat_35_n04612504_5334.png
subject-03,1,476,0.806730985641479,boat,boat,false,0476_fc_s03_false_boat_35_n03662601_25404.png
subject-03,1,477,0.788627147674561,keyboard,keyboard,false,0477_fc_s03_false_keyboard_35_n04505470_4627.png
subject-03,1,478,0.774259805679321,airplane,airplane,true,0478_fc_s03_true_airplane_35_n02690373_2162.png
subject-03,1,479,0.704060077667236,bird,bird,true,0479_fc_s03_true_bird_35_n02037110_4043.png
subject-03,1,480,1.31593108177185,cat,dog,true,0480_fc_s03_true_dog_35_n02097658_4387.png
subject-03,1,481,0.923994064331055,bear,bear,false,0481_fc_s03_false_bear_35_n02134418_1105.png
subject-03,1,482,0.715914964675903,keyboard,keyboard,false,0482_fc_s03_false_keyboard_35_n04505470_4411.png
subject-03,1,483,0.613719940185547,cat,cat,false,0483_fc_s03_false_cat_35_n02123597_23346.png
subject-03,1,484,0.587638854980469,cat,cat,false,0484_fc_s03_false_cat_35_n02123394_1942.png
subject-03,1,485,0.705502986907959,knife,knife,true,0485_fc_s03_true_knife_35_n03041632_8151.png
subject-03,1,486,0.893072128295898,chair,chair,false,0486_fc_s03_false_chair_35_n02791124_4547.png
subject-03,1,487,0.742897987365723,cat,cat,true,0487_fc_s03_true_cat_35_n02125311_8541.png
subject-03,1,488,1.44673705101013,chair,oven,false,0488_fc_s03_false_oven_35_n04111531_4050.png
subject-03,1,489,0.57094407081604,keyboard,keyboard,false,0489_fc_s03_false_keyboard_35_n04505470_8148.png
subject-03,1,490,0.904285907745361,knife,knife,false,0490_fc_s03_false_knife_35_n03041632_16104.png
subject-03,1,491,0.858362913131714,chair,chair,false,0491_fc_s03_false_chair_35_n02791124_2091.png
subject-03,1,492,1.12034797668457,clock,knife,true,0492_fc_s03_true_knife_35_n03041632_29343.png
subject-03,1,493,0.701900959014893,elephant,elephant,true,0493_fc_s03_true_elephant_35_n02504458_7950.png
subject-03,1,494,0.62957501411438,cat,cat,true,0494_fc_s03_true_cat_35_n02123597_7908.png
subject-03,1,495,0.637470960617065,clock,clock,true,0495_fc_s03_true_clock_35_n03196217_1219.png
subject-03,1,496,0.633536100387573,bicycle,bicycle,false,0496_fc_s03_false_bicycle_35_n03792782_4210.png
subject-03,1,497,0.6389479637146,airplane,airplane,false,0497_fc_s03_false_airplane_35_n02690373_12896.png
subject-03,1,498,0.793148040771484,clock,clock,false,0498_fc_s03_false_clock_35_n03196217_8489.png
subject-03,1,499,0.888598203659058,bird,bird,true,0499_fc_s03_true_bird_35_n01534433_13846.png
subject-03,1,500,0.778478145599365,elephant,elephant,true,0500_fc_s03_true_elephant_35_n02504458_4861.png
subject-03,1,501,0.636213064193726,bottle,bottle,true,0501_fc_s03_true_bottle_35_n02823428_10612.png
subject-03,1,502,0.770602941513062,clock,clock,true,0502_fc_s03_true_clock_35_n04548280_3997.png
subject-03,1,503,0.659820079803467,boat,boat,true,0503_fc_s03_true_boat_35_n04273569_9282.png
subject-03,1,504,1.30185890197754,knife,knife,false,0504_fc_s03_false_knife_35_n03041632_47743.png
subject-03,1,505,0.431697845458984,cat,cat,true,0505_fc_s03_true_cat_35_n02123597_6291.png
subject-03,1,506,0.699388980865479,car,car,true,0506_fc_s03_true_car_35_n03100240_20935.png
subject-03,1,507,0.777336835861206,clock,clock,true,0507_fc_s03_true_clock_35_n03196217_11054.png
subject-03,1,508,0.610949993133545,chair,chair,false,0508_fc_s03_false_chair_35_n04099969_8961.png
subject-03,1,509,0.616689920425415,car,car,false,0509_fc_s03_false_car_35_n03100240_18270.png
subject-03,1,510,1.40671181678772,boat,car,false,0510_fc_s03_false_car_35_n03100240_13908.png
subject-03,1,511,1.20280289649963,dog,oven,false,0511_fc_s03_false_oven_35_n04111531_2150.png
subject-03,1,512,0.798343181610107,bird,bird,true,0512_fc_s03_true_bird_35_n02011460_22291.png
subject-03,1,513,1.14031195640564,bird,elephant,true,0513_fc_s03_true_elephant_35_n02504013_3384.png
subject-03,1,514,1.03630685806274,car,car,false,0514_fc_s03_false_car_35_n03100240_16803.png
subject-03,1,515,1.231684923172,bird,bird,true,0515_fc_s03_true_bird_35_n01843383_3019.png
subject-03,1,516,1.50000905990601,truck,truck,false,0516_fc_s03_false_truck_35_n03796401_18074.png
subject-03,1,517,0.635777950286865,keyboard,keyboard,false,0517_fc_s03_false_keyboard_35_n03085013_20957.png
subject-03,1,518,0.825511932373047,keyboard,keyboard,true,0518_fc_s03_true_keyboard_35_n03085013_15484.png
subject-03,1,519,0.751230001449585,elephant,elephant,false,0519_fc_s03_false_elephant_35_n02504013_8007.png
subject-03,1,520,0.576923847198486,boat,boat,false,0520_fc_s03_false_boat_35_n03662601_10811.png
subject-03,1,521,1.2925500869751,chair,keyboard,false,0521_fc_s03_false_keyboard_35_n03085013_23865.png
subject-03,1,522,0.714503049850464,car,car,false,0522_fc_s03_false_car_35_n03100240_16866.png
subject-03,1,523,0.728302955627441,truck,truck,true,0523_fc_s03_true_truck_35_n03417042_11091.png
subject-03,1,524,0.900146007537842,airplane,airplane,true,0524_fc_s03_true_airplane_35_n02690373_10176.png
subject-03,1,525,0.797873973846436,cat,cat,true,0525_fc_s03_true_cat_35_n02123597_2099.png
subject-03,1,526,0.709694147109985,bear,bear,true,0526_fc_s03_true_bear_35_n02133161_2597.png
subject-03,1,527,0.675307989120483,clock,clock,false,0527_fc_s03_false_clock_35_n03196217_6999.png
subject-03,1,528,0.783225774765015,bird,bird,true,0528_fc_s03_true_bird_35_n01829413_282.png
subject-03,1,529,0.703146934509277,knife,knife,false,0529_fc_s03_false_knife_35_n03041632_54627.png
subject-03,1,530,1.33306288719177,bear,bird,true,0530_fc_s03_true_bird_35_n01592084_6081.png
subject-03,1,531,0.831115007400513,chair,chair,true,0531_fc_s03_true_chair_35_n04429376_22734.png
subject-03,1,532,1.11654615402222,elephant,elephant,false,0532_fc_s03_false_elephant_35_n02504458_6109.png
subject-03,1,533,0.928747892379761,boat,boat,true,0533_fc_s03_true_boat_35_n02951358_31470.png
subject-03,1,534,0.636051893234253,keyboard,keyboard,true,0534_fc_s03_true_keyboard_35_n04505470_4033.png
subject-03,1,535,0.907840967178345,knife,knife,false,0535_fc_s03_false_knife_35_n03041632_25512.png
subject-03,1,536,0.890187978744507,bird,bird,true,0536_fc_s03_true_bird_35_n01855672_13403.png
subject-03,1,537,0.883595943450928,boat,boat,true,0537_fc_s03_true_boat_35_n03344393_6324.png
subject-03,1,538,0.725767850875854,boat,boat,false,0538_fc_s03_false_boat_35_n03344393_6869.png
subject-03,1,539,0.711259126663208,car,car,false,0539_fc_s03_false_car_35_n04285008_863.png
subject-03,1,540,0.470989942550659,clock,clock,true,0540_fc_s03_true_clock_35_n04548280_3245.png
subject-03,1,541,0.750698089599609,oven,oven,false,0541_fc_s03_false_oven_35_n04111531_8082.png
subject-03,1,542,1.08878207206726,bottle,bottle,true,0542_fc_s03_true_bottle_35_n04560804_13316.png
subject-03,1,543,0.94875693321228,chair,bicycle,true,0543_fc_s03_true_bicycle_35_n02835271_6539.png
subject-03,1,544,0.702149152755737,car,car,false,0544_fc_s03_false_car_35_n03100240_12694.png
subject-03,1,545,0.954109907150269,car,bicycle,true,0545_fc_s03_true_bicycle_35_n02835271_6137.png
subject-03,1,546,0.603705883026123,knife,knife,false,0546_fc_s03_false_knife_35_n03041632_36235.png
subject-03,1,547,0.695580005645752,bear,bear,true,0547_fc_s03_true_bear_35_n02134084_22292.png
subject-03,1,548,1.13949108123779,clock,clock,false,0548_fc_s03_false_clock_35_n03196217_2567.png
subject-03,1,549,0.631233930587769,truck,truck,true,0549_fc_s03_true_truck_35_n04467665_21542.png
subject-03,1,550,0.667235136032104,bicycle,bicycle,false,0550_fc_s03_false_bicycle_35_n03792782_1418.png
subject-03,1,551,0.624979972839355,boat,boat,true,0551_fc_s03_true_boat_35_n03662601_8221.png
subject-03,1,552,0.560678958892822,chair,chair,false,0552_fc_s03_false_chair_35_n04099969_8604.png
subject-03,1,553,1.50012993812561,bicycle,bottle,false,0553_fc_s03_false_bottle_35_n04560804_2448.png
subject-03,1,554,0.868301868438721,bird,bird,false,0554_fc_s03_false_bird_35_n02013706_16546.png
subject-03,1,555,0.884082078933716,dog,dog,false,0555_fc_s03_false_dog_35_n02105056_10931.png
subject-03,1,556,1.04608488082886,elephant,elephant,true,0556_fc_s03_true_elephant_35_n02504013_2558.png
subject-03,1,557,0.754130125045776,bottle,bottle,true,0557_fc_s03_true_bottle_35_n02823428_5807.png
subject-03,1,558,0.525363922119141,clock,clock,false,0558_fc_s03_false_clock_35_n03196217_3508.png
subject-03,1,559,0.765335083007812,bear,bear,true,0559_fc_s03_true_bear_35_n02134418_2657.png
subject-03,1,560,1.08726096153259,elephant,elephant,false,0560_fc_s03_false_elephant_35_n02504458_3491.png
subject-03,1,561,0.964966058731079,dog,dog,false,0561_fc_s03_false_dog_35_n02092339_160.png
subject-03,1,562,0.854743957519531,boat,airplane,true,0562_fc_s03_true_airplane_35_n02690373_3920.png
subject-03,1,563,0.6286301612854,bear,bear,true,0563_fc_s03_true_bear_35_n02134418_11557.png
subject-03,1,564,0.652847051620483,truck,truck,true,0564_fc_s03_true_truck_35_n03796401_7380.png
subject-03,1,565,0.838357925415039,bottle,bottle,true,0565_fc_s03_true_bottle_35_n04579145_5451.png
subject-03,1,566,0.81002402305603,airplane,airplane,false,0566_fc_s03_false_airplane_35_n02690373_4199.png
subject-03,1,567,0.985870838165283,dog,dog,false,0567_fc_s03_false_dog_35_n02096294_4609.png
subject-03,1,568,1.50009608268738,bird,elephant,false,0568_fc_s03_false_elephant_35_n02504013_5934.png
subject-03,1,569,0.683552980422974,boat,boat,true,0569_fc_s03_true_boat_35_n03662601_9602.png
subject-03,1,570,0.547262907028198,bottle,bottle,true,0570_fc_s03_true_bottle_35_n04560804_5636.png
subject-03,1,571,1.10917806625366,oven,knife,true,0571_fc_s03_true_knife_35_n03041632_52929.png
subject-03,1,572,0.90523099899292,elephant,elephant,false,0572_fc_s03_false_elephant_35_n02504458_1249.png
subject-03,1,573,0.8626549243927,boat,car,true,0573_fc_s03_true_car_35_n04285008_14161.png
subject-03,1,574,0.526592016220093,bottle,bottle,false,0574_fc_s03_false_bottle_35_n02823428_4043.png
subject-03,1,575,0.712373018264771,keyboard,keyboard,false,0575_fc_s03_false_keyboard_35_n04505470_4873.png
subject-03,1,576,0.536494016647339,elephant,elephant,true,0576_fc_s03_true_elephant_35_n02504458_5412.png
subject-03,1,577,0.817974090576172,dog,dog,false,0577_fc_s03_false_dog_35_n02086646_8449.png
subject-03,1,578,0.989696979522705,boat,boat,false,0578_fc_s03_false_boat_35_n04273569_16295.png
subject-03,1,579,0.691617965698242,bicycle,bicycle,true,0579_fc_s03_true_bicycle_35_n03792782_12578.png
subject-03,1,580,0.893772125244141,car,car,false,0580_fc_s03_false_car_35_n03100240_15097.png
subject-03,1,581,0.59325909614563,bicycle,bicycle,false,0581_fc_s03_false_bicycle_35_n03792782_485.png
subject-03,1,582,0.488986015319824,cat,cat,false,0582_fc_s03_false_cat_35_n02123394_9541.png
subject-03,1,583,0.692644834518433,oven,oven,false,0583_fc_s03_false_oven_35_n04111531_11935.png
subject-03,1,584,0.638692140579224,boat,boat,false,0584_fc_s03_false_boat_35_n03662601_10330.png
subject-03,1,585,0.676293849945068,bear,bear,false,0585_fc_s03_false_bear_35_n02134418_195.png
subject-03,1,586,0.834410190582275,chair,chair,false,0586_fc_s03_false_chair_35_n02791124_177.png
subject-03,1,587,0.894078016281128,dog,dog,false,0587_fc_s03_false_dog_35_n02096585_9834.png
subject-03,1,588,0.697968006134033,boat,boat,false,0588_fc_s03_false_boat_35_n03344393_994.png
subject-03,1,589,0.658007860183716,bicycle,bicycle,true,0589_fc_s03_true_bicycle_35_n02835271_4446.png
subject-03,1,590,1.08538913726807,bird,bird,false,0590_fc_s03_false_bird_35_n02037110_6501.png
subject-03,1,591,0.55125617980957,cat,cat,false,0591_fc_s03_false_cat_35_n02123597_13140.png
subject-03,1,592,0.793122053146362,bear,dog,false,0592_fc_s03_false_dog_35_n02107574_3387.png
subject-03,1,593,1.02700304985046,knife,knife,false,0593_fc_s03_false_knife_35_n03041632_29038.png
subject-03,1,594,0.607187032699585,chair,chair,true,0594_fc_s03_true_chair_35_n02791124_1557.png
subject-03,1,595,0.738667011260986,car,car,true,0595_fc_s03_true_car_35_n02814533_55937.png
subject-03,1,596,0.712285041809082,airplane,airplane,false,0596_fc_s03_false_airplane_35_n02690373_997.png
subject-03,1,597,0.836144924163818,chair,chair,true,0597_fc_s03_true_chair_35_n04429376_22811.png
subject-03,1,598,0.922085046768188,dog,dog,true,0598_fc_s03_true_dog_35_n02107908_8344.png
subject-03,1,599,0.727786064147949,boat,boat,true,0599_fc_s03_true_boat_35_n03344393_1145.png
subject-03,1,600,0.625515937805176,bicycle,bicycle,true,0600_fc_s03_true_bicycle_35_n03792782_47426.png
subject-03,1,601,0.537487983703613,cat,cat,true,0601_fc_s03_true_cat_35_n02125311_17068.png
subject-03,1,602,0.523156881332397,clock,clock,false,0602_fc_s03_false_clock_35_n03196217_8785.png
subject-03,1,603,0.897247076034546,airplane,airplane,false,0603_fc_s03_false_airplane_35_n02690373_1837.png
subject-03,1,604,0.634984016418457,cat,cat,false,0604_fc_s03_false_cat_35_n02123159_8267.png
subject-03,1,605,0.610673904418945,bear,bear,true,0605_fc_s03_true_bear_35_n02134418_379.png
subject-03,1,606,0.892500877380371,truck,oven,true,0606_fc_s03_true_oven_35_n04111531_1674.png
subject-03,1,607,0.690222024917603,bird,bird,false,0607_fc_s03_false_bird_35_n01622779_11953.png
subject-03,1,608,1.2985520362854,cat,bird,true,0608_fc_s03_true_bird_35_n02013706_7132.png
subject-03,1,609,0.50591516494751,cat,cat,false,0609_fc_s03_false_cat_35_n02123045_9384.png
subject-03,1,610,0.617756843566895,bicycle,bicycle,true,0610_fc_s03_true_bicycle_35_n02835271_29653.png
subject-03,1,611,0.627642869949341,chair,chair,true,0611_fc_s03_true_chair_35_n04099969_9745.png
subject-03,1,612,0.673318147659302,oven,oven,true,0612_fc_s03_true_oven_35_n04111531_12929.png
subject-03,1,613,0.725170850753784,oven,oven,true,0613_fc_s03_true_oven_35_n04111531_6485.png
subject-03,1,614,0.991057872772217,oven,knife,true,0614_fc_s03_true_knife_35_n03041632_30565.png
subject-03,1,615,1.13711404800415,bird,bird,false,0615_fc_s03_false_bird_35_n01592084_5925.png
subject-03,1,616,0.954638957977295,chair,bear,true,0616_fc_s03_true_bear_35_n02133161_10632.png
subject-03,1,617,0.798414945602417,oven,oven,false,0617_fc_s03_false_oven_35_n04111531_14329.png
subject-03,1,618,0.70270299911499,dog,dog,true,0618_fc_s03_true_dog_35_n02108000_5247.png
subject-03,1,619,0.582457065582275,bicycle,bicycle,false,0619_fc_s03_false_bicycle_35_n03792782_51723.png
subject-03,1,620,0.657884836196899,bird,bird,true,0620_fc_s03_true_bird_35_n01622779_5441.png
subject-03,1,621,0.539627075195312,boat,boat,true,0621_fc_s03_true_boat_35_n04612504_14418.png
subject-03,1,622,0.989384889602661,bottle,bottle,true,0622_fc_s03_true_bottle_35_n04579145_1705.png
subject-03,1,623,0.805341005325317,elephant,elephant,true,0623_fc_s03_true_elephant_35_n02504458_3261.png
subject-03,1,624,0.624984979629517,bird,bird,true,0624_fc_s03_true_bird_35_n01798484_9155.png
subject-03,1,625,0.878921031951904,elephant,elephant,true,0625_fc_s03_true_elephant_35_n02504458_6435.png
subject-03,1,626,0.652734041213989,boat,boat,true,0626_fc_s03_true_boat_35_n04273569_928.png
subject-03,1,627,1.04444289207458,chair,bear,true,0627_fc_s03_true_bear_35_n02134418_2435.png
subject-03,1,628,0.666247844696045,keyboard,keyboard,false,0628_fc_s03_false_keyboard_35_n03085013_24439.png
subject-03,1,629,1.0562059879303,truck,truck,true,0629_fc_s03_true_truck_35_n03417042_9018.png
subject-03,1,630,0.539849042892456,bear,bear,false,0630_fc_s03_false_bear_35_n02134084_12070.png
subject-03,1,631,0.47573709487915,boat,boat,true,0631_fc_s03_true_boat_35_n04273569_30568.png
subject-03,1,632,0.633515119552612,car,car,false,0632_fc_s03_false_car_35_n02814533_2555.png
subject-03,1,633,0.609509944915771,bear,bear,false,0633_fc_s03_false_bear_35_n02134418_4364.png
subject-03,1,634,0.597024917602539,airplane,airplane,false,0634_fc_s03_false_airplane_35_n02690373_6856.png
subject-03,1,635,0.743046998977661,oven,oven,false,0635_fc_s03_false_oven_35_n04111531_16144.png
subject-03,1,636,0.706944942474365,car,car,true,0636_fc_s03_true_car_35_n02814533_34396.png
subject-03,1,637,0.606688022613525,airplane,airplane,false,0637_fc_s03_false_airplane_35_n02690373_5029.png
subject-03,1,638,0.82437801361084,truck,truck,true,0638_fc_s03_true_truck_35_n03796401_19058.png
subject-03,1,639,0.536381959915161,oven,oven,true,0639_fc_s03_true_oven_35_n04111531_21460.png
subject-03,1,640,0.587911128997803,chair,chair,true,0640_fc_s03_true_chair_35_n04099969_16456.png
subject-03,1,641,0.750169992446899,bear,bear,false,0641_fc_s03_false_bear_35_n02132136_7754.png
subject-03,1,642,0.535549163818359,cat,cat,true,0642_fc_s03_true_cat_35_n02125311_53315.png
subject-03,1,643,1.37142992019653,airplane,airplane,true,0643_fc_s03_true_airplane_35_n02690373_2068.png
subject-03,1,644,1.13510680198669,chair,chair,false,0644_fc_s03_false_chair_35_n02791124_2057.png
subject-03,1,645,1.34523701667786,clock,knife,false,0645_fc_s03_false_knife_35_n03041632_33198.png
subject-03,1,646,0.68871808052063,airplane,airplane,true,0646_fc_s03_true_airplane_35_n02690373_3383.png
subject-03,1,647,0.85865306854248,dog,dog,false,0647_fc_s03_false_dog_35_n02111277_25819.png
subject-03,1,648,0.818499088287354,dog,dog,false,0648_fc_s03_false_dog_35_n02086240_1183.png
subject-03,1,649,0.848565816879272,dog,dog,true,0649_fc_s03_true_dog_35_n02113624_2530.png
subject-03,1,650,0.748394012451172,knife,knife,false,0650_fc_s03_false_knife_35_n03041632_38535.png
subject-03,1,651,0.9498610496521,bottle,bottle,false,0651_fc_s03_false_bottle_35_n04560804_10411.png
subject-03,1,652,0.573528051376343,oven,oven,true,0652_fc_s03_true_oven_35_n04111531_3477.png
subject-03,1,653,0.771316051483154,dog,dog,false,0653_fc_s03_false_dog_35_n02102318_11997.png
subject-03,1,654,0.849323987960815,dog,dog,true,0654_fc_s03_true_dog_35_n02096437_1018.png
subject-03,1,655,0.709022998809814,boat,boat,false,0655_fc_s03_false_boat_35_n03344393_1595.png
subject-03,1,656,0.941225051879883,airplane,airplane,true,0656_fc_s03_true_airplane_35_n02690373_599.png
subject-03,1,657,1.03492498397827,airplane,airplane,true,0657_fc_s03_true_airplane_35_n02690373_4814.png
subject-03,1,658,1.19061803817749,bottle,bottle,false,0658_fc_s03_false_bottle_35_n02823428_10942.png
subject-03,1,659,0.688404083251953,bottle,chair,false,0659_fc_s03_false_chair_35_n04429376_36830.png
subject-03,1,660,0.586149930953979,clock,clock,true,0660_fc_s03_true_clock_35_n04548280_1055.png
subject-03,1,661,0.592335939407349,clock,clock,false,0661_fc_s03_false_clock_35_n02708093_2006.png
subject-03,1,662,0.606143951416016,bicycle,bicycle,false,0662_fc_s03_false_bicycle_35_n03792782_18665.png
subject-03,1,663,0.57963490486145,oven,oven,true,0663_fc_s03_true_oven_35_n04111531_4116.png
subject-03,1,664,0.547529935836792,bear,bear,false,0664_fc_s03_false_bear_35_n02133161_12894.png
subject-03,1,665,0.795383214950562,truck,truck,false,0665_fc_s03_false_truck_35_n03796401_19487.png
subject-03,1,666,0.543583869934082,boat,boat,true,0666_fc_s03_true_boat_35_n03662601_1926.png
subject-03,1,667,0.906870126724243,dog,dog,true,0667_fc_s03_true_dog_35_n02100583_19533.png
subject-03,1,668,0.61882495880127,cat,cat,true,0668_fc_s03_true_cat_35_n02123597_1410.png
subject-03,1,669,0.460330963134766,boat,boat,true,0669_fc_s03_true_boat_35_n04273569_4324.png
subject-03,1,670,0.88434100151062,truck,truck,true,0670_fc_s03_true_truck_35_n03796401_6596.png
subject-03,1,671,0.69018292427063,boat,airplane,true,0671_fc_s03_true_airplane_35_n02690373_7698.png
subject-03,1,672,0.75593113899231,car,truck,false,0672_fc_s03_false_truck_35_n03417042_768.png
subject-03,1,673,0.831618070602417,chair,chair,true,0673_fc_s03_true_chair_35_n04099969_6309.png
subject-03,1,674,0.725569009780884,bicycle,bicycle,false,0674_fc_s03_false_bicycle_35_n02835271_12701.png
subject-03,1,675,0.709310054779053,dog,dog,true,0675_fc_s03_true_dog_35_n02087046_4409.png
subject-03,1,676,0.757429838180542,knife,knife,false,0676_fc_s03_false_knife_35_n03041632_94470.png
subject-03,1,677,0.489104032516479,clock,clock,false,0677_fc_s03_false_clock_35_n02708093_6414.png
subject-03,1,678,0.754603147506714,truck,truck,true,0678_fc_s03_true_truck_35_n03796401_3695.png
subject-03,1,679,0.912481069564819,chair,chair,true,0679_fc_s03_true_chair_35_n04429376_20873.png
subject-03,1,680,1.23053097724915,chair,bottle,false,0680_fc_s03_false_bottle_35_n03983396_12027.png
subject-03,1,681,0.738336086273193,airplane,airplane,false,0681_fc_s03_false_airplane_35_n02690373_7573.png
subject-03,1,682,0.815958023071289,knife,knife,false,0682_fc_s03_false_knife_35_n03041632_23087.png
subject-03,1,683,0.783814907073975,car,car,false,0683_fc_s03_false_car_35_n02814533_4978.png
subject-03,1,684,0.619658946990967,keyboard,keyboard,true,0684_fc_s03_true_keyboard_35_n04505470_8620.png
subject-03,1,685,0.61145806312561,chair,chair,true,0685_fc_s03_true_chair_35_n02791124_5438.png
subject-03,1,686,0.805465936660767,bird,bird,true,0686_fc_s03_true_bird_35_n01560419_9124.png
subject-03,1,687,0.746975898742676,chair,chair,true,0687_fc_s03_true_chair_35_n03376595_4322.png
subject-03,1,688,0.630955934524536,bear,bear,true,0688_fc_s03_true_bear_35_n02134084_4490.png
subject-03,1,689,0.838608980178833,airplane,airplane,true,0689_fc_s03_true_airplane_35_n02690373_2431.png
subject-03,1,690,0.74665093421936,truck,truck,true,0690_fc_s03_true_truck_35_n03417042_27586.png
subject-03,1,691,0.618388175964355,keyboard,keyboard,true,0691_fc_s03_true_keyboard_35_n04505470_882.png
subject-03,1,692,1.3519880771637,chair,clock,true,0692_fc_s03_true_clock_35_n03196217_8221.png
subject-03,1,693,0.538429975509644,clock,clock,true,0693_fc_s03_true_clock_35_n02708093_7060.png
subject-03,1,694,0.693649053573608,car,car,true,0694_fc_s03_true_car_35_n04285008_5525.png
subject-03,1,695,0.744048118591309,truck,truck,false,0695_fc_s03_false_truck_35_n03417042_8690.png
subject-03,1,696,0.883270025253296,truck,truck,false,0696_fc_s03_false_truck_35_n03417042_2155.png
subject-03,1,697,0.765351057052612,oven,oven,false,0697_fc_s03_false_oven_35_n04111531_8309.png
subject-03,1,698,0.719132900238037,dog,dog,true,0698_fc_s03_true_dog_35_n02112018_9196.png
subject-03,1,699,0.734939098358154,truck,boat,true,0699_fc_s03_true_boat_35_n03344393_2919.png
subject-03,1,700,0.664957046508789,bear,bear,true,0700_fc_s03_true_bear_35_n02132136_8619.png
subject-03,1,701,0.70030689239502,boat,boat,false,0701_fc_s03_false_boat_35_n03662601_12323.png
subject-03,1,702,0.896297931671143,dog,knife,false,0702_fc_s03_false_knife_35_n03041632_104379.png
subject-03,1,703,0.626422882080078,car,car,true,0703_fc_s03_true_car_35_n02814533_46508.png
subject-03,1,704,0.752301931381226,bottle,bottle,true,0704_fc_s03_true_bottle_35_n04579145_6186.png
subject-03,1,705,0.897626876831055,knife,knife,true,0705_fc_s03_true_knife_35_n03041632_29337.png
subject-03,1,706,0.577940940856934,keyboard,keyboard,true,0706_fc_s03_true_keyboard_35_n04505470_10035.png
subject-03,1,707,1.05327606201172,car,car,false,0707_fc_s03_false_car_35_n02814533_52866.png
subject-03,1,708,0.645127058029175,bear,bear,true,0708_fc_s03_true_bear_35_n02132136_3090.png
subject-03,1,709,0.627218008041382,car,car,true,0709_fc_s03_true_car_35_n03100240_5865.png
subject-03,1,710,0.562681913375854,cat,cat,false,0710_fc_s03_false_cat_35_n02123045_15010.png
subject-03,1,711,0.5784010887146,bear,bear,false,0711_fc_s03_false_bear_35_n02134084_1655.png
subject-03,1,712,0.662396907806396,chair,chair,false,0712_fc_s03_false_chair_35_n03376595_4912.png
subject-03,1,713,0.660118103027344,keyboard,keyboard,true,0713_fc_s03_true_keyboard_35_n04505470_4682.png
subject-03,1,714,0.837961912155151,bear,bear,true,0714_fc_s03_true_bear_35_n02134418_6244.png
subject-03,1,715,0.95166802406311,bird,bird,false,0715_fc_s03_false_bird_35_n02007558_13217.png
subject-03,1,716,0.639492988586426,keyboard,keyboard,true,0716_fc_s03_true_keyboard_35_n03085013_18891.png
subject-03,1,717,0.759667873382568,bird,bird,false,0717_fc_s03_false_bird_35_n01796340_20055.png
subject-03,1,718,0.769226789474487,airplane,airplane,false,0718_fc_s03_false_airplane_35_n02690373_1912.png
subject-03,1,719,1.04887700080872,dog,dog,true,0719_fc_s03_true_dog_35_n02086646_6849.png
subject-03,1,720,0.710959911346436,car,car,true,0720_fc_s03_true_car_35_n04285008_15049.png
subject-03,1,721,0.865149021148682,chair,chair,true,0721_fc_s03_true_chair_35_n03376595_3654.png
subject-03,1,722,1.01303386688232,truck,truck,false,0722_fc_s03_false_truck_35_n04467665_3529.png
subject-03,1,723,0.839516162872314,bicycle,bicycle,false,0723_fc_s03_false_bicycle_35_n03792782_828.png
subject-03,1,724,0.562840938568115,clock,clock,true,0724_fc_s03_true_clock_35_n02708093_3360.png
subject-03,1,725,0.554455041885376,car,car,true,0725_fc_s03_true_car_35_n02814533_25278.png
subject-03,1,726,0.678453922271729,car,car,true,0726_fc_s03_true_car_35_n04285008_16701.png
subject-03,1,727,0.558317184448242,boat,boat,false,0727_fc_s03_false_boat_35_n04273569_2040.png
subject-03,1,728,0.845993041992188,dog,dog,true,0728_fc_s03_true_dog_35_n02108915_10239.png
subject-03,1,729,0.757769107818604,bird,bird,true,0729_fc_s03_true_bird_35_n01530575_2039.png
subject-03,1,730,0.789528846740723,truck,truck,false,0730_fc_s03_false_truck_35_n03417042_16238.png
subject-03,1,731,0.877453804016113,bear,bear,false,0731_fc_s03_false_bear_35_n02132136_451.png
subject-03,1,732,1.03720116615295,chair,chair,false,0732_fc_s03_false_chair_35_n02791124_885.png
subject-03,1,733,0.87129807472229,dog,dog,true,0733_fc_s03_true_dog_35_n02106662_10632.png
subject-03,1,734,1.1587860584259,chair,keyboard,true,0734_fc_s03_true_keyboard_35_n03085013_24154.png
subject-03,1,735,0.69658088684082,oven,oven,false,0735_fc_s03_false_oven_35_n04111531_16583.png
subject-03,1,736,0.702430963516235,bicycle,bicycle,true,0736_fc_s03_true_bicycle_35_n03792782_17545.png
subject-03,1,737,0.520220994949341,car,car,true,0737_fc_s03_true_car_35_n02814533_26516.png
subject-03,1,738,0.718186140060425,knife,knife,true,0738_fc_s03_true_knife_35_n03041632_48149.png
subject-03,1,739,0.965917110443115,car,boat,false,0739_fc_s03_false_boat_35_n02951358_12867.png
subject-03,1,740,0.611724853515625,cat,cat,false,0740_fc_s03_false_cat_35_n02125311_31100.png
subject-03,1,741,0.687442064285278,cat,cat,false,0741_fc_s03_false_cat_35_n02123159_2757.png
subject-03,1,742,0.677376985549927,bottle,bottle,false,0742_fc_s03_false_bottle_35_n02823428_14149.png
subject-03,1,743,1.02095699310303,chair,truck,false,0743_fc_s03_false_truck_35_n03417042_12908.png
subject-03,1,744,0.910845994949341,bird,bird,false,0744_fc_s03_false_bird_35_n01855672_2187.png
subject-03,1,745,0.564800977706909,bird,bird,true,0745_fc_s03_true_bird_35_n02027492_4976.png
subject-03,1,746,0.796452045440674,car,car,false,0746_fc_s03_false_car_35_n03100240_9412.png
subject-03,1,747,0.718377828598022,truck,truck,true,0747_fc_s03_true_truck_35_n03417042_1561.png
subject-03,1,748,0.912256956100464,dog,dog,false,0748_fc_s03_false_dog_35_n02106662_56099.png
subject-03,1,749,0.635928869247437,bird,bird,true,0749_fc_s03_true_bird_35_n01558993_38999.png
subject-03,1,750,0.791760921478271,knife,knife,true,0750_fc_s03_true_knife_35_n03041632_18748.png
subject-03,1,751,1.41350388526917,bird,cat,false,0751_fc_s03_false_cat_35_n02123597_13994.png
subject-03,1,752,0.653657913208008,car,car,true,0752_fc_s03_true_car_35_n04285008_9388.png
subject-03,1,753,0.86515212059021,chair,chair,true,0753_fc_s03_true_chair_35_n04429376_2693.png
subject-03,1,754,0.823575973510742,oven,dog,false,0754_fc_s03_false_dog_35_n02088238_9947.png
subject-03,1,755,0.966769933700562,chair,chair,false,0755_fc_s03_false_chair_35_n02791124_139.png
subject-03,1,756,0.746567010879517,bear,bear,false,0756_fc_s03_false_bear_35_n02133161_5067.png
subject-03,1,757,0.662419080734253,bottle,bottle,false,0757_fc_s03_false_bottle_35_n04560804_10.png
subject-03,1,758,0.842245101928711,oven,knife,false,0758_fc_s03_false_knife_35_n03041632_11326.png
subject-03,1,759,0.533994913101196,cat,keyboard,true,0759_fc_s03_true_keyboard_35_n03085013_22187.png
subject-03,1,760,0.7120041847229,truck,truck,true,0760_fc_s03_true_truck_35_n04467665_54079.png
subject-03,1,761,0.709873914718628,bicycle,bicycle,true,0761_fc_s03_true_bicycle_35_n02835271_19552.png
subject-03,1,762,1.03160190582275,truck,truck,true,0762_fc_s03_true_truck_35_n03796401_3386.png
subject-03,1,763,0.545475006103516,cat,cat,true,0763_fc_s03_true_cat_35_n02123159_2339.png
subject-03,1,764,0.611027002334595,bicycle,bicycle,true,0764_fc_s03_true_bicycle_35_n03792782_2057.png
subject-03,1,765,0.641151905059814,boat,boat,false,0765_fc_s03_false_boat_35_n03662601_6916.png
subject-03,1,766,0.874856948852539,boat,boat,false,0766_fc_s03_false_boat_35_n03344393_5198.png
subject-03,1,767,0.880537986755371,bear,bear,true,0767_fc_s03_true_bear_35_n02133161_13278.png
subject-03,1,768,0.682524919509888,keyboard,keyboard,false,0768_fc_s03_false_keyboard_35_n03085013_20727.png
subject-03,1,769,0.604312181472778,airplane,airplane,true,0769_fc_s03_true_airplane_35_n02690373_8350.png
subject-03,1,770,0.890015125274658,car,car,false,0770_fc_s03_false_car_35_n03100240_10791.png
subject-03,1,771,0.879999876022339,elephant,elephant,true,0771_fc_s03_true_elephant_35_n02504458_6721.png
subject-03,1,772,0.947779893875122,bird,bird,false,0772_fc_s03_false_bird_35_n01592084_4087.png
subject-03,1,773,1.04941987991333,clock,clock,false,0773_fc_s03_false_clock_35_n04548280_7872.png
subject-03,1,774,1.11722707748413,knife,bottle,false,0774_fc_s03_false_bottle_35_n04560804_6576.png
subject-03,1,775,1.1553590297699,chair,keyboard,true,0775_fc_s03_true_keyboard_35_n03085013_8339.png
subject-03,1,776,0.569411039352417,boat,boat,false,0776_fc_s03_false_boat_35_n02951358_5118.png
subject-03,1,777,0.68110203742981,car,car,true,0777_fc_s03_true_car_35_n04285008_8581.png
subject-03,1,778,0.772556066513062,bicycle,bicycle,false,0778_fc_s03_false_bicycle_35_n02835271_6554.png
subject-03,1,779,0.778560876846313,elephant,elephant,true,0779_fc_s03_true_elephant_35_n02504013_6431.png
subject-03,1,780,0.608181953430176,truck,truck,false,0780_fc_s03_false_truck_35_n04467665_56815.png
subject-03,1,781,0.866028070449829,elephant,elephant,false,0781_fc_s03_false_elephant_35_n02504013_637.png
subject-03,1,782,0.645655870437622,bicycle,bicycle,false,0782_fc_s03_false_bicycle_35_n03792782_70169.png
subject-03,1,783,0.853604078292847,oven,oven,true,0783_fc_s03_true_oven_35_n04111531_22120.png
subject-03,1,784,0.58732008934021,knife,knife,false,0784_fc_s03_false_knife_35_n03041632_39952.png
subject-03,1,785,0.829016208648682,dog,dog,false,0785_fc_s03_false_dog_35_n02087394_9938.png
subject-03,1,786,1.17902398109436,airplane,airplane,false,0786_fc_s03_false_airplane_35_n02690373_2203.png
subject-03,1,787,1.29300403594971,chair,chair,true,0787_fc_s03_true_chair_35_n04429376_17646.png
subject-03,1,788,0.978643178939819,keyboard,keyboard,false,0788_fc_s03_false_keyboard_35_n04505470_912.png
subject-03,1,789,0.670485973358154,oven,oven,true,0789_fc_s03_true_oven_35_n04111531_6415.png
subject-03,1,790,0.590354919433594,knife,knife,true,0790_fc_s03_true_knife_35_n03041632_965.png
subject-03,1,791,0.966169118881226,car,car,true,0791_fc_s03_true_car_35_n03100240_9497.png
subject-03,1,792,0.580043077468872,cat,cat,true,0792_fc_s03_true_cat_35_n02123394_1122.png
subject-03,1,793,0.767697095870972,chair,chair,false,0793_fc_s03_false_chair_35_n03376595_1943.png
subject-03,1,794,0.561761140823364,oven,oven,true,0794_fc_s03_true_oven_35_n04111531_7449.png
subject-03,1,795,0.699376821517944,airplane,airplane,true,0795_fc_s03_true_airplane_35_n02690373_2823.png
subject-03,1,796,0.885281801223755,keyboard,keyboard,false,0796_fc_s03_false_keyboard_35_n03085013_23287.png
subject-03,1,797,1.26532196998596,airplane,airplane,true,0797_fc_s03_true_airplane_35_n02690373_5130.png
subject-03,1,798,0.578735828399658,cat,cat,true,0798_fc_s03_true_cat_35_n02123159_3092.png
subject-03,1,799,0.598580121994019,bicycle,bicycle,false,0799_fc_s03_false_bicycle_35_n03792782_8333.png
subject-03,1,800,0.582422018051147,car,car,false,0800_fc_s03_false_car_35_n03100240_6248.png
subject-03,1,801,0.669785022735596,chair,chair,true,0801_fc_s03_true_chair_35_n04429376_29312.png
subject-03,1,802,0.575474977493286,oven,oven,true,0802_fc_s03_true_oven_35_n04111531_12820.png
subject-03,1,803,1.19916391372681,chair,clock,false,0803_fc_s03_false_clock_35_n03196217_958.png
subject-03,1,804,1.50006890296936,elephant,elephant,true,0804_fc_s03_true_elephant_35_n02504458_174.png
subject-03,1,805,0.49324893951416,boat,boat,false,0805_fc_s03_false_boat_35_n03344393_4012.png
subject-03,1,806,1.0147659778595,truck,truck,false,0806_fc_s03_false_truck_35_n04467665_46470.png
subject-03,1,807,0.730598926544189,truck,truck,true,0807_fc_s03_true_truck_35_n04467665_62080.png
subject-03,1,808,1.16629219055176,oven,oven,false,0808_fc_s03_false_oven_35_n04111531_6500.png
subject-03,1,809,1.07802796363831,cat,cat,true,0809_fc_s03_true_cat_35_n02123159_6184.png
subject-03,1,810,0.730102062225342,elephant,elephant,false,0810_fc_s03_false_elephant_35_n02504013_3771.png
subject-03,1,811,0.68370795249939,elephant,elephant,false,0811_fc_s03_false_elephant_35_n02504458_3881.png
subject-03,1,812,1.12147808074951,clock,chair,false,0812_fc_s03_false_chair_35_n04429376_10453.png
subject-03,1,813,1.26130199432373,boat,boat,false,0813_fc_s03_false_boat_35_n02951358_29495.png
subject-03,1,814,1.45499300956726,bottle,knife,false,0814_fc_s03_false_knife_35_n03041632_99875.png
subject-03,1,815,0.562870025634766,cat,cat,false,0815_fc_s03_false_cat_35_n02123597_9663.png
subject-03,1,816,1.20075488090515,bird,bird,true,0816_fc_s03_true_bird_35_n01614925_1962.png
subject-03,1,817,1.04860591888428,truck,truck,true,0817_fc_s03_true_truck_35_n03417042_29353.png
subject-03,1,818,0.554285049438477,cat,keyboard,true,0818_fc_s03_true_keyboard_35_n03085013_26449.png
subject-03,1,819,0.988009929656982,boat,boat,true,0819_fc_s03_true_boat_35_n04273569_26182.png
subject-03,1,820,0.824027061462402,truck,truck,false,0820_fc_s03_false_truck_35_n03796401_6727.png
subject-03,1,821,0.83176589012146,bird,bird,false,0821_fc_s03_false_bird_35_n02037110_21381.png
subject-03,1,822,0.635550022125244,bicycle,bicycle,false,0822_fc_s03_false_bicycle_35_n02835271_927.png
subject-03,1,823,0.947594881057739,airplane,airplane,false,0823_fc_s03_false_airplane_35_n02690373_6524.png
subject-03,1,824,0.685220003128052,clock,clock,false,0824_fc_s03_false_clock_35_n02708093_8104.png
subject-03,1,825,0.817222833633423,boat,bear,false,0825_fc_s03_false_bear_35_n02134084_6783.png
subject-03,1,826,0.564703941345215,car,car,false,0826_fc_s03_false_car_35_n03100240_6311.png
subject-03,1,827,0.934635162353516,boat,boat,true,0827_fc_s03_true_boat_35_n02951358_20379.png
subject-03,1,828,0.722921133041382,elephant,elephant,false,0828_fc_s03_false_elephant_35_n02504458_8060.png
subject-03,1,829,0.766310930252075,bird,bird,true,0829_fc_s03_true_bird_35_n01795545_14857.png
subject-03,1,830,0.648277997970581,boat,boat,false,0830_fc_s03_false_boat_35_n03344393_5501.png
subject-03,1,831,0.895961999893188,dog,dog,true,0831_fc_s03_true_dog_35_n02094258_1036.png
subject-03,1,832,0.761790037155151,bird,bird,false,0832_fc_s03_false_bird_35_n01833805_4819.png
subject-03,1,833,0.91746997833252,boat,boat,true,0833_fc_s03_true_boat_35_n03344393_4496.png
subject-03,1,834,1.06380581855774,dog,dog,true,0834_fc_s03_true_dog_35_n02088094_9498.png
subject-03,1,835,0.935273170471191,dog,elephant,true,0835_fc_s03_true_elephant_35_n02504013_6466.png
subject-03,1,836,0.739282131195068,dog,dog,false,0836_fc_s03_false_dog_35_n02097209_3172.png
subject-03,1,837,0.62885594367981,car,car,true,0837_fc_s03_true_car_35_n03100240_9171.png
subject-03,1,838,0.734776973724365,boat,boat,true,0838_fc_s03_true_boat_35_n04273569_2698.png
subject-03,1,839,0.906440019607544,bird,bird,true,0839_fc_s03_true_bird_35_n02025239_4966.png
subject-03,1,840,0.624266147613525,oven,oven,false,0840_fc_s03_false_oven_35_n04111531_550.png
subject-03,1,841,0.65394115447998,bottle,bottle,true,0841_fc_s03_true_bottle_35_n03983396_6116.png
subject-03,1,842,0.759979009628296,airplane,airplane,false,0842_fc_s03_false_airplane_35_n02690373_5624.png
subject-03,1,843,0.727568864822388,knife,knife,true,0843_fc_s03_true_knife_35_n03041632_84869.png
subject-03,1,844,0.88749098777771,truck,truck,true,0844_fc_s03_true_truck_35_n04467665_2246.png
subject-03,1,845,0.767369031906128,bicycle,bicycle,false,0845_fc_s03_false_bicycle_35_n03792782_50569.png
subject-03,1,846,0.835065841674805,cat,cat,false,0846_fc_s03_false_cat_35_n02123597_3575.png
subject-03,1,847,0.772797107696533,bicycle,bicycle,false,0847_fc_s03_false_bicycle_35_n02835271_608.png
subject-03,1,848,0.630810976028442,keyboard,keyboard,true,0848_fc_s03_true_keyboard_35_n04505470_3234.png
subject-03,1,849,0.68467903137207,clock,clock,false,0849_fc_s03_false_clock_35_n02708093_2744.png
subject-03,1,850,1.42640995979309,truck,truck,false,0850_fc_s03_false_truck_35_n03796401_124.png
subject-03,1,851,0.692296981811523,car,car,false,0851_fc_s03_false_car_35_n02814533_1344.png
subject-03,1,852,0.572049140930176,bottle,bottle,false,0852_fc_s03_false_bottle_35_n02823428_3402.png
subject-03,1,853,1.25766587257385,clock,bottle,true,0853_fc_s03_true_bottle_35_n03937543_8063.png
subject-03,1,854,0.899703979492188,oven,knife,true,0854_fc_s03_true_knife_35_n03041632_36390.png
subject-03,1,855,0.991275072097778,elephant,elephant,false,0855_fc_s03_false_elephant_35_n02504458_6738.png
subject-03,1,856,0.707229137420654,bicycle,bicycle,true,0856_fc_s03_true_bicycle_35_n02835271_12871.png
subject-03,1,857,0.821125030517578,chair,chair,false,0857_fc_s03_false_chair_35_n03376595_9136.png
subject-03,1,858,0.71074390411377,bottle,bottle,false,0858_fc_s03_false_bottle_35_n04591713_4035.png
subject-03,1,859,1.50007891654968,clock,clock,true,0859_fc_s03_true_clock_35_n03196217_3351.png
subject-03,1,860,0.668832063674927,car,car,false,0860_fc_s03_false_car_35_n03100240_18646.png
subject-03,1,861,0.876335144042969,knife,knife,false,0861_fc_s03_false_knife_35_n03041632_37949.png
subject-03,1,862,0.712089061737061,bottle,bottle,false,0862_fc_s03_false_bottle_35_n04591713_6851.png
subject-03,1,863,1.22589707374573,truck,truck,true,0863_fc_s03_true_truck_35_n03417042_22828.png
subject-03,1,864,0.497691869735718,oven,oven,true,0864_fc_s03_true_oven_35_n04111531_9762.png
subject-03,1,865,0.745512008666992,dog,dog,true,0865_fc_s03_true_dog_35_n02102040_1187.png
subject-03,1,866,0.659626007080078,elephant,elephant,true,0866_fc_s03_true_elephant_35_n02504458_3099.png
subject-03,1,867,0.767115831375122,oven,oven,true,0867_fc_s03_true_oven_35_n04111531_10093.png
subject-03,1,868,0.626837968826294,cat,cat,false,0868_fc_s03_false_cat_35_n02123045_12060.png
subject-03,1,869,0.702816009521484,elephant,elephant,false,0869_fc_s03_false_elephant_35_n02504458_4849.png
subject-03,1,870,0.718821048736572,airplane,airplane,true,0870_fc_s03_true_airplane_35_n02690373_1615.png
subject-03,1,871,0.726534128189087,bicycle,bicycle,true,0871_fc_s03_true_bicycle_35_n03792782_51156.png
subject-03,1,872,1.42240405082703,bottle,keyboard,false,0872_fc_s03_false_keyboard_35_n03085013_21266.png
subject-03,1,873,1.35605502128601,truck,truck,true,0873_fc_s03_true_truck_35_n03796401_3148.png
subject-03,1,874,0.90186595916748,airplane,airplane,true,0874_fc_s03_true_airplane_35_n02690373_18864.png
subject-03,1,875,0.713876962661743,knife,knife,true,0875_fc_s03_true_knife_35_n03041632_45569.png
subject-03,1,876,0.563273906707764,cat,cat,true,0876_fc_s03_true_cat_35_n02123597_4591.png
subject-03,1,877,0.669232845306396,bear,bear,true,0877_fc_s03_true_bear_35_n02132136_10301.png
subject-03,1,878,0.570930957794189,bicycle,bicycle,false,0878_fc_s03_false_bicycle_35_n03792782_4382.png
subject-03,1,879,0.800760984420776,chair,knife,true,0879_fc_s03_true_knife_35_n03041632_1143.png
subject-03,1,880,0.657135963439941,knife,knife,false,0880_fc_s03_false_knife_35_n03041632_15754.png
subject-03,1,881,0.5849769115448,clock,clock,true,0881_fc_s03_true_clock_35_n04548280_9828.png
subject-03,1,882,1.12860703468323,boat,boat,true,0882_fc_s03_true_boat_35_n02951358_31198.png
subject-03,1,883,0.470334053039551,boat,boat,false,0883_fc_s03_false_boat_35_n02951358_461.png
subject-03,1,884,0.680195093154907,car,car,false,0884_fc_s03_false_car_35_n03100240_7454.png
subject-03,1,885,1.04401898384094,bird,bird,false,0885_fc_s03_false_bird_35_n01843383_12917.png
subject-03,1,886,0.927783966064453,dog,dog,false,0886_fc_s03_false_dog_35_n02090721_129.png
subject-03,1,887,0.727608919143677,elephant,elephant,true,0887_fc_s03_true_elephant_35_n02504458_4939.png
subject-03,1,888,0.779325008392334,dog,dog,false,0888_fc_s03_false_dog_35_n02107683_2904.png
subject-03,1,889,0.725352048873901,clock,clock,false,0889_fc_s03_false_clock_35_n03196217_2639.png
subject-03,1,890,0.905013799667358,knife,knife,true,0890_fc_s03_true_knife_35_n03041632_31849.png
subject-03,1,891,1.17291307449341,dog,dog,true,0891_fc_s03_true_dog_35_n02107312_197.png
subject-03,1,892,0.64674711227417,airplane,airplane,true,0892_fc_s03_true_airplane_35_n02690373_4175.png
subject-03,1,893,1.11444783210754,knife,knife,false,0893_fc_s03_false_knife_35_n03041632_5640.png
subject-03,1,894,0.96634316444397,bicycle,bicycle,true,0894_fc_s03_true_bicycle_35_n03792782_5959.png
subject-03,1,895,0.982340097427368,car,car,false,0895_fc_s03_false_car_35_n04285008_14689.png
subject-03,1,896,0.596007108688354,car,car,true,0896_fc_s03_true_car_35_n04285008_12754.png
subject-03,1,897,0.867901802062988,dog,dog,true,0897_fc_s03_true_dog_35_n02105056_11269.png
subject-03,1,898,0.801447153091431,dog,dog,false,0898_fc_s03_false_dog_35_n02097209_1133.png
subject-03,1,899,0.729361057281494,chair,chair,false,0899_fc_s03_false_chair_35_n02791124_17045.png
subject-03,1,900,0.743317127227783,bear,bear,true,0900_fc_s03_true_bear_35_n02134084_4477.png
subject-03,1,901,1.28910899162292,bird,bird,false,0901_fc_s03_false_bird_35_n01558993_869.png
subject-03,1,902,0.746803045272827,elephant,elephant,true,0902_fc_s03_true_elephant_35_n02504013_9809.png
subject-03,1,903,0.654819011688232,dog,dog,true,0903_fc_s03_true_dog_35_n02109047_4167.png
subject-03,1,904,0.578562021255493,chair,chair,true,0904_fc_s03_true_chair_35_n02791124_606.png
subject-03,1,905,0.992244005203247,car,car,false,0905_fc_s03_false_car_35_n03100240_7120.png
subject-03,1,906,0.903916120529175,truck,truck,false,0906_fc_s03_false_truck_35_n03796401_6503.png
subject-03,1,907,0.815896034240723,boat,boat,false,0907_fc_s03_false_boat_35_n03662601_4612.png
subject-03,1,908,0.845798015594482,elephant,elephant,true,0908_fc_s03_true_elephant_35_n02504458_7660.png
subject-03,1,909,0.635340929031372,knife,knife,false,0909_fc_s03_false_knife_35_n03041632_38610.png
subject-03,1,910,1.27715492248535,chair,chair,false,0910_fc_s03_false_chair_35_n02791124_11404.png
subject-03,1,911,0.595134019851685,chair,chair,true,0911_fc_s03_true_chair_35_n04429376_7181.png
subject-03,1,912,0.794832944869995,elephant,elephant,false,0912_fc_s03_false_elephant_35_n02504458_477.png
subject-03,1,913,1.15274405479431,dog,bottle,true,0913_fc_s03_true_bottle_35_n03983396_5055.png
subject-03,1,914,1.0084981918335,airplane,airplane,false,0914_fc_s03_false_airplane_35_n02690373_6807.png
subject-03,1,915,0.736323833465576,bottle,bottle,false,0915_fc_s03_false_bottle_35_n03937543_10543.png
subject-03,1,916,0.642292976379395,boat,boat,true,0916_fc_s03_true_boat_35_n02951358_31514.png
subject-03,1,917,0.728157997131348,knife,knife,true,0917_fc_s03_true_knife_35_n03041632_20517.png
subject-03,1,918,1.25978994369507,truck,truck,false,0918_fc_s03_false_truck_35_n03417042_3066.png
subject-03,1,919,0.665945053100586,elephant,elephant,false,0919_fc_s03_false_elephant_35_n02504458_11693.png
subject-03,1,920,1.13336801528931,chair,chair,true,0920_fc_s03_true_chair_35_n03376595_10153.png
subject-03,1,921,1.02922105789185,knife,knife,true,0921_fc_s03_true_knife_35_n03041632_15431.png
subject-03,1,922,0.638980865478516,boat,boat,false,0922_fc_s03_false_boat_35_n03344393_595.png
subject-03,1,923,1.26475715637207,bird,bird,false,0923_fc_s03_false_bird_35_n02009912_5983.png
subject-03,1,924,0.708716154098511,bird,bird,false,0924_fc_s03_false_bird_35_n01828970_2276.png
subject-03,1,925,0.90838098526001,chair,cat,false,0925_fc_s03_false_cat_35_n02123597_3314.png
subject-03,1,926,0.740226030349731,cat,cat,false,0926_fc_s03_false_cat_35_n02124075_7880.png
subject-03,1,927,0.740156888961792,knife,knife,false,0927_fc_s03_false_knife_35_n03041632_11285.png
subject-03,1,928,0.693942070007324,keyboard,keyboard,false,0928_fc_s03_false_keyboard_35_n04505470_7388.png
subject-03,1,929,0.843775033950806,airplane,airplane,true,0929_fc_s03_true_airplane_35_n02690373_2619.png
subject-03,1,930,0.543626070022583,cat,cat,true,0930_fc_s03_true_cat_35_n02124075_2806.png
subject-03,1,931,0.537285089492798,oven,oven,true,0931_fc_s03_true_oven_35_n04111531_20099.png
subject-03,1,932,0.776935815811157,truck,truck,false,0932_fc_s03_false_truck_35_n03417042_10654.png
subject-03,1,933,0.627027988433838,boat,boat,true,0933_fc_s03_true_boat_35_n03344393_6799.png
subject-03,1,934,0.548800945281982,bear,bear,true,0934_fc_s03_true_bear_35_n02134084_14754.png
subject-03,1,935,1.11864495277405,knife,knife,true,0935_fc_s03_true_knife_35_n03041632_11613.png
subject-03,1,936,0.47645902633667,cat,cat,true,0936_fc_s03_true_cat_35_n02123394_6521.png
subject-03,1,937,0.974242925643921,cat,dog,false,0937_fc_s03_false_dog_35_n02094258_5084.png
subject-03,1,938,0.62006402015686,keyboard,keyboard,true,0938_fc_s03_true_keyboard_35_n03085013_19916.png
subject-03,1,939,1.46393895149231,elephant,elephant,false,0939_fc_s03_false_elephant_35_n02504013_237.png
subject-03,1,940,0.733716011047363,airplane,airplane,true,0940_fc_s03_true_airplane_35_n02690373_9762.png
subject-03,1,941,1.50014305114746,oven,oven,false,0941_fc_s03_false_oven_35_n04111531_4452.png
subject-03,1,942,0.79937219619751,dog,dog,true,0942_fc_s03_true_dog_35_n02091831_7969.png
subject-03,1,943,1.34523415565491,boat,clock,false,0943_fc_s03_false_clock_35_n02708093_6813.png
subject-03,1,944,0.973142147064209,oven,oven,false,0944_fc_s03_false_oven_35_n04111531_11230.png
subject-03,1,945,0.978739976882935,oven,oven,false,0945_fc_s03_false_oven_35_n04111531_5473.png
subject-03,1,946,0.642937898635864,boat,boat,true,0946_fc_s03_true_boat_35_n04273569_709.png
subject-03,1,947,0.412500143051147,clock,clock,true,0947_fc_s03_true_clock_35_n04548280_5428.png
subject-03,1,948,1.34418892860413,oven,oven,true,0948_fc_s03_true_oven_35_n04111531_10724.png
subject-03,1,949,0.672245025634766,bicycle,bicycle,false,0949_fc_s03_false_bicycle_35_n02835271_13404.png
subject-03,1,950,0.497697114944458,oven,oven,true,0950_fc_s03_true_oven_35_n04111531_8681.png
subject-03,1,951,0.67551589012146,oven,knife,true,0951_fc_s03_true_knife_35_n03041632_22190.png
subject-03,1,952,0.681486129760742,keyboard,keyboard,true,0952_fc_s03_true_keyboard_35_n04505470_489.png
subject-03,1,953,1.00339698791504,bicycle,bicycle,true,0953_fc_s03_true_bicycle_35_n03792782_1989.png
subject-03,1,954,0.64296293258667,oven,oven,true,0954_fc_s03_true_oven_35_n04111531_7064.png
subject-03,1,955,0.812744855880737,chair,chair,false,0955_fc_s03_false_chair_35_n04429376_19617.png
subject-03,1,956,0.656654834747314,car,car,true,0956_fc_s03_true_car_35_n03100240_3151.png
subject-03,1,957,1.07679605484009,bird,bird,false,0957_fc_s03_false_bird_35_n01843065_2350.png
subject-03,1,958,0.708146095275879,elephant,elephant,false,0958_fc_s03_false_elephant_35_n02504458_9049.png
subject-03,1,959,0.704024076461792,elephant,elephant,false,0959_fc_s03_false_elephant_35_n02504013_5774.png
subject-03,1,960,0.60991907119751,clock,clock,true,0960_fc_s03_true_clock_35_n03196217_11252.png
subject-03,1,961,0.544687032699585,airplane,airplane,false,0961_fc_s03_false_airplane_35_n02690373_1442.png
subject-03,1,962,0.756608009338379,dog,dog,false,0962_fc_s03_false_dog_35_n02113023_863.png
subject-03,1,963,1.19832992553711,chair,chair,false,0963_fc_s03_false_chair_35_n04099969_16350.png
subject-03,1,964,0.76045298576355,airplane,airplane,true,0964_fc_s03_true_airplane_35_n02690373_2447.png
subject-03,1,965,0.764188051223755,truck,truck,true,0965_fc_s03_true_truck_35_n03796401_16337.png
subject-03,1,966,0.637701988220215,airplane,airplane,true,0966_fc_s03_true_airplane_35_n02690373_4706.png
subject-03,1,967,0.705710172653198,cat,keyboard,false,0967_fc_s03_false_keyboard_35_n03085013_24124.png
subject-03,1,968,0.831386089324951,bear,elephant,true,0968_fc_s03_true_elephant_35_n02504458_5144.png
subject-03,1,969,0.783354997634888,elephant,elephant,true,0969_fc_s03_true_elephant_35_n02504458_3197.png
subject-03,1,970,0.732851982116699,bottle,bottle,false,0970_fc_s03_false_bottle_35_n03983396_22979.png
subject-03,1,971,0.553342819213867,chair,chair,true,0971_fc_s03_true_chair_35_n03376595_10986.png
subject-03,1,972,0.592791080474854,bear,bear,false,0972_fc_s03_false_bear_35_n02134418_5253.png
subject-03,1,973,0.636348009109497,boat,boat,false,0973_fc_s03_false_boat_35_n02951358_3067.png
subject-03,1,974,0.978249073028564,boat,boat,false,0974_fc_s03_false_boat_35_n02951358_8503.png
subject-03,1,975,0.704257011413574,keyboard,keyboard,false,0975_fc_s03_false_keyboard_35_n03085013_22980.png
subject-03,1,976,0.811968803405762,knife,knife,true,0976_fc_s03_true_knife_35_n03041632_17067.png
subject-03,1,977,0.779619216918945,elephant,elephant,true,0977_fc_s03_true_elephant_35_n02504458_12175.png
subject-03,1,978,0.803689002990723,truck,truck,false,0978_fc_s03_false_truck_35_n03796401_26801.png
subject-03,1,979,0.587228059768677,bicycle,bicycle,true,0979_fc_s03_true_bicycle_35_n03792782_6614.png
subject-03,1,980,0.627295017242432,oven,oven,false,0980_fc_s03_false_oven_35_n04111531_5126.png
subject-03,1,981,1.35881614685059,chair,chair,true,0981_fc_s03_true_chair_35_n03376595_4354.png
subject-03,1,982,0.698647975921631,boat,boat,true,0982_fc_s03_true_boat_35_n03344393_7773.png
subject-03,1,983,0.658530950546265,bicycle,bicycle,true,0983_fc_s03_true_bicycle_35_n03792782_16961.png
subject-03,1,984,1.28431391716003,knife,knife,false,0984_fc_s03_false_knife_35_n03041632_16932.png
subject-03,1,985,0.640243053436279,clock,clock,true,0985_fc_s03_true_clock_35_n02708093_3355.png
subject-03,1,986,0.750046014785767,airplane,airplane,false,0986_fc_s03_false_airplane_35_n02690373_3362.png
subject-03,1,987,1.36370801925659,chair,oven,true,0987_fc_s03_true_oven_35_n04111531_594.png
subject-03,1,988,1.01975107192993,dog,dog,false,0988_fc_s03_false_dog_35_n02110806_3673.png
subject-03,1,989,0.657793045043945,airplane,airplane,false,0989_fc_s03_false_airplane_35_n02690373_6363.png
subject-03,1,990,1.26707291603088,chair,chair,true,0990_fc_s03_true_chair_35_n04099969_25327.png
subject-03,1,991,0.750900983810425,elephant,elephant,false,0991_fc_s03_false_elephant_35_n02504013_2228.png
subject-03,1,992,0.85702919960022,chair,chair,true,0992_fc_s03_true_chair_35_n04099969_38402.png
subject-03,1,993,1.19870805740356,dog,dog,false,0993_fc_s03_false_dog_35_n02085782_6241.png
subject-03,1,994,1.05651211738586,bird,bird,false,0994_fc_s03_false_bird_35_n02007558_22160.png
subject-03,1,995,0.734411001205444,airplane,airplane,false,0995_fc_s03_false_airplane_35_n02690373_12756.png
subject-03,1,996,0.866495132446289,bird,bird,false,0996_fc_s03_false_bird_35_n01560419_14207.png
subject-03,1,997,0.715903997421265,bottle,bottle,false,0997_fc_s03_false_bottle_35_n03937543_211.png
subject-03,1,998,0.533624172210693,clock,clock,true,0998_fc_s03_true_clock_35_n02708093_275.png
subject-03,1,999,0.435671091079712,clock,clock,true,0999_fc_s03_true_clock_35_n03196217_7888.png
subject-03,1,1000,0.489472150802612,oven,oven,true,1000_fc_s03_true_oven_35_n04111531_8553.png
subject-03,1,1001,0.585243940353394,chair,chair,true,1001_fc_s03_true_chair_35_n03376595_606.png
subject-03,1,1002,1.18910717964172,elephant,bird,false,1002_fc_s03_false_bird_35_n01614925_19918.png
subject-03,1,1003,1.5001060962677,truck,boat,false,1003_fc_s03_false_boat_35_n03662601_24852.png
subject-03,1,1004,0.622623920440674,truck,truck,false,1004_fc_s03_false_truck_35_n04467665_2044.png
subject-03,1,1005,0.632321834564209,airplane,airplane,true,1005_fc_s03_true_airplane_35_n02690373_9531.png
subject-03,1,1006,0.732342958450317,keyboard,keyboard,true,1006_fc_s03_true_keyboard_35_n03085013_21769.png
subject-03,1,1007,0.658150911331177,bird,bird,true,1007_fc_s03_true_bird_35_n01592084_3972.png
subject-03,1,1008,1.42224907875061,airplane,airplane,true,1008_fc_s03_true_airplane_35_n02690373_8454.png
subject-03,1,1009,1.05971789360046,dog,dog,false,1009_fc_s03_false_dog_35_n02110185_14056.png
subject-03,1,1010,0.627591133117676,elephant,elephant,false,1010_fc_s03_false_elephant_35_n02504458_5191.png
subject-03,1,1011,1.44923400878906,keyboard,bottle,false,1011_fc_s03_false_bottle_35_n04560804_15832.png
subject-03,1,1012,NaN,na,knife,true,1012_fc_s03_true_knife_35_n03041632_86338.png
subject-03,1,1013,0.975038051605225,car,car,false,1013_fc_s03_false_car_35_n03100240_6626.png
subject-03,1,1014,1.12092399597168,bear,bear,true,1014_fc_s03_true_bear_35_n02134418_2022.png
subject-03,1,1015,0.840759038925171,car,car,false,1015_fc_s03_false_car_35_n03100240_9675.png
subject-03,1,1016,0.714308023452759,keyboard,keyboard,false,1016_fc_s03_false_keyboard_35_n04505470_3970.png
subject-03,1,1017,0.930285930633545,clock,chair,true,1017_fc_s03_true_chair_35_n02791124_958.png
subject-03,1,1018,0.9340660572052,boat,boat,false,1018_fc_s03_false_boat_35_n02951358_7006.png
subject-03,1,1019,0.54778003692627,oven,oven,false,1019_fc_s03_false_oven_35_n04111531_14804.png
