subj,Session,trial,rt,object_response,category,condition,imagename
subject-01,1,1,0.809584140777588,knife,knife,true,0001_fc_s01_true_knife_35_n03041632_86251.png
subject-01,1,2,0.997450113296509,car,car,false,0002_fc_s01_false_car_35_n03100240_16866.png
subject-01,1,3,1.25921511650085,keyboard,keyboard,false,0003_fc_s01_false_keyboard_35_n03085013_21127.png
subject-01,1,4,0.825117111206055,truck,truck,true,0004_fc_s01_true_truck_35_n03417042_10694.png
subject-01,1,5,1.07885599136353,bird,bird,true,0005_fc_s01_true_bird_35_n01614925_1962.png
subject-01,1,6,1.35673904418945,clock,knife,false,0006_fc_s01_false_knife_35_n03041632_99875.png
subject-01,1,7,1.18241000175476,bicycle,bicycle,true,0007_fc_s01_true_bicycle_35_n03792782_14935.png
subject-01,1,8,0.976280927658081,elephant,elephant,false,0008_fc_s01_false_elephant_35_n02504013_5027.png
subject-01,1,9,1.33407497406006,dog,dog,false,0009_fc_s01_false_dog_35_n02090721_129.png
subject-01,1,10,1.02587699890137,airplane,airplane,true,0010_fc_s01_true_airplane_35_n02690373_9241.png
subject-01,1,11,0.957607984542847,truck,truck,true,0011_fc_s01_true_truck_35_n04467665_62080.png
subject-01,1,12,NaN,na,keyboard,true,0012_fc_s01_true_keyboard_35_n04505470_2669.png
subject-01,1,13,1.09343695640564,bear,oven,false,0013_fc_s01_false_oven_35_n04111531_688.png
subject-01,1,14,0.905143022537231,car,car,true,0014_fc_s01_true_car_35_n03100240_21982.png
subject-01,1,15,1.00899195671082,bicycle,bicycle,true,0015_fc_s01_true_bicycle_35_n02835271_4191.png
subject-01,1,16,0.904927968978882,car,car,true,0016_fc_s01_true_car_35_n02814533_25278.png
subject-01,1,17,0.862505912780762,knife,knife,false,0017_fc_s01_false_knife_35_n03041632_23087.png
subject-01,1,18,0.832413911819458,clock,clock,true,0018_fc_s01_true_clock_35_n03196217_11252.png
subject-01,1,19,0.736093997955322,boat,boat,false,0019_fc_s01_false_boat_35_n04273569_2040.png
subject-01,1,20,0.896195888519287,knife,knife,true,0020_fc_s01_true_knife_35_n03041632_84869.png
subject-01,1,21,0.767853975296021,clock,clock,true,0021_fc_s01_true_clock_35_n04548280_503.png
subject-01,1,22,0.895647048950195,truck,truck,false,0022_fc_s01_false_truck_35_n03417042_10654.png
subject-01,1,23,0.861499071121216,boat,boat,true,0023_fc_s01_true_boat_35_n03344393_2919.png
subject-01,1,24,0.859068870544434,chair,chair,false,0024_fc_s01_false_chair_35_n04099969_7718.png
subject-01,1,25,0.817170858383179,oven,oven,true,0025_fc_s01_true_oven_35_n04111531_3477.png
subject-01,1,26,1.21084594726562,dog,dog,false,0026_fc_s01_false_dog_35_n02113712_913.png
subject-01,1,27,1.50014901161194,oven,chair,false,0027_fc_s01_false_chair_35_n02791124_13701.png
subject-01,1,28,0.970507144927979,airplane,airplane,true,0028_fc_s01_true_airplane_35_n02690373_8538.png
subject-01,1,29,1.03416514396667,chair,knife,true,0029_fc_s01_true_knife_35_n03041632_98864.png
subject-01,1,30,1.028235912323,clock,clock,false,0030_fc_s01_false_clock_35_n04548280_5466.png
subject-01,1,31,0.818020105361938,keyboard,keyboard,true,0031_fc_s01_true_keyboard_35_n04505470_4033.png
subject-01,1,32,1.3261079788208,oven,boat,false,0032_fc_s01_false_boat_35_n03344393_7503.png
subject-01,1,33,1.11171197891235,bottle,bottle,false,0033_fc_s01_false_bottle_35_n02823428_3402.png
subject-01,1,34,0.909416913986206,truck,boat,true,0034_fc_s01_true_boat_35_n03662601_15766.png
subject-01,1,35,0.899144887924194,dog,dog,true,0035_fc_s01_true_dog_35_n02097047_1351.png
subject-01,1,36,0.802856922149658,keyboard,keyboard,true,0036_fc_s01_true_keyboard_35_n03085013_23562.png
subject-01,1,37,0.776731967926025,clock,clock,false,0037_fc_s01_false_clock_35_n04548280_7872.png
subject-01,1,38,0.976433038711548,dog,dog,false,0038_fc_s01_false_dog_35_n02106166_16884.png
subject-01,1,39,0.870317935943604,oven,oven,true,0039_fc_s01_true_oven_35_n04111531_3353.png
subject-01,1,40,1.07212591171265,knife,knife,false,0040_fc_s01_false_knife_35_n03041632_46185.png
subject-01,1,41,1.05015897750854,knife,knife,true,0041_fc_s01_true_knife_35_n03041632_14766.png
subject-01,1,42,1.17180490493774,knife,chair,true,0042_fc_s01_true_chair_35_n02791124_2150.png
subject-01,1,43,1.06363916397095,elephant,elephant,false,0043_fc_s01_false_elephant_35_n02504458_4631.png
subject-01,1,44,1.00745391845703,chair,chair,false,0044_fc_s01_false_chair_35_n03376595_3223.png
subject-01,1,45,0.965162992477417,car,car,false,0045_fc_s01_false_car_35_n03100240_5399.png
subject-01,1,46,0.975010871887207,bottle,bottle,true,0046_fc_s01_true_bottle_35_n04557648_2512.png
subject-01,1,47,1.45480513572693,bicycle,bicycle,true,0047_fc_s01_true_bicycle_35_n03792782_8098.png
subject-01,1,48,1.50009512901306,bear,bear,true,0048_fc_s01_true_bear_35_n02134418_11557.png
subject-01,1,49,1.09844303131104,knife,knife,true,0049_fc_s01_true_knife_35_n03041632_45569.png
subject-01,1,50,1.31452512741089,bicycle,bicycle,false,0050_fc_s01_false_bicycle_35_n03792782_4740.png
subject-01,1,51,1.03859400749207,boat,boat,false,0051_fc_s01_false_boat_35_n03662601_25404.png
subject-01,1,52,NaN,na,bird,false,0052_fc_s01_false_bird_35_n01796340_4853.png
subject-01,1,53,0.675863027572632,clock,clock,true,0053_fc_s01_true_clock_35_n03196217_5888.png
subject-01,1,54,1.0139901638031,bicycle,bicycle,true,0054_fc_s01_true_bicycle_35_n02835271_12871.png
subject-01,1,55,0.845332860946655,keyboard,keyboard,false,0055_fc_s01_false_keyboard_35_n03085013_28584.png
subject-01,1,56,1.1991331577301,dog,cat,true,0056_fc_s01_true_cat_35_n02123159_6184.png
subject-01,1,57,0.940927028656006,bicycle,bicycle,true,0057_fc_s01_true_bicycle_35_n02835271_7592.png
subject-01,1,58,0.884871959686279,elephant,elephant,false,0058_fc_s01_false_elephant_35_n02504458_3205.png
subject-01,1,59,0.842571973800659,cat,cat,false,0059_fc_s01_false_cat_35_n02124075_7880.png
subject-01,1,60,1.01644396781921,truck,truck,false,0060_fc_s01_false_truck_35_n04467665_2240.png
subject-01,1,61,1.412113904953,bottle,bottle,true,0061_fc_s01_true_bottle_35_n04560804_13316.png
subject-01,1,62,0.81191086769104,airplane,airplane,false,0062_fc_s01_false_airplane_35_n02690373_3821.png
subject-01,1,63,0.815953969955444,oven,knife,true,0063_fc_s01_true_knife_35_n03041632_17285.png
subject-01,1,64,0.821630001068115,bottle,bottle,false,0064_fc_s01_false_bottle_35_n02823428_10942.png
subject-01,1,65,0.673408985137939,bicycle,bicycle,true,0065_fc_s01_true_bicycle_35_n02835271_3642.png
subject-01,1,66,1.01931095123291,knife,knife,true,0066_fc_s01_true_knife_35_n03041632_16172.png
subject-01,1,67,1.34522700309753,bicycle,bottle,false,0067_fc_s01_false_bottle_35_n04560804_2448.png
subject-01,1,68,1.08890199661255,oven,oven,false,0068_fc_s01_false_oven_35_n04111531_4452.png
subject-01,1,69,0.952723026275635,keyboard,keyboard,false,0069_fc_s01_false_keyboard_35_n04505470_912.png
subject-01,1,70,0.824538946151733,cat,cat,false,0070_fc_s01_false_cat_35_n02123045_7167.png
subject-01,1,71,1.01247906684875,bicycle,bicycle,false,0071_fc_s01_false_bicycle_35_n03792782_8333.png
subject-01,1,72,1.20222306251526,dog,dog,false,0072_fc_s01_false_dog_35_n02107683_2904.png
subject-01,1,73,1.06596088409424,bottle,bottle,true,0073_fc_s01_true_bottle_35_n04591713_3409.png
subject-01,1,74,1.20390701293945,chair,bottle,false,0074_fc_s01_false_bottle_35_n04560804_564.png
subject-01,1,75,0.829721927642822,truck,truck,false,0075_fc_s01_false_truck_35_n03796401_6503.png
subject-01,1,76,0.789545059204102,oven,oven,true,0076_fc_s01_true_oven_35_n04111531_13590.png
subject-01,1,77,0.865151166915894,bird,bird,false,0077_fc_s01_false_bird_35_n02018795_7504.png
subject-01,1,78,1.03911900520325,car,car,false,0078_fc_s01_false_car_35_n03100240_6626.png
subject-01,1,79,1.07889604568481,bear,bear,false,0079_fc_s01_false_bear_35_n02134418_4364.png
subject-01,1,80,1.21478986740112,bird,knife,false,0080_fc_s01_false_knife_35_n03041632_8051.png
subject-01,1,81,0.717191934585571,airplane,airplane,true,0081_fc_s01_true_airplane_35_n02690373_1434.png
subject-01,1,82,0.764518976211548,clock,clock,true,0082_fc_s01_true_clock_35_n04548280_5408.png
subject-01,1,83,0.716691970825195,cat,cat,false,0083_fc_s01_false_cat_35_n02123597_3916.png
subject-01,1,84,1.30849099159241,clock,clock,false,0084_fc_s01_false_clock_35_n04548280_4542.png
subject-01,1,85,1.21600699424744,chair,car,true,0085_fc_s01_true_car_35_n04285008_14161.png
subject-01,1,86,0.77180290222168,airplane,airplane,false,0086_fc_s01_false_airplane_35_n02690373_7279.png
subject-01,1,87,1.11171197891235,bear,bear,true,0087_fc_s01_true_bear_35_n02132136_11640.png
subject-01,1,88,0.763561964035034,airplane,airplane,true,0088_fc_s01_true_airplane_35_n02690373_8350.png
subject-01,1,89,0.961244821548462,boat,boat,true,0089_fc_s01_true_boat_35_n04273569_30568.png
subject-01,1,90,1.04914903640747,dog,dog,true,0090_fc_s01_true_dog_35_n02100583_19533.png
subject-01,1,91,0.850750923156738,knife,knife,true,0091_fc_s01_true_knife_35_n03041632_965.png
subject-01,1,92,0.798607110977173,elephant,elephant,false,0092_fc_s01_false_elephant_35_n02504458_6109.png
subject-01,1,93,0.796406030654907,oven,oven,true,0093_fc_s01_true_oven_35_n04111531_10093.png
subject-01,1,94,1.42647004127502,clock,clock,true,0094_fc_s01_true_clock_35_n03196217_8221.png
subject-01,1,95,1.37050008773804,bicycle,bicycle,false,0095_fc_s01_false_bicycle_35_n03792782_828.png
subject-01,1,96,0.933845043182373,knife,knife,true,0096_fc_s01_true_knife_35_n03041632_7090.png
subject-01,1,97,1.19598317146301,knife,bear,false,0097_fc_s01_false_bear_35_n02134084_14260.png
subject-01,1,98,1.09965395927429,bear,bear,false,0098_fc_s01_false_bear_35_n02132136_10988.png
subject-01,1,99,1.04727792739868,keyboard,keyboard,false,0099_fc_s01_false_keyboard_35_n03085013_22980.png
subject-01,1,100,0.817157983779907,bottle,bottle,false,0100_fc_s01_false_bottle_35_n04557648_3673.png
subject-01,1,101,0.929111003875732,airplane,airplane,true,0101_fc_s01_true_airplane_35_n02690373_1360.png
subject-01,1,102,1.10492300987244,bird,oven,true,0102_fc_s01_true_oven_35_n04111531_6415.png
subject-01,1,103,0.758672952651978,knife,knife,false,0103_fc_s01_false_knife_35_n03041632_32054.png
subject-01,1,104,0.982528924942017,chair,chair,false,0104_fc_s01_false_chair_35_n03376595_9136.png
subject-01,1,105,NaN,na,keyboard,false,0105_fc_s01_false_keyboard_35_n03085013_21266.png
subject-01,1,106,0.750111818313599,bicycle,bicycle,true,0106_fc_s01_true_bicycle_35_n02835271_6137.png
subject-01,1,107,0.931885957717896,car,car,false,0107_fc_s01_false_car_35_n04285008_14689.png
subject-01,1,108,1.03778409957886,truck,truck,false,0108_fc_s01_false_truck_35_n04467665_16276.png
subject-01,1,109,0.809424877166748,chair,chair,false,0109_fc_s01_false_chair_35_n03376595_787.png
subject-01,1,110,0.873431921005249,boat,boat,false,0110_fc_s01_false_boat_35_n04612504_41355.png
subject-01,1,111,0.879045963287354,elephant,elephant,true,0111_fc_s01_true_elephant_35_n02504458_174.png
subject-01,1,112,0.891275882720947,cat,cat,true,0112_fc_s01_true_cat_35_n02125311_6746.png
subject-01,1,113,0.826857089996338,keyboard,keyboard,false,0113_fc_s01_false_keyboard_35_n03085013_23287.png
subject-01,1,114,0.706798076629639,clock,clock,true,0114_fc_s01_true_clock_35_n04548280_8071.png
subject-01,1,115,0.724292039871216,oven,oven,false,0115_fc_s01_false_oven_35_n04111531_14543.png
subject-01,1,116,1.19810700416565,car,car,false,0116_fc_s01_false_car_35_n03100240_10791.png
subject-01,1,117,0.913951873779297,airplane,airplane,true,0117_fc_s01_true_airplane_35_n02690373_2619.png
subject-01,1,118,0.8521409034729,keyboard,keyboard,true,0118_fc_s01_true_keyboard_35_n04505470_3864.png
subject-01,1,119,1.15588998794556,dog,dog,true,0119_fc_s01_true_dog_35_n02097658_4387.png
subject-01,1,120,0.933777093887329,clock,clock,true,0120_fc_s01_true_clock_35_n04548280_309.png
subject-01,1,121,1.10364103317261,dog,dog,true,0121_fc_s01_true_dog_35_n02108000_5247.png
subject-01,1,122,0.871058940887451,keyboard,keyboard,false,0122_fc_s01_false_keyboard_35_n04505470_4411.png
subject-01,1,123,0.902759075164795,truck,truck,false,0123_fc_s01_false_truck_35_n03417042_2155.png
subject-01,1,124,1.4169499874115,bear,bear,false,0124_fc_s01_false_bear_35_n02132136_4237.png
subject-01,1,125,1.18469309806824,bird,bird,false,0125_fc_s01_false_bird_35_n01843065_2350.png
subject-01,1,126,0.766396045684814,knife,knife,false,0126_fc_s01_false_knife_35_n03041632_51225.png
subject-01,1,127,0.816251993179321,airplane,airplane,false,0127_fc_s01_false_airplane_35_n02690373_2095.png
subject-01,1,128,0.750101804733276,clock,clock,true,0128_fc_s01_true_clock_35_n02708093_1775.png
subject-01,1,129,0.951658964157104,elephant,elephant,true,0129_fc_s01_true_elephant_35_n02504458_7950.png
subject-01,1,130,1.1454770565033,boat,boat,true,0130_fc_s01_true_boat_35_n03662601_1926.png
subject-01,1,131,0.831464052200317,elephant,elephant,true,0131_fc_s01_true_elephant_35_n02504458_6721.png
subject-01,1,132,0.969068050384521,bicycle,bicycle,true,0132_fc_s01_true_bicycle_35_n02835271_14225.png
subject-01,1,133,0.732858896255493,clock,clock,false,0133_fc_s01_false_clock_35_n02708093_2744.png
subject-01,1,134,0.668938875198364,clock,clock,true,0134_fc_s01_true_clock_35_n02708093_275.png
subject-01,1,135,0.960659027099609,knife,knife,false,0135_fc_s01_false_knife_35_n03041632_25512.png
subject-01,1,136,0.824493169784546,bird,bird,true,0136_fc_s01_true_bird_35_n01622779_5441.png
subject-01,1,137,0.820307016372681,oven,oven,false,0137_fc_s01_false_oven_35_n04111531_14329.png
subject-01,1,138,0.849910974502563,bird,bird,false,0138_fc_s01_false_bird_35_n02007558_13217.png
subject-01,1,139,1.18974685668945,cat,cat,true,0139_fc_s01_true_cat_35_n02123597_7908.png
subject-01,1,140,0.591574907302856,clock,clock,true,0140_fc_s01_true_clock_35_n04548280_9828.png
subject-01,1,141,1.0355441570282,bird,bird,false,0141_fc_s01_false_bird_35_n01833805_4819.png
subject-01,1,142,1.08331394195557,knife,knife,true,0142_fc_s01_true_knife_35_n03041632_52929.png
subject-01,1,143,1.00303411483765,truck,truck,false,0143_fc_s01_false_truck_35_n04467665_2044.png
subject-01,1,144,0.968816995620728,oven,oven,false,0144_fc_s01_false_oven_35_n04111531_16583.png
subject-01,1,145,0.824622869491577,airplane,airplane,true,0145_fc_s01_true_airplane_35_n02690373_2796.png
subject-01,1,146,0.864464998245239,airplane,airplane,false,0146_fc_s01_false_airplane_35_n02690373_3362.png
subject-01,1,147,0.674399137496948,clock,clock,true,0147_fc_s01_true_clock_35_n02708093_3759.png
subject-01,1,148,0.968238830566406,elephant,elephant,true,0148_fc_s01_true_elephant_35_n02504013_2558.png
subject-01,1,149,1.20776104927063,bird,bear,false,0149_fc_s01_false_bear_35_n02134418_896.png
subject-01,1,150,1.01798987388611,truck,truck,false,0150_fc_s01_false_truck_35_n04467665_56815.png
subject-01,1,151,1.19170594215393,truck,truck,true,0151_fc_s01_true_truck_35_n03796401_3695.png
subject-01,1,152,1.3134229183197,dog,dog,true,0152_fc_s01_true_dog_35_n02107312_197.png
subject-01,1,153,0.793298006057739,bear,bear,false,0153_fc_s01_false_bear_35_n02133161_13356.png
subject-01,1,154,0.96300482749939,truck,truck,false,0154_fc_s01_false_truck_35_n03796401_6923.png
subject-01,1,155,0.851165056228638,elephant,elephant,true,0155_fc_s01_true_elephant_35_n02504458_7660.png
subject-01,1,156,0.84070897102356,bicycle,bicycle,false,0156_fc_s01_false_bicycle_35_n02835271_6554.png
subject-01,1,157,0.814416170120239,boat,boat,true,0157_fc_s01_true_boat_35_n04273569_2698.png
subject-01,1,158,1.50009202957153,dog,bottle,true,0158_fc_s01_true_bottle_35_n03983396_5055.png
subject-01,1,159,0.882192134857178,clock,chair,true,0159_fc_s01_true_chair_35_n04429376_22811.png
subject-01,1,160,0.861783027648926,knife,knife,false,0160_fc_s01_false_knife_35_n03041632_5640.png
subject-01,1,161,1.01150512695312,bird,bird,true,0161_fc_s01_true_bird_35_n01795545_14857.png
subject-01,1,162,0.729321002960205,oven,oven,false,0162_fc_s01_false_oven_35_n04111531_16144.png
subject-01,1,163,0.778964996337891,truck,truck,false,0163_fc_s01_false_truck_35_n04467665_47050.png
subject-01,1,164,0.931097984313965,bottle,bottle,true,0164_fc_s01_true_bottle_35_n03937543_8063.png
subject-01,1,165,1.00095200538635,bear,bear,false,0165_fc_s01_false_bear_35_n02134084_1655.png
subject-01,1,166,1.06838989257812,car,car,false,0166_fc_s01_false_car_35_n03100240_2425.png
subject-01,1,167,0.834146976470947,keyboard,keyboard,false,0167_fc_s01_false_keyboard_35_n03085013_21300.png
subject-01,1,168,0.861886978149414,bear,bear,false,0168_fc_s01_false_bear_35_n02132136_2248.png
subject-01,1,169,0.939746141433716,knife,knife,false,0169_fc_s01_false_knife_35_n03041632_27832.png
subject-01,1,170,0.921704053878784,keyboard,keyboard,true,0170_fc_s01_true_keyboard_35_n04505470_4682.png
subject-01,1,171,1.09752511978149,car,truck,false,0171_fc_s01_false_truck_35_n03417042_12908.png
subject-01,1,172,1.00531005859375,elephant,elephant,false,0172_fc_s01_false_elephant_35_n02504013_2148.png
subject-01,1,173,0.823267936706543,boat,boat,true,0173_fc_s01_true_boat_35_n02951358_20379.png
subject-01,1,174,1.02699589729309,cat,cat,true,0174_fc_s01_true_cat_35_n02123394_6521.png
subject-01,1,175,0.930593013763428,boat,boat,true,0175_fc_s01_true_boat_35_n03662601_9602.png
subject-01,1,176,0.684519052505493,clock,clock,true,0176_fc_s01_true_clock_35_n04548280_3997.png
subject-01,1,177,0.844784021377563,car,car,false,0177_fc_s01_false_car_35_n03100240_12694.png
subject-01,1,178,0.96417498588562,bird,bird,false,0178_fc_s01_false_bird_35_n02002556_25052.png
subject-01,1,179,1.27836894989014,clock,chair,true,0179_fc_s01_true_chair_35_n04429376_22734.png
subject-01,1,180,0.696174144744873,boat,boat,true,0180_fc_s01_true_boat_35_n04612504_5334.png
subject-01,1,181,0.817623138427734,keyboard,keyboard,true,0181_fc_s01_true_keyboard_35_n03085013_15484.png
subject-01,1,182,0.837677001953125,bear,bear,true,0182_fc_s01_true_bear_35_n02134418_1809.png
subject-01,1,183,0.927586078643799,bottle,bottle,true,0183_fc_s01_true_bottle_35_n04560804_6392.png
subject-01,1,184,0.821203947067261,boat,boat,false,0184_fc_s01_false_boat_35_n02951358_29495.png
subject-01,1,185,1.11691784858704,dog,dog,false,0185_fc_s01_false_dog_35_n02086646_8449.png
subject-01,1,186,1.09454298019409,bird,bird,true,0186_fc_s01_true_bird_35_n02037110_4043.png
subject-01,1,187,0.844649791717529,elephant,elephant,true,0187_fc_s01_true_elephant_35_n02504458_4819.png
subject-01,1,188,0.996342897415161,bird,bird,true,0188_fc_s01_true_bird_35_n01829413_282.png
subject-01,1,189,1.19593811035156,bird,bird,false,0189_fc_s01_false_bird_35_n02007558_22160.png
subject-01,1,190,NaN,na,truck,false,0190_fc_s01_false_truck_35_n03417042_3066.png
subject-01,1,191,0.787754058837891,boat,boat,true,0191_fc_s01_true_boat_35_n04612504_254.png
subject-01,1,192,1.25549507141113,oven,keyboard,false,0192_fc_s01_false_keyboard_35_n03085013_20704.png
subject-01,1,193,0.825265169143677,chair,chair,true,0193_fc_s01_true_chair_35_n03376595_3015.png
subject-01,1,194,1.0332818031311,keyboard,bottle,false,0194_fc_s01_false_bottle_35_n03983396_3782.png
subject-01,1,195,1.3392870426178,bird,bird,false,0195_fc_s01_false_bird_35_n01592084_4087.png
subject-01,1,196,1.21486806869507,bird,bird,false,0196_fc_s01_false_bird_35_n02013706_651.png
subject-01,1,197,0.820655822753906,keyboard,keyboard,true,0197_fc_s01_true_keyboard_35_n04505470_2825.png
subject-01,1,198,0.842629909515381,cat,cat,false,0198_fc_s01_false_cat_35_n02123597_23346.png
subject-01,1,199,0.850304841995239,cat,cat,false,0199_fc_s01_false_cat_35_n02124075_3592.png
subject-01,1,200,0.894430875778198,airplane,airplane,false,0200_fc_s01_false_airplane_35_n02690373_5415.png
subject-01,1,201,0.80997896194458,cat,cat,true,0201_fc_s01_true_cat_35_n02123597_4591.png
subject-01,1,202,0.985695123672485,elephant,elephant,false,0202_fc_s01_false_elephant_35_n02504013_2228.png
subject-01,1,203,1.11528611183167,knife,knife,false,0203_fc_s01_false_knife_35_n03041632_47743.png
subject-01,1,204,0.823338031768799,bear,bear,false,0204_fc_s01_false_bear_35_n02134418_1105.png
subject-01,1,205,1.09291481971741,bottle,bottle,true,0205_fc_s01_true_bottle_35_n04591713_1174.png
subject-01,1,206,1.23084402084351,keyboard,keyboard,true,0206_fc_s01_true_keyboard_35_n04505470_8544.png
subject-01,1,207,0.852782011032104,bear,bear,true,0207_fc_s01_true_bear_35_n02134418_379.png
subject-01,1,208,1.29041600227356,oven,knife,false,0208_fc_s01_false_knife_35_n03041632_33198.png
subject-01,1,209,0.70032000541687,bear,bear,true,0209_fc_s01_true_bear_35_n02134084_4490.png
subject-01,1,210,0.938168048858643,car,car,true,0210_fc_s01_true_car_35_n02814533_23592.png
subject-01,1,211,1.24583196640015,dog,dog,false,0211_fc_s01_false_dog_35_n02102973_7095.png
subject-01,1,212,1.03992795944214,elephant,elephant,true,0212_fc_s01_true_elephant_35_n02504013_3810.png
subject-01,1,213,0.919413089752197,truck,truck,false,0213_fc_s01_false_truck_35_n03417042_28742.png
subject-01,1,214,1.08528590202332,bicycle,bicycle,false,0214_fc_s01_false_bicycle_35_n03792782_4382.png
subject-01,1,215,0.933286190032959,keyboard,keyboard,false,0215_fc_s01_false_keyboard_35_n04505470_2868.png
subject-01,1,216,0.923292875289917,bear,bear,true,0216_fc_s01_true_bear_35_n02132136_4817.png
subject-01,1,217,1.15873289108276,bicycle,bicycle,true,0217_fc_s01_true_bicycle_35_n03792782_1989.png
subject-01,1,218,0.87899112701416,truck,truck,true,0218_fc_s01_true_truck_35_n03417042_4883.png
subject-01,1,219,0.98050594329834,bicycle,bicycle,true,0219_fc_s01_true_bicycle_35_n03792782_6614.png
subject-01,1,220,1.02033495903015,car,car,true,0220_fc_s01_true_car_35_n04285008_8581.png
subject-01,1,221,0.907969951629639,truck,truck,true,0221_fc_s01_true_truck_35_n04467665_22051.png
subject-01,1,222,0.787869215011597,keyboard,keyboard,true,0222_fc_s01_true_keyboard_35_n04505470_4516.png
subject-01,1,223,0.792044878005981,clock,clock,true,0223_fc_s01_true_clock_35_n02708093_3355.png
subject-01,1,224,1.2493839263916,chair,chair,false,0224_fc_s01_false_chair_35_n02791124_11404.png
subject-01,1,225,0.793303966522217,boat,boat,true,0225_fc_s01_true_boat_35_n03344393_1145.png
subject-01,1,226,0.923166036605835,keyboard,keyboard,false,0226_fc_s01_false_keyboard_35_n04505470_4627.png
subject-01,1,227,0.818901062011719,chair,chair,true,0227_fc_s01_true_chair_35_n03376595_4354.png
subject-01,1,228,0.928616046905518,keyboard,keyboard,false,0228_fc_s01_false_keyboard_35_n03085013_3231.png
subject-01,1,229,0.856376171112061,car,car,false,0229_fc_s01_false_car_35_n03100240_7454.png
subject-01,1,230,0.856130123138428,chair,chair,false,0230_fc_s01_false_chair_35_n03376595_4212.png
subject-01,1,231,0.916156053543091,airplane,airplane,true,0231_fc_s01_true_airplane_35_n02690373_4175.png
subject-01,1,232,0.967908143997192,bird,bird,false,0232_fc_s01_false_bird_35_n01614925_19918.png
subject-01,1,233,1.09976410865784,dog,dog,false,0233_fc_s01_false_dog_35_n02086240_1183.png
subject-01,1,234,1.03169584274292,car,car,false,0234_fc_s01_false_car_35_n02814533_1344.png
subject-01,1,235,0.905826807022095,bottle,bottle,true,0235_fc_s01_true_bottle_35_n03983396_1321.png
subject-01,1,236,0.721221923828125,cat,cat,true,0236_fc_s01_true_cat_35_n02123597_6291.png
subject-01,1,237,0.96113395690918,boat,airplane,true,0237_fc_s01_true_airplane_35_n02690373_7698.png
subject-01,1,238,0.798912048339844,airplane,airplane,false,0238_fc_s01_false_airplane_35_n02690373_4191.png
subject-01,1,239,1.25070691108704,dog,bear,true,0239_fc_s01_true_bear_35_n02134418_6204.png
subject-01,1,240,1.16670703887939,bear,bear,true,0240_fc_s01_true_bear_35_n02132136_14829.png
subject-01,1,241,0.901138067245483,car,car,false,0241_fc_s01_false_car_35_n04285008_2409.png
subject-01,1,242,0.928738117218018,bird,bird,true,0242_fc_s01_true_bird_35_n02037110_3761.png
subject-01,1,243,0.768558979034424,boat,boat,false,0243_fc_s01_false_boat_35_n02951358_3067.png
subject-01,1,244,0.756489992141724,chair,chair,false,0244_fc_s01_false_chair_35_n03376595_14748.png
subject-01,1,245,0.848538875579834,elephant,elephant,true,0245_fc_s01_true_elephant_35_n02504458_5951.png
subject-01,1,246,0.715955018997192,clock,clock,false,0246_fc_s01_false_clock_35_n02708093_2006.png
subject-01,1,247,0.908077955245972,car,car,false,0247_fc_s01_false_car_35_n03100240_18646.png
subject-01,1,248,1.06154704093933,bicycle,bicycle,false,0248_fc_s01_false_bicycle_35_n03792782_5864.png
subject-01,1,249,0.857551097869873,clock,chair,false,0249_fc_s01_false_chair_35_n04429376_36830.png
subject-01,1,250,0.649269104003906,boat,boat,true,0250_fc_s01_true_boat_35_n04273569_9282.png
subject-01,1,251,0.77905797958374,bird,bird,true,0251_fc_s01_true_bird_35_n01622779_1609.png
subject-01,1,252,1.10495495796204,dog,dog,true,0252_fc_s01_true_dog_35_n02088094_9498.png
subject-01,1,253,0.8509681224823,car,car,true,0253_fc_s01_true_car_35_n04285008_5525.png
subject-01,1,254,0.926453113555908,oven,knife,true,0254_fc_s01_true_knife_35_n03041632_29343.png
subject-01,1,255,0.962287902832031,knife,knife,true,0255_fc_s01_true_knife_35_n03041632_86338.png
subject-01,1,256,0.894484996795654,keyboard,keyboard,false,0256_fc_s01_false_keyboard_35_n03085013_20691.png
subject-01,1,257,0.782284021377563,cat,cat,true,0257_fc_s01_true_cat_35_n02124075_1957.png
subject-01,1,258,0.769706010818481,bear,bear,false,0258_fc_s01_false_bear_35_n02134418_195.png
subject-01,1,259,0.797536134719849,chair,chair,true,0259_fc_s01_true_chair_35_n02791124_1376.png
subject-01,1,260,0.927482128143311,elephant,elephant,false,0260_fc_s01_false_elephant_35_n02504458_8060.png
subject-01,1,261,1.1350429058075,oven,oven,false,0261_fc_s01_false_oven_35_n04111531_6479.png
subject-01,1,262,1.19485306739807,bear,bear,true,0262_fc_s01_true_bear_35_n02132136_4070.png
subject-01,1,263,0.690711975097656,cat,cat,false,0263_fc_s01_false_cat_35_n02123597_1153.png
subject-01,1,264,1.05851411819458,truck,truck,false,0264_fc_s01_false_truck_35_n04467665_49656.png
subject-01,1,265,1.50007796287537,dog,dog,true,0265_fc_s01_true_dog_35_n02108915_10239.png
subject-01,1,266,0.770397901535034,chair,chair,false,0266_fc_s01_false_chair_35_n04429376_6835.png
subject-01,1,267,0.967972040176392,truck,truck,true,0267_fc_s01_true_truck_35_n04467665_54079.png
subject-01,1,268,0.675743103027344,clock,clock,false,0268_fc_s01_false_clock_35_n03196217_4464.png
subject-01,1,269,0.953734874725342,dog,dog,true,0269_fc_s01_true_dog_35_n02102318_9359.png
subject-01,1,270,0.877423048019409,bicycle,bicycle,true,0270_fc_s01_true_bicycle_35_n03792782_12578.png
subject-01,1,271,0.815276861190796,bicycle,bicycle,true,0271_fc_s01_true_bicycle_35_n02835271_12752.png
subject-01,1,272,0.710922002792358,oven,oven,true,0272_fc_s01_true_oven_35_n04111531_20056.png
subject-01,1,273,0.72691798210144,oven,oven,true,0273_fc_s01_true_oven_35_n04111531_12510.png
subject-01,1,274,0.684622049331665,oven,oven,false,0274_fc_s01_false_oven_35_n04111531_11079.png
subject-01,1,275,0.702662944793701,cat,cat,true,0275_fc_s01_true_cat_35_n02124075_4377.png
subject-01,1,276,0.846778154373169,knife,knife,true,0276_fc_s01_true_knife_35_n03041632_20517.png
subject-01,1,277,1.16215205192566,knife,knife,false,0277_fc_s01_false_knife_35_n03041632_362.png
subject-01,1,278,0.838129997253418,airplane,airplane,false,0278_fc_s01_false_airplane_35_n02690373_6807.png
subject-01,1,279,1.04412794113159,elephant,elephant,false,0279_fc_s01_false_elephant_35_n02504013_1494.png
subject-01,1,280,NaN,na,oven,false,0280_fc_s01_false_oven_35_n04111531_3181.png
subject-01,1,281,1.00148296356201,truck,truck,false,0281_fc_s01_false_truck_35_n03796401_6727.png
subject-01,1,282,0.967176914215088,dog,dog,true,0282_fc_s01_true_dog_35_n02113023_6956.png
subject-01,1,283,1.07712006568909,clock,elephant,false,0283_fc_s01_false_elephant_35_n02504013_1519.png
subject-01,1,284,0.892746925354004,oven,oven,false,0284_fc_s01_false_oven_35_n04111531_8082.png
subject-01,1,285,0.69857120513916,oven,oven,false,0285_fc_s01_false_oven_35_n04111531_550.png
subject-01,1,286,0.766510963439941,clock,clock,false,0286_fc_s01_false_clock_35_n02708093_2242.png
subject-01,1,287,0.806304931640625,airplane,airplane,true,0287_fc_s01_true_airplane_35_n02690373_10809.png
subject-01,1,288,1.04395389556885,bird,bird,false,0288_fc_s01_false_bird_35_n02037110_6501.png
subject-01,1,289,0.682183980941772,airplane,airplane,false,0289_fc_s01_false_airplane_35_n02690373_12756.png
subject-01,1,290,0.859585046768188,bottle,bottle,false,0290_fc_s01_false_bottle_35_n03983396_5413.png
subject-01,1,291,0.845654964447021,bird,bird,true,0291_fc_s01_true_bird_35_n01560419_631.png
subject-01,1,292,0.811238050460815,cat,cat,true,0292_fc_s01_true_cat_35_n02123394_4734.png
subject-01,1,293,1.28115701675415,bottle,bottle,true,0293_fc_s01_true_bottle_35_n03937543_469.png
subject-01,1,294,0.648790836334229,clock,clock,true,0294_fc_s01_true_clock_35_n04548280_1055.png
subject-01,1,295,1.12680101394653,chair,chair,true,0295_fc_s01_true_chair_35_n02791124_15934.png
subject-01,1,296,0.732599020004272,cat,keyboard,true,0296_fc_s01_true_keyboard_35_n03085013_22187.png
subject-01,1,297,1.0483078956604,dog,dog,false,0297_fc_s01_false_dog_35_n02099601_8560.png
subject-01,1,298,0.976209878921509,truck,truck,true,0298_fc_s01_true_truck_35_n03417042_11091.png
subject-01,1,299,0.965821981430054,bird,bird,true,0299_fc_s01_true_bird_35_n02013706_7132.png
subject-01,1,300,0.990087985992432,car,car,false,0300_fc_s01_false_car_35_n02814533_4978.png
subject-01,1,301,1.00960898399353,bear,bear,true,0301_fc_s01_true_bear_35_n02134418_6244.png
subject-01,1,302,0.941438913345337,bicycle,bicycle,false,0302_fc_s01_false_bicycle_35_n03792782_50569.png
subject-01,1,303,0.873242855072021,car,car,true,0303_fc_s01_true_car_35_n03100240_2632.png
subject-01,1,304,0.798967123031616,knife,knife,false,0304_fc_s01_false_knife_35_n03041632_11285.png
subject-01,1,305,0.921159029006958,knife,knife,false,0305_fc_s01_false_knife_35_n03041632_39952.png
subject-01,1,306,0.952635049819946,chair,chair,true,0306_fc_s01_true_chair_35_n04099969_9745.png
subject-01,1,307,0.940593004226685,car,car,true,0307_fc_s01_true_car_35_n03100240_49.png
subject-01,1,308,0.9721999168396,bird,bird,true,0308_fc_s01_true_bird_35_n01817953_5953.png
subject-01,1,309,0.950297117233276,bear,bear,false,0309_fc_s01_false_bear_35_n02134418_5253.png
subject-01,1,310,0.8959059715271,bicycle,bicycle,false,0310_fc_s01_false_bicycle_35_n03792782_7576.png
subject-01,1,311,0.943768978118896,keyboard,keyboard,true,0311_fc_s01_true_keyboard_35_n03085013_5157.png
subject-01,1,312,1.45149803161621,car,boat,true,0312_fc_s01_true_boat_35_n03344393_7050.png
subject-01,1,313,0.753458976745605,bicycle,bicycle,false,0313_fc_s01_false_bicycle_35_n03792782_51335.png
subject-01,1,314,0.733305931091309,cat,cat,true,0314_fc_s01_true_cat_35_n02124075_7230.png
subject-01,1,315,1.0349760055542,truck,truck,true,0315_fc_s01_true_truck_35_n04467665_68020.png
subject-01,1,316,0.828696012496948,bear,elephant,true,0316_fc_s01_true_elephant_35_n02504458_2970.png
subject-01,1,317,1.02454710006714,bicycle,bicycle,false,0317_fc_s01_false_bicycle_35_n02835271_2714.png
subject-01,1,318,0.910430908203125,elephant,elephant,true,0318_fc_s01_true_elephant_35_n02504013_3307.png
subject-01,1,319,0.810467004776001,truck,truck,true,0319_fc_s01_true_truck_35_n03796401_3940.png
subject-01,1,320,0.882339954376221,clock,chair,false,0320_fc_s01_false_chair_35_n04429376_5362.png
subject-01,1,321,0.88462495803833,cat,cat,false,0321_fc_s01_false_cat_35_n02123159_1165.png
subject-01,1,322,NaN,na,boat,true,0322_fc_s01_true_boat_35_n03662601_4665.png
subject-01,1,323,0.798176050186157,cat,cat,true,0323_fc_s01_true_cat_35_n02124075_5067.png
subject-01,1,324,1.50008988380432,clock,knife,true,0324_fc_s01_true_knife_35_n03041632_22480.png
subject-01,1,325,1.48990392684937,bicycle,bottle,false,0325_fc_s01_false_bottle_35_n04560804_2539.png
subject-01,1,326,0.943626165390015,oven,oven,true,0326_fc_s01_true_oven_35_n04111531_8681.png
subject-01,1,327,0.713464975357056,car,car,false,0327_fc_s01_false_car_35_n03100240_23804.png
subject-01,1,328,0.717327117919922,oven,oven,true,0328_fc_s01_true_oven_35_n04111531_547.png
subject-01,1,329,0.671097993850708,boat,boat,false,0329_fc_s01_false_boat_35_n04273569_9873.png
subject-01,1,330,0.736901044845581,cat,cat,false,0330_fc_s01_false_cat_35_n02123597_13140.png
subject-01,1,331,0.816885948181152,bear,bear,true,0331_fc_s01_true_bear_35_n02134418_1330.png
subject-01,1,332,1.20850706100464,chair,chair,false,0332_fc_s01_false_chair_35_n04429376_6272.png
subject-01,1,333,0.838335037231445,bear,bear,false,0333_fc_s01_false_bear_35_n02134084_22997.png
subject-01,1,334,0.830148935317993,clock,clock,false,0334_fc_s01_false_clock_35_n03196217_3508.png
subject-01,1,335,1.07403802871704,oven,chair,true,0335_fc_s01_true_chair_35_n02791124_958.png
subject-01,1,336,0.64778995513916,boat,boat,false,0336_fc_s01_false_boat_35_n03344393_4012.png
subject-01,1,337,0.721590995788574,airplane,airplane,true,0337_fc_s01_true_airplane_35_n02690373_4921.png
subject-01,1,338,1.12945103645325,bear,cat,false,0338_fc_s01_false_cat_35_n02125311_28052.png
subject-01,1,339,0.649230003356934,airplane,airplane,false,0339_fc_s01_false_airplane_35_n02690373_1837.png
subject-01,1,340,1.06698107719421,elephant,elephant,false,0340_fc_s01_false_elephant_35_n02504458_5191.png
subject-01,1,341,1.1027729511261,bird,bird,false,0341_fc_s01_false_bird_35_n01855672_2187.png
subject-01,1,342,0.786720991134644,clock,clock,true,0342_fc_s01_true_clock_35_n04548280_7794.png
subject-01,1,343,1.11259698867798,knife,clock,false,0343_fc_s01_false_clock_35_n03196217_8489.png
subject-01,1,344,0.940622806549072,knife,knife,false,0344_fc_s01_false_knife_35_n03041632_21590.png
subject-01,1,345,0.842097997665405,elephant,elephant,false,0345_fc_s01_false_elephant_35_n02504458_1249.png
subject-01,1,346,0.959984064102173,bottle,keyboard,false,0346_fc_s01_false_keyboard_35_n04505470_4549.png
subject-01,1,347,0.90174412727356,elephant,elephant,false,0347_fc_s01_false_elephant_35_n02504013_3771.png
subject-01,1,348,1.03944087028503,bicycle,bicycle,true,0348_fc_s01_true_bicycle_35_n02835271_19552.png
subject-01,1,349,0.841240882873535,bear,bear,true,0349_fc_s01_true_bear_35_n02134084_4477.png
subject-01,1,350,0.981261968612671,elephant,elephant,false,0350_fc_s01_false_elephant_35_n02504013_10149.png
subject-01,1,351,0.680945158004761,boat,boat,true,0351_fc_s01_true_boat_35_n04273569_709.png
subject-01,1,352,0.958779096603394,car,car,false,0352_fc_s01_false_car_35_n03100240_7120.png
subject-01,1,353,0.912553071975708,car,boat,false,0353_fc_s01_false_boat_35_n02951358_12867.png
subject-01,1,354,0.950444936752319,bird,bird,true,0354_fc_s01_true_bird_35_n01558993_38999.png
subject-01,1,355,1.0921471118927,bicycle,bicycle,false,0355_fc_s01_false_bicycle_35_n03792782_4210.png
subject-01,1,356,1.19033098220825,dog,dog,false,0356_fc_s01_false_dog_35_n02102318_11997.png
subject-01,1,357,0.959825038909912,clock,clock,false,0357_fc_s01_false_clock_35_n02708093_6813.png
subject-01,1,358,0.789672136306763,oven,oven,false,0358_fc_s01_false_oven_35_n04111531_8036.png
subject-01,1,359,0.621745824813843,clock,clock,false,0359_fc_s01_false_clock_35_n02708093_3454.png
subject-01,1,360,0.883166074752808,keyboard,keyboard,true,0360_fc_s01_true_keyboard_35_n03085013_21641.png
subject-01,1,361,1.50012016296387,chair,chair,false,0361_fc_s01_false_chair_35_n02791124_139.png
subject-01,1,362,0.800787925720215,bear,bear,false,0362_fc_s01_false_bear_35_n02134084_6821.png
subject-01,1,363,0.774621963500977,cat,cat,false,0363_fc_s01_false_cat_35_n02124075_5874.png
subject-01,1,364,0.83882212638855,chair,chair,false,0364_fc_s01_false_chair_35_n04099969_8604.png
subject-01,1,365,0.776423931121826,bicycle,bicycle,true,0365_fc_s01_true_bicycle_35_n02835271_15524.png
subject-01,1,366,0.819966077804565,chair,chair,false,0366_fc_s01_false_chair_35_n04429376_55163.png
subject-01,1,367,1.36407899856567,dog,dog,true,0367_fc_s01_true_dog_35_n02106662_10632.png
subject-01,1,368,0.823732137680054,car,car,false,0368_fc_s01_false_car_35_n03100240_9675.png
subject-01,1,369,0.969957113265991,bird,bird,true,0369_fc_s01_true_bird_35_n02011460_22291.png
subject-01,1,370,0.871407985687256,dog,dog,false,0370_fc_s01_false_dog_35_n02106662_56099.png
subject-01,1,371,0.685064077377319,clock,keyboard,false,0371_fc_s01_false_keyboard_35_n04505470_3970.png
subject-01,1,372,0.654927015304565,boat,boat,false,0372_fc_s01_false_boat_35_n03662601_32803.png
subject-01,1,373,0.858711004257202,bottle,bottle,false,0373_fc_s01_false_bottle_35_n02823428_4043.png
subject-01,1,374,0.812652111053467,airplane,airplane,true,0374_fc_s01_true_airplane_35_n02690373_5221.png
subject-01,1,375,1.5001528263092,car,knife,false,0375_fc_s01_false_knife_35_n03041632_90125.png
subject-01,1,376,0.668279886245728,oven,oven,false,0376_fc_s01_false_oven_35_n04111531_11230.png
subject-01,1,377,1.14994287490845,clock,keyboard,true,0377_fc_s01_true_keyboard_35_n04505470_3002.png
subject-01,1,378,0.644294023513794,bicycle,bicycle,true,0378_fc_s01_true_bicycle_35_n02835271_12237.png
subject-01,1,379,1.04556894302368,dog,dog,false,0379_fc_s01_false_dog_35_n02088238_9947.png
subject-01,1,380,1.21543908119202,truck,airplane,false,0380_fc_s01_false_airplane_35_n02690373_2075.png
subject-01,1,381,0.765315055847168,bicycle,bicycle,false,0381_fc_s01_false_bicycle_35_n02835271_12930.png
subject-01,1,382,1.2453761100769,dog,dog,false,0382_fc_s01_false_dog_35_n02096294_4609.png
subject-01,1,383,0.808964014053345,knife,knife,false,0383_fc_s01_false_knife_35_n03041632_15754.png
subject-01,1,384,1.13671398162842,bird,bird,true,0384_fc_s01_true_bird_35_n01819313_5634.png
subject-01,1,385,0.720534086227417,clock,clock,true,0385_fc_s01_true_clock_35_n02708093_8386.png
subject-01,1,386,0.832268953323364,bottle,bottle,false,0386_fc_s01_false_bottle_35_n04579145_6435.png
subject-01,1,387,0.961992025375366,airplane,airplane,true,0387_fc_s01_true_airplane_35_n02690373_9531.png
subject-01,1,388,0.969954013824463,bottle,bottle,true,0388_fc_s01_true_bottle_35_n04591713_5518.png
subject-01,1,389,0.865766048431396,airplane,airplane,false,0389_fc_s01_false_airplane_35_n02690373_12896.png
subject-01,1,390,1.19952297210693,truck,truck,false,0390_fc_s01_false_truck_35_n03796401_124.png
subject-01,1,391,0.979361057281494,bicycle,bicycle,true,0391_fc_s01_true_bicycle_35_n03792782_7050.png
subject-01,1,392,0.855406045913696,bicycle,bicycle,true,0392_fc_s01_true_bicycle_35_n02835271_13729.png
subject-01,1,393,0.899249076843262,bird,bird,false,0393_fc_s01_false_bird_35_n02027492_3922.png
subject-01,1,394,NaN,na,elephant,true,0394_fc_s01_true_elephant_35_n02504013_9809.png
subject-01,1,395,0.942636013031006,keyboard,keyboard,false,0395_fc_s01_false_keyboard_35_n04505470_5086.png
subject-01,1,396,0.884462118148804,keyboard,keyboard,true,0396_fc_s01_true_keyboard_35_n03085013_19439.png
subject-01,1,397,1.16426205635071,airplane,airplane,false,0397_fc_s01_false_airplane_35_n02690373_9926.png
subject-01,1,398,1.01614904403687,elephant,elephant,true,0398_fc_s01_true_elephant_35_n02504458_3197.png
subject-01,1,399,1.08986687660217,dog,dog,false,0399_fc_s01_false_dog_35_n02110185_14056.png
subject-01,1,400,0.805599927902222,airplane,airplane,true,0400_fc_s01_true_airplane_35_n02690373_2823.png
subject-01,1,401,0.898437023162842,bicycle,bicycle,false,0401_fc_s01_false_bicycle_35_n02835271_14157.png
subject-01,1,402,0.730231046676636,chair,chair,true,0402_fc_s01_true_chair_35_n03376595_606.png
subject-01,1,403,0.677989959716797,airplane,airplane,false,0403_fc_s01_false_airplane_35_n02690373_1442.png
subject-01,1,404,0.851983070373535,keyboard,keyboard,true,0404_fc_s01_true_keyboard_35_n04505470_10035.png
subject-01,1,405,0.738028049468994,bear,bear,true,0405_fc_s01_true_bear_35_n02133161_13278.png
subject-01,1,406,0.941334009170532,cat,bear,true,0406_fc_s01_true_bear_35_n02134418_2657.png
subject-01,1,407,0.631381034851074,bear,bear,false,0407_fc_s01_false_bear_35_n02133161_12894.png
subject-01,1,408,0.597286939620972,clock,clock,false,0408_fc_s01_false_clock_35_n03196217_6195.png
subject-01,1,409,0.764714002609253,bottle,bottle,true,0409_fc_s01_true_bottle_35_n04591713_13349.png
subject-01,1,410,0.800555944442749,boat,boat,false,0410_fc_s01_false_boat_35_n04273569_16295.png
subject-01,1,411,0.928403854370117,elephant,elephant,false,0411_fc_s01_false_elephant_35_n02504013_2672.png
subject-01,1,412,0.750249147415161,bear,bear,true,0412_fc_s01_true_bear_35_n02134084_22292.png
subject-01,1,413,0.769982099533081,airplane,airplane,false,0413_fc_s01_false_airplane_35_n02690373_997.png
subject-01,1,414,0.90582013130188,knife,knife,true,0414_fc_s01_true_knife_35_n03041632_29337.png
subject-01,1,415,0.899675130844116,elephant,elephant,true,0415_fc_s01_true_elephant_35_n02504458_3261.png
subject-01,1,416,0.959582090377808,clock,oven,true,0416_fc_s01_true_oven_35_n04111531_22120.png
subject-01,1,417,0.823237895965576,bear,bear,true,0417_fc_s01_true_bear_35_n02134418_830.png
subject-01,1,418,1.12311697006226,truck,truck,false,0418_fc_s01_false_truck_35_n03417042_2124.png
subject-01,1,419,1.36895990371704,bicycle,bicycle,false,0419_fc_s01_false_bicycle_35_n02835271_14585.png
subject-01,1,420,1.10920596122742,oven,oven,true,0420_fc_s01_true_oven_35_n04111531_2855.png
subject-01,1,421,0.788489103317261,cat,cat,false,0421_fc_s01_false_cat_35_n02123394_4383.png
subject-01,1,422,0.738373994827271,cat,cat,true,0422_fc_s01_true_cat_35_n02125311_17068.png
subject-01,1,423,0.894430875778198,bird,bird,false,0423_fc_s01_false_bird_35_n01560419_2291.png
subject-01,1,424,0.999904155731201,bird,bird,false,0424_fc_s01_false_bird_35_n01829413_2459.png
subject-01,1,425,0.917938947677612,oven,oven,true,0425_fc_s01_true_oven_35_n04111531_13822.png
subject-01,1,426,0.733664989471436,bear,bear,false,0426_fc_s01_false_bear_35_n02133161_5067.png
subject-01,1,427,0.845655918121338,chair,chair,false,0427_fc_s01_false_chair_35_n02791124_885.png
subject-01,1,428,1.12523293495178,dog,dog,true,0428_fc_s01_true_dog_35_n02107312_7182.png
subject-01,1,429,0.977120161056519,truck,truck,true,0429_fc_s01_true_truck_35_n04467665_13989.png
subject-01,1,430,0.970951080322266,dog,dog,true,0430_fc_s01_true_dog_35_n02102480_10232.png
subject-01,1,431,0.708885908126831,oven,oven,false,0431_fc_s01_false_oven_35_n04111531_643.png
subject-01,1,432,0.650568962097168,boat,boat,true,0432_fc_s01_true_boat_35_n02951358_31514.png
subject-01,1,433,0.668210983276367,oven,oven,true,0433_fc_s01_true_oven_35_n04111531_1898.png
subject-01,1,434,0.844157934188843,car,car,true,0434_fc_s01_true_car_35_n03100240_5865.png
subject-01,1,435,0.847980976104736,keyboard,keyboard,true,0435_fc_s01_true_keyboard_35_n04505470_4369.png
subject-01,1,436,0.899740934371948,cat,cat,false,0436_fc_s01_false_cat_35_n02123394_1942.png
subject-01,1,437,1.02755618095398,car,car,true,0437_fc_s01_true_car_35_n04285008_2900.png
subject-01,1,438,0.755254983901978,airplane,airplane,true,0438_fc_s01_true_airplane_35_n02690373_10926.png
subject-01,1,439,1.01712012290955,knife,knife,true,0439_fc_s01_true_knife_35_n03041632_11613.png
subject-01,1,440,1.00508809089661,knife,knife,true,0440_fc_s01_true_knife_35_n03041632_24817.png
subject-01,1,441,0.832704067230225,bicycle,bicycle,true,0441_fc_s01_true_bicycle_35_n02835271_3042.png
subject-01,1,442,0.876867055892944,dog,dog,true,0442_fc_s01_true_dog_35_n02102177_7737.png
subject-01,1,443,0.752364158630371,oven,oven,true,0443_fc_s01_true_oven_35_n04111531_21460.png
subject-01,1,444,0.892410039901733,keyboard,keyboard,false,0444_fc_s01_false_keyboard_35_n04505470_7388.png
subject-01,1,445,0.948230981826782,bird,bird,true,0445_fc_s01_true_bird_35_n01828970_25642.png
subject-01,1,446,0.889729976654053,bicycle,bicycle,false,0446_fc_s01_false_bicycle_35_n02835271_608.png
subject-01,1,447,0.745684862136841,boat,boat,true,0447_fc_s01_true_boat_35_n04273569_26182.png
subject-01,1,448,0.877494096755981,cat,cat,false,0448_fc_s01_false_cat_35_n02123045_9384.png
subject-01,1,449,0.849236965179443,airplane,airplane,true,0449_fc_s01_true_airplane_35_n02690373_9529.png
subject-01,1,450,0.772986173629761,cat,cat,true,0450_fc_s01_true_cat_35_n02123597_5081.png
subject-01,1,451,0.744852066040039,oven,oven,false,0451_fc_s01_false_oven_35_n04111531_4998.png
subject-01,1,452,0.68667197227478,clock,clock,true,0452_fc_s01_true_clock_35_n04548280_1245.png
subject-01,1,453,0.838966846466064,cat,dog,true,0453_fc_s01_true_dog_35_n02104365_8609.png
subject-01,1,454,0.592330932617188,clock,clock,false,0454_fc_s01_false_clock_35_n02708093_6414.png
subject-01,1,455,0.878229856491089,bird,bird,true,0455_fc_s01_true_bird_35_n01798484_9155.png
subject-01,1,456,0.958017110824585,bicycle,oven,true,0456_fc_s01_true_oven_35_n04111531_10724.png
subject-01,1,457,0.765697956085205,boat,boat,true,0457_fc_s01_true_boat_35_n02951358_32687.png
subject-01,1,458,0.731549978256226,bicycle,bicycle,true,0458_fc_s01_true_bicycle_35_n02835271_31.png
subject-01,1,459,0.71944785118103,bottle,bottle,true,0459_fc_s01_true_bottle_35_n04557648_4420.png
subject-01,1,460,0.893240928649902,bear,bear,true,0460_fc_s01_true_bear_35_n02133161_713.png
subject-01,1,461,0.732858896255493,airplane,airplane,false,0461_fc_s01_false_airplane_35_n02690373_5967.png
subject-01,1,462,0.906970024108887,bird,bird,true,0462_fc_s01_true_bird_35_n01795545_4502.png
subject-01,1,463,0.808658838272095,cat,cat,true,0463_fc_s01_true_cat_35_n02124075_11466.png
subject-01,1,464,0.918334007263184,keyboard,keyboard,true,0464_fc_s01_true_keyboard_35_n03085013_21769.png
subject-01,1,465,0.820380926132202,car,car,false,0465_fc_s01_false_car_35_n03100240_15097.png
subject-01,1,466,1.04214692115784,bear,dog,false,0466_fc_s01_false_dog_35_n02093647_3072.png
subject-01,1,467,0.840266942977905,bicycle,bicycle,false,0467_fc_s01_false_bicycle_35_n02835271_12701.png
subject-01,1,468,0.913777828216553,bear,bear,false,0468_fc_s01_false_bear_35_n02134084_3227.png
subject-01,1,469,0.749494791030884,cat,cat,true,0469_fc_s01_true_cat_35_n02123394_5001.png
subject-01,1,470,0.737492084503174,keyboard,keyboard,true,0470_fc_s01_true_keyboard_35_n03085013_6862.png
subject-01,1,471,0.781100034713745,chair,chair,true,0471_fc_s01_true_chair_35_n04099969_45461.png
subject-01,1,472,0.68901801109314,bicycle,bicycle,false,0472_fc_s01_false_bicycle_35_n03792782_485.png
subject-01,1,473,1.29505300521851,truck,oven,true,0473_fc_s01_true_oven_35_n04111531_1674.png
subject-01,1,474,0.702424049377441,airplane,airplane,true,0474_fc_s01_true_airplane_35_n02690373_866.png
subject-01,1,475,0.674437046051025,oven,oven,false,0475_fc_s01_false_oven_35_n04111531_9297.png
subject-01,1,476,0.740193843841553,elephant,elephant,false,0476_fc_s01_false_elephant_35_n02504458_6878.png
subject-01,1,477,0.884379863739014,car,car,true,0477_fc_s01_true_car_35_n03100240_3151.png
subject-01,1,478,0.705674886703491,airplane,airplane,false,0478_fc_s01_false_airplane_35_n02690373_6363.png
subject-01,1,479,0.755688190460205,car,car,true,0479_fc_s01_true_car_35_n04285008_15049.png
subject-01,1,480,0.913388967514038,truck,truck,true,0480_fc_s01_true_truck_35_n04467665_2505.png
subject-01,1,481,0.911966800689697,knife,bottle,true,0481_fc_s01_true_bottle_35_n04591713_4030.png
subject-01,1,482,0.68970799446106,oven,oven,true,0482_fc_s01_true_oven_35_n04111531_12929.png
subject-01,1,483,0.737535953521729,cat,cat,true,0483_fc_s01_true_cat_35_n02125311_53315.png
subject-01,1,484,0.817347049713135,dog,dog,true,0484_fc_s01_true_dog_35_n02087046_4409.png
subject-01,1,485,0.689342021942139,oven,oven,false,0485_fc_s01_false_oven_35_n04111531_21120.png
subject-01,1,486,0.881304025650024,bicycle,elephant,false,0486_fc_s01_false_elephant_35_n02504013_5934.png
subject-01,1,487,0.930756807327271,car,car,true,0487_fc_s01_true_car_35_n04285008_3631.png
subject-01,1,488,0.636785984039307,clock,clock,true,0488_fc_s01_true_clock_35_n03196217_7663.png
subject-01,1,489,0.840373992919922,bicycle,bicycle,false,0489_fc_s01_false_bicycle_35_n03792782_801.png
subject-01,1,490,0.76412296295166,bear,bear,false,0490_fc_s01_false_bear_35_n02133161_6983.png
subject-01,1,491,0.686011075973511,keyboard,keyboard,true,0491_fc_s01_true_keyboard_35_n03085013_20825.png
subject-01,1,492,1.04166793823242,oven,clock,true,0492_fc_s01_true_clock_35_n03196217_1219.png
subject-01,1,493,0.701665878295898,airplane,airplane,true,0493_fc_s01_true_airplane_35_n02690373_18864.png
subject-01,1,494,1.45553112030029,airplane,airplane,false,0494_fc_s01_false_airplane_35_n02690373_1019.png
subject-01,1,495,0.829293012619019,bird,bird,true,0495_fc_s01_true_bird_35_n02013706_10478.png
subject-01,1,496,0.82923412322998,bear,bear,true,0496_fc_s01_true_bear_35_n02132136_258.png
subject-01,1,497,1.50005507469177,bear,chair,false,0497_fc_s01_false_chair_35_n04099969_16350.png
subject-01,1,498,0.928515911102295,chair,chair,true,0498_fc_s01_true_chair_35_n04099969_16456.png
subject-01,1,499,1.00239300727844,bird,bottle,false,0499_fc_s01_false_bottle_35_n03983396_12027.png
subject-01,1,500,0.756349086761475,chair,chair,true,0500_fc_s01_true_chair_35_n02791124_5438.png
subject-01,1,501,0.874449968338013,elephant,elephant,true,0501_fc_s01_true_elephant_35_n02504458_4939.png
subject-01,1,502,0.767868041992188,keyboard,keyboard,false,0502_fc_s01_false_keyboard_35_n04505470_2600.png
subject-01,1,503,0.873691082000732,chair,chair,true,0503_fc_s01_true_chair_35_n03376595_7394.png
subject-01,1,504,0.733587026596069,bicycle,bicycle,false,0504_fc_s01_false_bicycle_35_n02835271_9772.png
subject-01,1,505,0.815346956253052,car,car,true,0505_fc_s01_true_car_35_n02814533_55937.png
subject-01,1,506,NaN,na,airplane,true,0506_fc_s01_true_airplane_35_n02690373_3920.png
subject-01,1,507,0.957149028778076,bear,oven,false,0507_fc_s01_false_oven_35_n04111531_6400.png
subject-01,1,508,1.03073906898499,truck,truck,false,0508_fc_s01_false_truck_35_n03417042_4587.png
subject-01,1,509,0.912622928619385,knife,knife,true,0509_fc_s01_true_knife_35_n03041632_31849.png
subject-01,1,510,0.726392030715942,cat,cat,true,0510_fc_s01_true_cat_35_n02125311_8541.png
subject-01,1,511,0.674232959747314,airplane,airplane,true,0511_fc_s01_true_airplane_35_n02690373_2162.png
subject-01,1,512,0.890038013458252,dog,dog,true,0512_fc_s01_true_dog_35_n02108551_11297.png
subject-01,1,513,0.739985942840576,car,car,true,0513_fc_s01_true_car_35_n02814533_34396.png
subject-01,1,514,0.977660894393921,elephant,elephant,true,0514_fc_s01_true_elephant_35_n02504013_6431.png
subject-01,1,515,0.88780403137207,bicycle,bicycle,false,0515_fc_s01_false_bicycle_35_n03792782_51723.png
subject-01,1,516,0.86931300163269,dog,dog,false,0516_fc_s01_false_dog_35_n02093754_5867.png
subject-01,1,517,0.77908992767334,chair,clock,true,0517_fc_s01_true_clock_35_n04548280_3245.png
subject-01,1,518,0.756767988204956,airplane,airplane,true,0518_fc_s01_true_airplane_35_n02690373_9762.png
subject-01,1,519,0.882629871368408,bird,bird,true,0519_fc_s01_true_bird_35_n02002724_2909.png
subject-01,1,520,1.12041211128235,bottle,bottle,true,0520_fc_s01_true_bottle_35_n04557648_10123.png
subject-01,1,521,0.800251007080078,elephant,elephant,true,0521_fc_s01_true_elephant_35_n02504013_5432.png
subject-01,1,522,0.898185968399048,cat,cat,false,0522_fc_s01_false_cat_35_n02123597_4998.png
subject-01,1,523,0.733844041824341,bottle,bottle,true,0523_fc_s01_true_bottle_35_n04557648_11594.png
subject-01,1,524,1.33209991455078,oven,clock,false,0524_fc_s01_false_clock_35_n03196217_2567.png
subject-01,1,525,1.50004911422729,oven,truck,false,0525_fc_s01_false_truck_35_n03796401_9136.png
subject-01,1,526,0.5673508644104,boat,boat,false,0526_fc_s01_false_boat_35_n03344393_8492.png
subject-01,1,527,0.641139984130859,cat,cat,false,0527_fc_s01_false_cat_35_n02123159_8267.png
subject-01,1,528,0.785323858261108,bottle,bottle,false,0528_fc_s01_false_bottle_35_n04557648_12039.png
subject-01,1,529,0.772880077362061,keyboard,keyboard,false,0529_fc_s01_false_keyboard_35_n04505470_2828.png
subject-01,1,530,0.712604999542236,boat,boat,true,0530_fc_s01_true_boat_35_n02951358_31198.png
subject-01,1,531,0.6825110912323,oven,oven,false,0531_fc_s01_false_oven_35_n04111531_5801.png
subject-01,1,532,0.7726891040802,bicycle,bicycle,false,0532_fc_s01_false_bicycle_35_n02835271_9672.png
subject-01,1,533,1.19811081886292,clock,keyboard,false,0533_fc_s01_false_keyboard_35_n03085013_23865.png
subject-01,1,534,0.939799785614014,bottle,bottle,true,0534_fc_s01_true_bottle_35_n04591713_7133.png
subject-01,1,535,0.975663900375366,car,car,true,0535_fc_s01_true_car_35_n04285008_10006.png
subject-01,1,536,0.831475019454956,airplane,airplane,true,0536_fc_s01_true_airplane_35_n02690373_2431.png
subject-01,1,537,0.667299032211304,boat,boat,true,0537_fc_s01_true_boat_35_n04612504_15440.png
subject-01,1,538,0.757487058639526,bicycle,bicycle,true,0538_fc_s01_true_bicycle_35_n02835271_5648.png
subject-01,1,539,0.854832887649536,airplane,airplane,false,0539_fc_s01_false_airplane_35_n02690373_3173.png
subject-01,1,540,0.722853183746338,oven,oven,false,0540_fc_s01_false_oven_35_n04111531_82.png
subject-01,1,541,0.882500886917114,chair,chair,false,0541_fc_s01_false_chair_35_n02791124_2057.png
subject-01,1,542,0.84443211555481,elephant,elephant,true,0542_fc_s01_true_elephant_35_n02504458_12175.png
subject-01,1,543,0.786184787750244,boat,boat,false,0543_fc_s01_false_boat_35_n03344393_6869.png
subject-01,1,544,0.826329946517944,truck,truck,false,0544_fc_s01_false_truck_35_n03417042_1000.png
subject-01,1,545,0.769826889038086,boat,boat,true,0545_fc_s01_true_boat_35_n03344393_6890.png
subject-01,1,546,0.827682971954346,elephant,elephant,false,0546_fc_s01_false_elephant_35_n02504458_4139.png
subject-01,1,547,0.723402976989746,bear,bear,false,0547_fc_s01_false_bear_35_n02132136_7231.png
subject-01,1,548,0.893229961395264,bird,bird,false,0548_fc_s01_false_bird_35_n01860187_1815.png
subject-01,1,549,0.724951028823853,keyboard,keyboard,true,0549_fc_s01_true_keyboard_35_n03085013_18891.png
subject-01,1,550,0.736886024475098,bird,bird,false,0550_fc_s01_false_bird_35_n01828970_2276.png
subject-01,1,551,0.776717901229858,elephant,elephant,false,0551_fc_s01_false_elephant_35_n02504013_1720.png
subject-01,1,552,0.780565977096558,knife,knife,false,0552_fc_s01_false_knife_35_n03041632_16104.png
subject-01,1,553,0.752257108688354,chair,chair,false,0553_fc_s01_false_chair_35_n03376595_635.png
subject-01,1,554,0.972000122070312,bottle,bottle,true,0554_fc_s01_true_bottle_35_n03983396_6116.png
subject-01,1,555,1.1637499332428,dog,dog,true,0555_fc_s01_true_dog_35_n02113624_2530.png
subject-01,1,556,0.939677953720093,bird,bird,true,0556_fc_s01_true_bird_35_n01592084_3972.png
subject-01,1,557,0.747576951980591,boat,airplane,true,0557_fc_s01_true_airplane_35_n02690373_5130.png
subject-01,1,558,0.943220138549805,bird,bird,true,0558_fc_s01_true_bird_35_n01833805_7514.png
subject-01,1,559,0.89720606803894,truck,truck,false,0559_fc_s01_false_truck_35_n03417042_16238.png
subject-01,1,560,0.818889141082764,bottle,keyboard,true,0560_fc_s01_true_keyboard_35_n04505470_8620.png
subject-01,1,561,0.629682064056396,clock,clock,true,0561_fc_s01_true_clock_35_n03196217_7888.png
subject-01,1,562,0.873515844345093,chair,bottle,true,0562_fc_s01_true_bottle_35_n04591713_5411.png
subject-01,1,563,0.749419927597046,clock,clock,false,0563_fc_s01_false_clock_35_n03196217_2639.png
subject-01,1,564,0.947477102279663,bear,elephant,true,0564_fc_s01_true_elephant_35_n02504458_6437.png
subject-01,1,565,0.932862997055054,truck,truck,true,0565_fc_s01_true_truck_35_n03417042_27586.png
subject-01,1,566,0.716830015182495,cat,keyboard,false,0566_fc_s01_false_keyboard_35_n03085013_24124.png
subject-01,1,567,0.742754936218262,cat,cat,false,0567_fc_s01_false_cat_35_n02123597_9663.png
subject-01,1,568,0.926755905151367,keyboard,keyboard,true,0568_fc_s01_true_keyboard_35_n04505470_1833.png
subject-01,1,569,1.0444278717041,car,car,true,0569_fc_s01_true_car_35_n04285008_4109.png
subject-01,1,570,0.844329833984375,bird,bird,false,0570_fc_s01_false_bird_35_n01558993_869.png
subject-01,1,571,1.0318660736084,truck,truck,true,0571_fc_s01_true_truck_35_n03796401_6980.png
subject-01,1,572,1.04803991317749,truck,truck,true,0572_fc_s01_true_truck_35_n03796401_19058.png
subject-01,1,573,1.00182890892029,bird,bear,false,0573_fc_s01_false_bear_35_n02134418_5033.png
subject-01,1,574,0.785596132278442,truck,truck,false,0574_fc_s01_false_truck_35_n03417042_6204.png
subject-01,1,575,0.919119834899902,bicycle,bicycle,true,0575_fc_s01_true_bicycle_35_n03792782_7388.png
subject-01,1,576,0.947036981582642,truck,truck,true,0576_fc_s01_true_truck_35_n03417042_1561.png
subject-01,1,577,0.755094051361084,elephant,elephant,true,0577_fc_s01_true_elephant_35_n02504458_5501.png
subject-01,1,578,0.636626958847046,boat,boat,true,0578_fc_s01_true_boat_35_n03662601_34124.png
subject-01,1,579,1.04624390602112,knife,knife,false,0579_fc_s01_false_knife_35_n03041632_37949.png
subject-01,1,580,0.682509899139404,airplane,airplane,false,0580_fc_s01_false_airplane_35_n02690373_13585.png
subject-01,1,581,0.908270120620728,knife,knife,false,0581_fc_s01_false_knife_35_n03041632_16932.png
subject-01,1,582,1.23991990089417,chair,chair,false,0582_fc_s01_false_chair_35_n04429376_9501.png
subject-01,1,583,0.835790872573853,bird,bird,false,0583_fc_s01_false_bird_35_n01532829_10530.png
subject-01,1,584,0.631691932678223,oven,oven,false,0584_fc_s01_false_oven_35_n04111531_1562.png
subject-01,1,585,1.17313599586487,car,clock,false,0585_fc_s01_false_clock_35_n02708093_260.png
subject-01,1,586,0.86709189414978,bottle,bottle,true,0586_fc_s01_true_bottle_35_n04579145_1457.png
subject-01,1,587,0.822874069213867,chair,chair,true,0587_fc_s01_true_chair_35_n03376595_9897.png
subject-01,1,588,0.934762001037598,bird,bird,true,0588_fc_s01_true_bird_35_n01601694_4224.png
subject-01,1,589,0.758430957794189,cat,cat,false,0589_fc_s01_false_cat_35_n02123159_358.png
subject-01,1,590,0.814181089401245,bottle,bottle,true,0590_fc_s01_true_bottle_35_n03983396_11788.png
subject-01,1,591,0.802015066146851,cat,cat,true,0591_fc_s01_true_cat_35_n02124075_8341.png
subject-01,1,592,0.989978790283203,dog,dog,false,0592_fc_s01_false_dog_35_n02109525_49924.png
subject-01,1,593,0.897621870040894,oven,oven,false,0593_fc_s01_false_oven_35_n04111531_797.png
subject-01,1,594,0.791775941848755,bicycle,bicycle,true,0594_fc_s01_true_bicycle_35_n02835271_15930.png
subject-01,1,595,1.04962396621704,knife,knife,true,0595_fc_s01_true_knife_35_n03041632_13656.png
subject-01,1,596,0.685127019882202,clock,clock,false,0596_fc_s01_false_clock_35_n02708093_8104.png
subject-01,1,597,1.00095796585083,truck,truck,true,0597_fc_s01_true_truck_35_n03796401_3148.png
subject-01,1,598,1.06065487861633,chair,bottle,false,0598_fc_s01_false_bottle_35_n04560804_15263.png
subject-01,1,599,0.988469839096069,airplane,airplane,true,0599_fc_s01_true_airplane_35_n02690373_5003.png
subject-01,1,600,0.734371900558472,boat,boat,false,0600_fc_s01_false_boat_35_n03344393_994.png
subject-01,1,601,0.698209047317505,bicycle,bicycle,true,0601_fc_s01_true_bicycle_35_n03792782_5959.png
subject-01,1,602,0.707927942276001,car,car,false,0602_fc_s01_false_car_35_n04285008_9383.png
subject-01,1,603,0.929966926574707,clock,clock,true,0603_fc_s01_true_clock_35_n03196217_5627.png
subject-01,1,604,0.783956050872803,bird,bird,true,0604_fc_s01_true_bird_35_n01534433_13846.png
subject-01,1,605,0.823519945144653,cat,dog,true,0605_fc_s01_true_dog_35_n02105056_11269.png
subject-01,1,606,1.27337789535522,clock,airplane,false,0606_fc_s01_false_airplane_35_n02690373_9659.png
subject-01,1,607,0.708973169326782,boat,car,false,0607_fc_s01_false_car_35_n04285008_3269.png
subject-01,1,608,0.810909032821655,bottle,bottle,true,0608_fc_s01_true_bottle_35_n02823428_3178.png
subject-01,1,609,0.912868022918701,elephant,elephant,false,0609_fc_s01_false_elephant_35_n02504458_4849.png
subject-01,1,610,0.792396068572998,bear,bear,true,0610_fc_s01_true_bear_35_n02134418_643.png
subject-01,1,611,0.608621835708618,boat,boat,true,0611_fc_s01_true_boat_35_n03344393_7773.png
subject-01,1,612,0.822091102600098,car,car,true,0612_fc_s01_true_car_35_n02814533_26516.png
subject-01,1,613,0.724004983901978,cat,cat,false,0613_fc_s01_false_cat_35_n02123597_3314.png
subject-01,1,614,0.897725820541382,chair,bicycle,true,0614_fc_s01_true_bicycle_35_n02835271_6539.png
subject-01,1,615,0.823582887649536,bear,bear,true,0615_fc_s01_true_bear_35_n02132136_3090.png
subject-01,1,616,0.927312135696411,car,car,true,0616_fc_s01_true_car_35_n03100240_9171.png
subject-01,1,617,0.747138977050781,cat,cat,false,0617_fc_s01_false_cat_35_n02123045_12060.png
subject-01,1,618,0.807120084762573,truck,truck,false,0618_fc_s01_false_truck_35_n03796401_26801.png
subject-01,1,619,0.639169931411743,cat,cat,false,0619_fc_s01_false_cat_35_n02123045_15010.png
subject-01,1,620,0.842855930328369,knife,knife,true,0620_fc_s01_true_knife_35_n03041632_24883.png
subject-01,1,621,0.596366882324219,cat,cat,true,0621_fc_s01_true_cat_35_n02123597_4040.png
subject-01,1,622,0.880400896072388,bird,bird,true,0622_fc_s01_true_bird_35_n01843383_3019.png
subject-01,1,623,0.692047119140625,bear,bear,true,0623_fc_s01_true_bear_35_n02132136_8619.png
subject-01,1,624,0.781828880310059,boat,airplane,false,0624_fc_s01_false_airplane_35_n02690373_1912.png
subject-01,1,625,0.827589988708496,truck,truck,true,0625_fc_s01_true_truck_35_n03417042_22828.png
subject-01,1,626,0.957422971725464,car,car,true,0626_fc_s01_true_car_35_n03100240_2909.png
subject-01,1,627,0.757253170013428,oven,oven,true,0627_fc_s01_true_oven_35_n04111531_22563.png
subject-01,1,628,0.843172788619995,car,truck,false,0628_fc_s01_false_truck_35_n03796401_18074.png
subject-01,1,629,0.76925802230835,cat,cat,true,0629_fc_s01_true_cat_35_n02123159_3092.png
subject-01,1,630,0.764657974243164,bird,bird,false,0630_fc_s01_false_bird_35_n02009912_5983.png
subject-01,1,631,0.860756158828735,keyboard,keyboard,true,0631_fc_s01_true_keyboard_35_n03085013_19916.png
subject-01,1,632,1.13413000106812,bottle,bottle,false,0632_fc_s01_false_bottle_35_n04591713_4035.png
subject-01,1,633,0.826213121414185,chair,chair,false,0633_fc_s01_false_chair_35_n04099969_6189.png
subject-01,1,634,0.715878009796143,oven,oven,true,0634_fc_s01_true_oven_35_n04111531_7064.png
subject-01,1,635,0.617758989334106,boat,boat,false,0635_fc_s01_false_boat_35_n03344393_595.png
subject-01,1,636,0.957509994506836,elephant,elephant,true,0636_fc_s01_true_elephant_35_n02504458_3099.png
subject-01,1,637,0.841268062591553,chair,chair,false,0637_fc_s01_false_chair_35_n04429376_19617.png
subject-01,1,638,0.73953104019165,knife,knife,false,0638_fc_s01_false_knife_35_n03041632_51766.png
subject-01,1,639,0.741369962692261,bear,bear,true,0639_fc_s01_true_bear_35_n02133161_1571.png
subject-01,1,640,0.814783096313477,bear,bear,false,0640_fc_s01_false_bear_35_n02132136_8525.png
subject-01,1,641,0.77910304069519,bird,bird,true,0641_fc_s01_true_bird_35_n01560419_9124.png
subject-01,1,642,0.77874493598938,car,car,false,0642_fc_s01_false_car_35_n02814533_2555.png
subject-01,1,643,0.670608997344971,cat,cat,false,0643_fc_s01_false_cat_35_n02125311_31100.png
subject-01,1,644,0.698567152023315,car,car,true,0644_fc_s01_true_car_35_n02814533_46508.png
subject-01,1,645,0.83227801322937,bicycle,bicycle,true,0645_fc_s01_true_bicycle_35_n03792782_51156.png
subject-01,1,646,0.970092058181763,elephant,elephant,false,0646_fc_s01_false_elephant_35_n02504013_637.png
subject-01,1,647,0.693807125091553,clock,clock,false,0647_fc_s01_false_clock_35_n04548280_7321.png
subject-01,1,648,0.763589859008789,airplane,airplane,true,0648_fc_s01_true_airplane_35_n02690373_2447.png
subject-01,1,649,0.837618827819824,elephant,elephant,false,0649_fc_s01_false_elephant_35_n02504458_477.png
subject-01,1,650,1.2633581161499,chair,bottle,false,0650_fc_s01_false_bottle_35_n04557648_2063.png
subject-01,1,651,0.888962030410767,chair,chair,true,0651_fc_s01_true_chair_35_n04099969_14155.png
subject-01,1,652,0.942754030227661,bird,bear,false,0652_fc_s01_false_bear_35_n02134084_21407.png
subject-01,1,653,0.65856409072876,boat,boat,false,0653_fc_s01_false_boat_35_n03662601_4418.png
subject-01,1,654,0.866775989532471,car,car,true,0654_fc_s01_true_car_35_n03100240_9497.png
subject-01,1,655,0.690418004989624,airplane,airplane,false,0655_fc_s01_false_airplane_35_n02690373_4199.png
subject-01,1,656,0.668242931365967,boat,boat,false,0656_fc_s01_false_boat_35_n03662601_4612.png
subject-01,1,657,0.847907066345215,bicycle,bicycle,true,0657_fc_s01_true_bicycle_35_n02835271_9531.png
subject-01,1,658,0.873924016952515,bird,bird,false,0658_fc_s01_false_bird_35_n02037110_21381.png
subject-01,1,659,0.96152400970459,bottle,bottle,false,0659_fc_s01_false_bottle_35_n04560804_6576.png
subject-01,1,660,0.863493919372559,bottle,bottle,false,0660_fc_s01_false_bottle_35_n02823428_4358.png
subject-01,1,661,0.989148855209351,oven,bottle,false,0661_fc_s01_false_bottle_35_n04579145_961.png
subject-01,1,662,0.79538106918335,car,car,true,0662_fc_s01_true_car_35_n02814533_58462.png
subject-01,1,663,1.20481896400452,bird,bird,false,0663_fc_s01_false_bird_35_n01796340_4643.png
subject-01,1,664,1.2145631313324,dog,dog,false,0664_fc_s01_false_dog_35_n02091134_7695.png
subject-01,1,665,1.1082911491394,dog,dog,false,0665_fc_s01_false_dog_35_n02097209_1133.png
subject-01,1,666,0.858242034912109,elephant,elephant,true,0666_fc_s01_true_elephant_35_n02504458_4861.png
subject-01,1,667,1.17245483398438,dog,dog,false,0667_fc_s01_false_dog_35_n02110806_3673.png
subject-01,1,668,0.830407857894897,car,car,false,0668_fc_s01_false_car_35_n04285008_863.png
subject-01,1,669,0.781713008880615,bicycle,bicycle,false,0669_fc_s01_false_bicycle_35_n03792782_52427.png
subject-01,1,670,0.793884038925171,keyboard,keyboard,true,0670_fc_s01_true_keyboard_35_n03085013_22796.png
subject-01,1,671,0.773599863052368,bottle,bottle,false,0671_fc_s01_false_bottle_35_n03983396_22979.png
subject-01,1,672,0.941137075424194,dog,dog,true,0672_fc_s01_true_dog_35_n02109047_4167.png
subject-01,1,673,0.883129119873047,bottle,bottle,true,0673_fc_s01_true_bottle_35_n04560804_15843.png
subject-01,1,674,1.10497713088989,airplane,airplane,true,0674_fc_s01_true_airplane_35_n02690373_3383.png
subject-01,1,675,0.912448167800903,truck,truck,true,0675_fc_s01_true_truck_35_n03796401_7380.png
subject-01,1,676,0.966423988342285,clock,clock,true,0676_fc_s01_true_clock_35_n03196217_11054.png
subject-01,1,677,0.75822901725769,airplane,airplane,true,0677_fc_s01_true_airplane_35_n02690373_599.png
subject-01,1,678,0.711902141571045,chair,chair,true,0678_fc_s01_true_chair_35_n04429376_2693.png
subject-01,1,679,0.671908855438232,clock,clock,false,0679_fc_s01_false_clock_35_n02708093_5265.png
subject-01,1,680,0.907701969146729,knife,knife,true,0680_fc_s01_true_knife_35_n03041632_48149.png
subject-01,1,681,1.07546806335449,dog,dog,true,0681_fc_s01_true_dog_35_n02096585_9543.png
subject-01,1,682,0.617289066314697,boat,boat,false,0682_fc_s01_false_boat_35_n04612504_20927.png
subject-01,1,683,0.887057065963745,oven,oven,false,0683_fc_s01_false_oven_35_n04111531_2150.png
subject-01,1,684,0.764802932739258,bird,bird,false,0684_fc_s01_false_bird_35_n01797886_12436.png
subject-01,1,685,0.808624982833862,truck,truck,false,0685_fc_s01_false_truck_35_n04467665_197.png
subject-01,1,686,0.74866795539856,chair,chair,false,0686_fc_s01_false_chair_35_n02791124_2091.png
subject-01,1,687,0.866260051727295,chair,chair,false,0687_fc_s01_false_chair_35_n03376595_1810.png
subject-01,1,688,0.910142183303833,keyboard,keyboard,false,0688_fc_s01_false_keyboard_35_n03085013_24439.png
subject-01,1,689,0.85798716545105,bottle,bottle,false,0689_fc_s01_false_bottle_35_n03983396_18753.png
subject-01,1,690,0.881939888000488,clock,clock,false,0690_fc_s01_false_clock_35_n02708093_2054.png
subject-01,1,691,0.73752498626709,bear,bear,true,0691_fc_s01_true_bear_35_n02132136_7872.png
subject-01,1,692,1.19339895248413,cat,elephant,true,0692_fc_s01_true_elephant_35_n02504458_5144.png
subject-01,1,693,0.843180894851685,oven,oven,false,0693_fc_s01_false_oven_35_n04111531_6500.png
subject-01,1,694,0.905374050140381,elephant,elephant,false,0694_fc_s01_false_elephant_35_n02504458_209.png
subject-01,1,695,0.688884973526001,oven,oven,true,0695_fc_s01_true_oven_35_n04111531_12769.png
subject-01,1,696,1.04464197158813,dog,dog,false,0696_fc_s01_false_dog_35_n02107574_3387.png
subject-01,1,697,0.680418968200684,airplane,airplane,true,0697_fc_s01_true_airplane_35_n02690373_4706.png
subject-01,1,698,0.888267040252686,dog,dog,false,0698_fc_s01_false_dog_35_n02096585_9834.png
subject-01,1,699,0.836087942123413,chair,chair,true,0699_fc_s01_true_chair_35_n04429376_29312.png
subject-01,1,700,1.08982610702515,elephant,elephant,false,0700_fc_s01_false_elephant_35_n02504013_5774.png
subject-01,1,701,0.795639991760254,elephant,elephant,true,0701_fc_s01_true_elephant_35_n02504458_5187.png
subject-01,1,702,0.705638885498047,oven,oven,true,0702_fc_s01_true_oven_35_n04111531_12820.png
subject-01,1,703,0.985237121582031,truck,truck,false,0703_fc_s01_false_truck_35_n04467665_11888.png
subject-01,1,704,0.85710597038269,truck,truck,true,0704_fc_s01_true_truck_35_n03796401_3434.png
subject-01,1,705,0.778937101364136,elephant,elephant,false,0705_fc_s01_false_elephant_35_n02504458_3491.png
subject-01,1,706,1.2129020690918,bear,bear,false,0706_fc_s01_false_bear_35_n02134084_4677.png
subject-01,1,707,0.730501890182495,cat,cat,false,0707_fc_s01_false_cat_35_n02125311_2401.png
subject-01,1,708,0.880262136459351,car,car,true,0708_fc_s01_true_car_35_n04285008_16701.png
subject-01,1,709,0.766104936599731,bear,bear,true,0709_fc_s01_true_bear_35_n02133161_10632.png
subject-01,1,710,0.903904914855957,bird,bird,true,0710_fc_s01_true_bird_35_n01592084_6081.png
subject-01,1,711,0.989903926849365,bottle,bottle,false,0711_fc_s01_false_bottle_35_n04560804_15832.png
subject-01,1,712,0.72563099861145,oven,oven,true,0712_fc_s01_true_oven_35_n04111531_11116.png
subject-01,1,713,0.611454010009766,boat,boat,false,0713_fc_s01_false_boat_35_n03662601_10811.png
subject-01,1,714,0.897590160369873,bottle,bottle,false,0714_fc_s01_false_bottle_35_n03937543_211.png
subject-01,1,715,0.665060997009277,boat,boat,false,0715_fc_s01_false_boat_35_n03344393_1595.png
subject-01,1,716,0.676859140396118,bicycle,bicycle,true,0716_fc_s01_true_bicycle_35_n02835271_10293.png
subject-01,1,717,1.11865496635437,bear,cat,false,0717_fc_s01_false_cat_35_n02123159_6170.png
subject-01,1,718,0.604562044143677,boat,boat,false,0718_fc_s01_false_boat_35_n03662601_12323.png
subject-01,1,719,0.700326919555664,oven,oven,true,0719_fc_s01_true_oven_35_n04111531_17809.png
subject-01,1,720,0.756042957305908,bear,bear,false,0720_fc_s01_false_bear_35_n02134084_6783.png
subject-01,1,721,0.911577939987183,airplane,airplane,false,0721_fc_s01_false_airplane_35_n02690373_2203.png
subject-01,1,722,0.727427005767822,knife,knife,false,0722_fc_s01_false_knife_35_n03041632_38610.png
subject-01,1,723,0.736719846725464,bicycle,bicycle,true,0723_fc_s01_true_bicycle_35_n03792782_634.png
subject-01,1,724,0.720956087112427,bicycle,bicycle,true,0724_fc_s01_true_bicycle_35_n03792782_47426.png
subject-01,1,725,0.798734903335571,bird,bird,false,0725_fc_s01_false_bird_35_n02013706_16546.png
subject-01,1,726,0.776163816452026,clock,clock,false,0726_fc_s01_false_clock_35_n02708093_616.png
subject-01,1,727,0.736130952835083,bear,bear,true,0727_fc_s01_true_bear_35_n02134418_9289.png
subject-01,1,728,0.671912908554077,boat,boat,false,0728_fc_s01_false_boat_35_n02951358_5118.png
subject-01,1,729,0.675577163696289,clock,clock,false,0729_fc_s01_false_clock_35_n04548280_2291.png
subject-01,1,730,0.839471817016602,bird,bird,true,0730_fc_s01_true_bird_35_n01833805_1104.png
subject-01,1,731,0.857602834701538,bird,bird,false,0731_fc_s01_false_bird_35_n01843383_12917.png
subject-01,1,732,1.38917398452759,knife,knife,true,0732_fc_s01_true_knife_35_n03041632_30286.png
subject-01,1,733,0.759052038192749,clock,clock,true,0733_fc_s01_true_clock_35_n04548280_12615.png
subject-01,1,734,1.02308201789856,oven,knife,true,0734_fc_s01_true_knife_35_n03041632_22190.png
subject-01,1,735,0.604641199111938,boat,boat,true,0735_fc_s01_true_boat_35_n04273569_11645.png
subject-01,1,736,0.942368984222412,keyboard,keyboard,false,0736_fc_s01_false_keyboard_35_n04505470_8148.png
subject-01,1,737,0.746100187301636,bird,bird,true,0737_fc_s01_true_bird_35_n02027492_4976.png
subject-01,1,738,1.0703399181366,oven,chair,true,0738_fc_s01_true_chair_35_n04429376_7181.png
subject-01,1,739,0.895940065383911,car,car,false,0739_fc_s01_false_car_35_n03100240_13908.png
subject-01,1,740,0.899619102478027,bear,elephant,true,0740_fc_s01_true_elephant_35_n02504013_3384.png
subject-01,1,741,0.895519971847534,knife,knife,false,0741_fc_s01_false_knife_35_n03041632_38535.png
subject-01,1,742,0.813544034957886,airplane,airplane,false,0742_fc_s01_false_airplane_35_n02690373_7375.png
subject-01,1,743,0.813117980957031,cat,cat,false,0743_fc_s01_false_cat_35_n02123394_8507.png
subject-01,1,744,0.988739013671875,oven,knife,true,0744_fc_s01_true_knife_35_n03041632_36390.png
subject-01,1,745,0.890552043914795,oven,oven,false,0745_fc_s01_false_oven_35_n04111531_11794.png
subject-01,1,746,0.724668979644775,cat,cat,true,0746_fc_s01_true_cat_35_n02123159_8144.png
subject-01,1,747,0.894220113754272,bird,bird,false,0747_fc_s01_false_bird_35_n01558993_11093.png
subject-01,1,748,1.02209401130676,chair,bicycle,false,0748_fc_s01_false_bicycle_35_n03792782_14966.png
subject-01,1,749,0.827965974807739,bear,bear,false,0749_fc_s01_false_bear_35_n02133161_3191.png
subject-01,1,750,0.829694986343384,car,car,true,0750_fc_s01_true_car_35_n02814533_56999.png
subject-01,1,751,0.72350001335144,bicycle,bicycle,false,0751_fc_s01_false_bicycle_35_n03792782_70169.png
subject-01,1,752,0.711403131484985,bottle,bottle,true,0752_fc_s01_true_bottle_35_n04557648_5458.png
subject-01,1,753,0.821288108825684,dog,dog,true,0753_fc_s01_true_dog_35_n02090379_4918.png
subject-01,1,754,0.612947940826416,bicycle,bicycle,false,0754_fc_s01_false_bicycle_35_n03792782_23334.png
subject-01,1,755,0.722965002059937,clock,clock,false,0755_fc_s01_false_clock_35_n02708093_56.png
subject-01,1,756,0.814739942550659,knife,knife,false,0756_fc_s01_false_knife_35_n03041632_54627.png
subject-01,1,757,0.888463973999023,keyboard,keyboard,true,0757_fc_s01_true_keyboard_35_n03085013_24154.png
subject-01,1,758,0.690302133560181,clock,clock,true,0758_fc_s01_true_clock_35_n03196217_5972.png
subject-01,1,759,0.704201936721802,cat,cat,false,0759_fc_s01_false_cat_35_n02124075_6210.png
subject-01,1,760,0.74783992767334,airplane,airplane,false,0760_fc_s01_false_airplane_35_n02690373_8770.png
subject-01,1,761,0.943567037582397,boat,boat,true,0761_fc_s01_true_boat_35_n04612504_5093.png
subject-01,1,762,0.759603977203369,bicycle,bicycle,false,0762_fc_s01_false_bicycle_35_n02835271_13404.png
subject-01,1,763,1.04524397850037,bottle,bottle,false,0763_fc_s01_false_bottle_35_n04560804_915.png
subject-01,1,764,0.90715503692627,clock,clock,true,0764_fc_s01_true_clock_35_n04548280_8942.png
subject-01,1,765,1.02485084533691,airplane,airplane,false,0765_fc_s01_false_airplane_35_n02690373_5029.png
subject-01,1,766,0.81681489944458,bear,bear,true,0766_fc_s01_true_bear_35_n02132136_8059.png
subject-01,1,767,1.02670097351074,oven,oven,false,0767_fc_s01_false_oven_35_n04111531_4574.png
subject-01,1,768,0.826375007629395,car,car,true,0768_fc_s01_true_car_35_n03100240_20935.png
subject-01,1,769,1.09423613548279,bottle,bottle,false,0769_fc_s01_false_bottle_35_n03937543_2344.png
subject-01,1,770,0.903956174850464,bird,bird,true,0770_fc_s01_true_bird_35_n01560419_2726.png
subject-01,1,771,0.861820936203003,cat,cat,true,0771_fc_s01_true_cat_35_n02123159_1233.png
subject-01,1,772,0.765524864196777,chair,chair,true,0772_fc_s01_true_chair_35_n04099969_38402.png
subject-01,1,773,0.665348052978516,boat,boat,true,0773_fc_s01_true_boat_35_n04273569_4324.png
subject-01,1,774,0.797209024429321,keyboard,keyboard,false,0774_fc_s01_false_keyboard_35_n03085013_16724.png
subject-01,1,775,0.879127025604248,oven,oven,true,0775_fc_s01_true_oven_35_n04111531_7449.png
subject-01,1,776,0.692873001098633,clock,clock,true,0776_fc_s01_true_clock_35_n02708093_3360.png
subject-01,1,777,0.980724811553955,cat,cat,false,0777_fc_s01_false_cat_35_n02123597_13994.png
subject-01,1,778,0.944533109664917,bottle,bottle,true,0778_fc_s01_true_bottle_35_n04591713_4291.png
subject-01,1,779,1.00420713424683,knife,knife,true,0779_fc_s01_true_knife_35_n03041632_18748.png
subject-01,1,780,0.906110048294067,elephant,elephant,false,0780_fc_s01_false_elephant_35_n02504458_9049.png
subject-01,1,781,1.0498309135437,bottle,bottle,true,0781_fc_s01_true_bottle_35_n04579145_1705.png
subject-01,1,782,0.695674896240234,cat,cat,true,0782_fc_s01_true_cat_35_n02123159_6087.png
subject-01,1,783,0.875543117523193,bear,bear,true,0783_fc_s01_true_bear_35_n02134418_2435.png
subject-01,1,784,0.919690847396851,bird,bird,false,0784_fc_s01_false_bird_35_n01592084_5925.png
subject-01,1,785,0.857281923294067,bird,bird,false,0785_fc_s01_false_bird_35_n01560419_14207.png
subject-01,1,786,0.714936971664429,airplane,airplane,true,0786_fc_s01_true_airplane_35_n02690373_10176.png
subject-01,1,787,0.658736944198608,cat,cat,false,0787_fc_s01_false_cat_35_n02123159_6089.png
subject-01,1,788,1.20289301872253,elephant,bear,false,0788_fc_s01_false_bear_35_n02132136_451.png
subject-01,1,789,0.632421970367432,clock,clock,false,0789_fc_s01_false_clock_35_n03196217_6999.png
subject-01,1,790,0.76829195022583,bottle,bottle,true,0790_fc_s01_true_bottle_35_n04560804_5636.png
subject-01,1,791,0.854072093963623,bottle,bottle,true,0791_fc_s01_true_bottle_35_n04591713_5702.png
subject-01,1,792,0.914110898971558,bear,bear,false,0792_fc_s01_false_bear_35_n02133161_693.png
subject-01,1,793,0.871639013290405,truck,truck,false,0793_fc_s01_false_truck_35_n03796401_19487.png
subject-01,1,794,0.795678853988647,knife,knife,true,0794_fc_s01_true_knife_35_n03041632_17067.png
subject-01,1,795,0.601215839385986,cat,keyboard,true,0795_fc_s01_true_keyboard_35_n03085013_26449.png
subject-01,1,796,1.28322196006775,elephant,elephant,true,0796_fc_s01_true_elephant_35_n02504458_6435.png
subject-01,1,797,0.726771831512451,truck,truck,true,0797_fc_s01_true_truck_35_n04467665_43410.png
subject-01,1,798,0.820703029632568,keyboard,keyboard,true,0798_fc_s01_true_keyboard_35_n03085013_30335.png
subject-01,1,799,0.724485874176025,oven,oven,true,0799_fc_s01_true_oven_35_n04111531_8553.png
subject-01,1,800,0.672582864761353,bicycle,bicycle,false,0800_fc_s01_false_bicycle_35_n03792782_3069.png
subject-01,1,801,0.750324010848999,knife,knife,false,0801_fc_s01_false_knife_35_n03041632_45636.png
subject-01,1,802,0.692476034164429,chair,chair,false,0802_fc_s01_false_chair_35_n04099969_8961.png
subject-01,1,803,0.705902814865112,bird,bird,true,0803_fc_s01_true_bird_35_n01582220_4924.png
subject-01,1,804,0.667837858200073,bear,bear,false,0804_fc_s01_false_bear_35_n02134418_2438.png
subject-01,1,805,1.09952592849731,dog,dog,false,0805_fc_s01_false_dog_35_n02105056_2046.png
subject-01,1,806,0.749830961227417,keyboard,keyboard,true,0806_fc_s01_true_keyboard_35_n04505470_3234.png
subject-01,1,807,0.787131071090698,truck,truck,true,0807_fc_s01_true_truck_35_n04467665_2246.png
subject-01,1,808,0.790948867797852,elephant,elephant,true,0808_fc_s01_true_elephant_35_n02504458_12165.png
subject-01,1,809,1.07888388633728,bicycle,bicycle,false,0809_fc_s01_false_bicycle_35_n02835271_18173.png
subject-01,1,810,0.884877920150757,dog,dog,true,0810_fc_s01_true_dog_35_n02108551_262.png
subject-01,1,811,1.05649995803833,dog,dog,true,0811_fc_s01_true_dog_35_n02096437_1018.png
subject-01,1,812,0.882319211959839,bird,bird,true,0812_fc_s01_true_bird_35_n01530575_2039.png
subject-01,1,813,0.748025178909302,bottle,bottle,true,0813_fc_s01_true_bottle_35_n02823428_5807.png
subject-01,1,814,0.711951971054077,truck,truck,false,0814_fc_s01_false_truck_35_n03417042_8690.png
subject-01,1,815,1.13783311843872,bear,elephant,false,0815_fc_s01_false_elephant_35_n02504458_3881.png
subject-01,1,816,0.755398988723755,cat,cat,true,0816_fc_s01_true_cat_35_n02123159_5467.png
subject-01,1,817,0.665253877639771,boat,boat,false,0817_fc_s01_false_boat_35_n02951358_16040.png
subject-01,1,818,0.881299018859863,clock,chair,true,0818_fc_s01_true_chair_35_n04429376_20873.png
subject-01,1,819,0.966934204101562,dog,dog,false,0819_fc_s01_false_dog_35_n02092339_160.png
subject-01,1,820,0.912662982940674,keyboard,keyboard,false,0820_fc_s01_false_keyboard_35_n03085013_24001.png
subject-01,1,821,0.866480112075806,chair,chair,false,0821_fc_s01_false_chair_35_n04099969_20390.png
subject-01,1,822,0.638437032699585,clock,clock,false,0822_fc_s01_false_clock_35_n02708093_1684.png
subject-01,1,823,0.944238185882568,elephant,elephant,false,0823_fc_s01_false_elephant_35_n02504013_4023.png
subject-01,1,824,0.872086048126221,bottle,bottle,false,0824_fc_s01_false_bottle_35_n02823428_14149.png
subject-01,1,825,0.714095115661621,clock,clock,true,0825_fc_s01_true_clock_35_n03196217_3669.png
subject-01,1,826,0.759658813476562,keyboard,keyboard,false,0826_fc_s01_false_keyboard_35_n03085013_20957.png
subject-01,1,827,1.00354599952698,airplane,airplane,false,0827_fc_s01_false_airplane_35_n02690373_6524.png
subject-01,1,828,0.61112904548645,boat,boat,false,0828_fc_s01_false_boat_35_n02951358_26227.png
subject-01,1,829,0.805077075958252,elephant,elephant,true,0829_fc_s01_true_elephant_35_n02504458_3599.png
subject-01,1,830,0.760873079299927,knife,knife,false,0830_fc_s01_false_knife_35_n03041632_36235.png
subject-01,1,831,0.626635074615479,clock,clock,true,0831_fc_s01_true_clock_35_n04548280_5428.png
subject-01,1,832,0.880748987197876,knife,knife,false,0832_fc_s01_false_knife_35_n03041632_92063.png
subject-01,1,833,0.966353178024292,elephant,elephant,true,0833_fc_s01_true_elephant_35_n02504013_11033.png
subject-01,1,834,0.884253025054932,chair,chair,false,0834_fc_s01_false_chair_35_n02791124_4547.png
subject-01,1,835,0.764012813568115,car,car,true,0835_fc_s01_true_car_35_n04285008_9456.png
subject-01,1,836,0.607553005218506,boat,boat,false,0836_fc_s01_false_boat_35_n02951358_461.png
subject-01,1,837,0.847512006759644,oven,oven,true,0837_fc_s01_true_oven_35_n04111531_4116.png
subject-01,1,838,0.673249006271362,car,car,false,0838_fc_s01_false_car_35_n03100240_6248.png
subject-01,1,839,0.90906810760498,dog,dog,true,0839_fc_s01_true_dog_35_n02086646_6849.png
subject-01,1,840,0.968858003616333,dog,dog,true,0840_fc_s01_true_dog_35_n02102040_1187.png
subject-01,1,841,0.94676399230957,bottle,bottle,false,0841_fc_s01_false_bottle_35_n03983396_8041.png
subject-01,1,842,0.730676889419556,bear,bear,true,0842_fc_s01_true_bear_35_n02132136_8516.png
subject-01,1,843,0.930402040481567,chair,chair,false,0843_fc_s01_false_chair_35_n02791124_177.png
subject-01,1,844,0.57020902633667,boat,boat,false,0844_fc_s01_false_boat_35_n03662601_10330.png
subject-01,1,845,0.754121065139771,car,car,false,0845_fc_s01_false_car_35_n03100240_6311.png
subject-01,1,846,0.848082065582275,chair,chair,false,0846_fc_s01_false_chair_35_n03376595_1943.png
subject-01,1,847,0.769613981246948,bottle,bottle,false,0847_fc_s01_false_bottle_35_n04557648_4356.png
subject-01,1,848,0.695351839065552,bear,bear,true,0848_fc_s01_true_bear_35_n02134084_14754.png
subject-01,1,849,0.849152088165283,truck,truck,false,0849_fc_s01_false_truck_35_n03417042_25493.png
subject-01,1,850,1.06714200973511,knife,knife,true,0850_fc_s01_true_knife_35_n03041632_30565.png
subject-01,1,851,0.642940044403076,boat,boat,false,0851_fc_s01_false_boat_35_n03344393_5501.png
subject-01,1,852,0.687021017074585,bicycle,bicycle,true,0852_fc_s01_true_bicycle_35_n02835271_4446.png
subject-01,1,853,0.944431066513062,knife,knife,true,0853_fc_s01_true_knife_35_n03041632_3926.png
subject-01,1,854,0.658262014389038,cat,cat,false,0854_fc_s01_false_cat_35_n02123159_7580.png
subject-01,1,855,1.00830602645874,dog,dog,true,0855_fc_s01_true_dog_35_n02112018_9196.png
subject-01,1,856,0.865875005722046,car,car,false,0856_fc_s01_false_car_35_n03100240_20185.png
subject-01,1,857,0.821755170822144,elephant,elephant,false,0857_fc_s01_false_elephant_35_n02504458_11693.png
subject-01,1,858,0.633554935455322,clock,clock,true,0858_fc_s01_true_clock_35_n04548280_3303.png
subject-01,1,859,0.871348142623901,bottle,bottle,false,0859_fc_s01_false_bottle_35_n04560804_10411.png
subject-01,1,860,0.71917200088501,car,car,false,0860_fc_s01_false_car_35_n03100240_16803.png
subject-01,1,861,0.733023881912231,cat,cat,true,0861_fc_s01_true_cat_35_n02123597_2099.png
subject-01,1,862,0.676736831665039,truck,truck,true,0862_fc_s01_true_truck_35_n03796401_27288.png
subject-01,1,863,1.02259612083435,dog,dog,false,0863_fc_s01_false_dog_35_n02097130_2470.png
subject-01,1,864,1.09430599212646,dog,dog,false,0864_fc_s01_false_dog_35_n02111277_25819.png
subject-01,1,865,0.708383083343506,bear,bear,false,0865_fc_s01_false_bear_35_n02134084_12070.png
subject-01,1,866,0.745954990386963,clock,clock,false,0866_fc_s01_false_clock_35_n02708093_3525.png
subject-01,1,867,0.741829872131348,chair,chair,false,0867_fc_s01_false_chair_35_n03376595_4912.png
subject-01,1,868,0.763768911361694,airplane,airplane,false,0868_fc_s01_false_airplane_35_n02690373_6856.png
subject-01,1,869,0.853585004806519,truck,truck,true,0869_fc_s01_true_truck_35_n04467665_25130.png
subject-01,1,870,0.861598014831543,dog,dog,true,0870_fc_s01_true_dog_35_n02107908_8344.png
subject-01,1,871,0.819432973861694,car,car,true,0871_fc_s01_true_car_35_n03100240_14045.png
subject-01,1,872,0.894974946975708,airplane,airplane,false,0872_fc_s01_false_airplane_35_n02690373_7735.png
subject-01,1,873,0.81481409072876,dog,dog,false,0873_fc_s01_false_dog_35_n02094258_5084.png
subject-01,1,874,0.838521003723145,knife,knife,false,0874_fc_s01_false_knife_35_n03041632_13742.png
subject-01,1,875,0.930464029312134,bottle,bottle,false,0875_fc_s01_false_bottle_35_n03937543_5062.png
subject-01,1,876,0.890578031539917,car,truck,false,0876_fc_s01_false_truck_35_n03417042_768.png
subject-01,1,877,0.936307907104492,dog,dog,false,0877_fc_s01_false_dog_35_n02097209_3172.png
subject-01,1,878,0.915741920471191,knife,knife,true,0878_fc_s01_true_knife_35_n03041632_4057.png
subject-01,1,879,0.767513036727905,clock,clock,true,0879_fc_s01_true_clock_35_n02708093_7060.png
subject-01,1,880,0.775352954864502,truck,truck,true,0880_fc_s01_true_truck_35_n03417042_29353.png
subject-01,1,881,1.1787269115448,dog,dog,true,0881_fc_s01_true_dog_35_n02091831_7969.png
subject-01,1,882,0.822625160217285,bottle,bottle,false,0882_fc_s01_false_bottle_35_n04591713_5599.png
subject-01,1,883,0.866434812545776,dog,dog,true,0883_fc_s01_true_dog_35_n02092339_7915.png
subject-01,1,884,0.96636700630188,keyboard,keyboard,true,0884_fc_s01_true_keyboard_35_n03085013_743.png
subject-01,1,885,0.80023193359375,chair,chair,true,0885_fc_s01_true_chair_35_n02791124_1135.png
subject-01,1,886,0.664089918136597,cat,cat,false,0886_fc_s01_false_cat_35_n02125311_41249.png
subject-01,1,887,0.839738845825195,car,car,false,0887_fc_s01_false_car_35_n02814533_4885.png
subject-01,1,888,0.801620006561279,bear,bear,false,0888_fc_s01_false_bear_35_n02132136_11149.png
subject-01,1,889,0.835441827774048,car,car,true,0889_fc_s01_true_car_35_n03100240_7064.png
subject-01,1,890,0.777472019195557,bear,bear,true,0890_fc_s01_true_bear_35_n02132136_10301.png
subject-01,1,891,0.712658166885376,keyboard,keyboard,false,0891_fc_s01_false_keyboard_35_n04505470_3937.png
subject-01,1,892,0.884768009185791,oven,boat,false,0892_fc_s01_false_boat_35_n03344393_4143.png
subject-01,1,893,0.974678993225098,dog,dog,false,0893_fc_s01_false_dog_35_n02086240_5271.png
subject-01,1,894,0.71645712852478,cat,cat,true,0894_fc_s01_true_cat_35_n02124075_2806.png
subject-01,1,895,0.71212100982666,cat,cat,true,0895_fc_s01_true_cat_35_n02125311_23425.png
subject-01,1,896,0.661839962005615,boat,boat,true,0896_fc_s01_true_boat_35_n04273569_928.png
subject-01,1,897,1.46225500106812,truck,truck,true,0897_fc_s01_true_truck_35_n03417042_6691.png
subject-01,1,898,0.849612951278687,boat,boat,false,0898_fc_s01_false_boat_35_n04612504_20125.png
subject-01,1,899,0.789497137069702,chair,knife,true,0899_fc_s01_true_knife_35_n03041632_1143.png
subject-01,1,900,0.851455211639404,bird,bird,false,0900_fc_s01_false_bird_35_n01796340_20055.png
subject-01,1,901,0.735024213790894,car,car,false,0901_fc_s01_false_car_35_n03100240_10706.png
subject-01,1,902,0.708869934082031,boat,boat,true,0902_fc_s01_true_boat_35_n03344393_6324.png
subject-01,1,903,0.894617080688477,knife,knife,false,0903_fc_s01_false_knife_35_n03041632_29038.png
subject-01,1,904,0.832418918609619,keyboard,keyboard,false,0904_fc_s01_false_keyboard_35_n04505470_5354.png
subject-01,1,905,0.898103952407837,elephant,elephant,true,0905_fc_s01_true_elephant_35_n02504013_2033.png
subject-01,1,906,0.80405592918396,boat,boat,true,0906_fc_s01_true_boat_35_n03662601_17571.png
subject-01,1,907,0.879830837249756,oven,oven,true,0907_fc_s01_true_oven_35_n04111531_21911.png
subject-01,1,908,1.00388789176941,elephant,elephant,false,0908_fc_s01_false_elephant_35_n02504013_237.png
subject-01,1,909,1.06342506408691,truck,truck,true,0909_fc_s01_true_truck_35_n03417042_12232.png
subject-01,1,910,1.17334294319153,clock,clock,true,0910_fc_s01_true_clock_35_n03196217_845.png
subject-01,1,911,0.725126028060913,oven,oven,false,0911_fc_s01_false_oven_35_n04111531_4918.png
subject-01,1,912,0.914994955062866,bottle,bottle,false,0912_fc_s01_false_bottle_35_n04560804_10.png
subject-01,1,913,0.836663961410522,bear,bear,true,0913_fc_s01_true_bear_35_n02133161_2597.png
subject-01,1,914,0.632768154144287,oven,oven,true,0914_fc_s01_true_oven_35_n04111531_6485.png
subject-01,1,915,0.83040189743042,bottle,bottle,true,0915_fc_s01_true_bottle_35_n02823428_10612.png
subject-01,1,916,0.784272193908691,car,car,true,0916_fc_s01_true_car_35_n04285008_11323.png
subject-01,1,917,0.954252004623413,chair,truck,false,0917_fc_s01_false_truck_35_n03417042_7313.png
subject-01,1,918,0.778167009353638,bird,bird,true,0918_fc_s01_true_bird_35_n02025239_4966.png
subject-01,1,919,0.637758016586304,boat,boat,true,0919_fc_s01_true_boat_35_n03344393_4496.png
subject-01,1,920,1.17384099960327,truck,truck,true,0920_fc_s01_true_truck_35_n04467665_23055.png
subject-01,1,921,0.675349950790405,cat,cat,false,0921_fc_s01_false_cat_35_n02123159_2757.png
subject-01,1,922,1.02536797523499,elephant,elephant,false,0922_fc_s01_false_elephant_35_n02504458_7258.png
subject-01,1,923,1.27287197113037,keyboard,keyboard,false,0923_fc_s01_false_keyboard_35_n04505470_2921.png
subject-01,1,924,0.838587999343872,knife,knife,true,0924_fc_s01_true_knife_35_n03041632_9671.png
subject-01,1,925,0.744499921798706,oven,oven,true,0925_fc_s01_true_oven_35_n04111531_594.png
subject-01,1,926,0.658257007598877,cat,cat,true,0926_fc_s01_true_cat_35_n02124075_7059.png
subject-01,1,927,0.844069004058838,oven,truck,false,0927_fc_s01_false_truck_35_n03417042_3952.png
subject-01,1,928,0.939929008483887,elephant,elephant,false,0928_fc_s01_false_elephant_35_n02504013_8007.png
subject-01,1,929,1.0881130695343,truck,boat,false,0929_fc_s01_false_boat_35_n03662601_24852.png
subject-01,1,930,0.648066997528076,boat,boat,false,0930_fc_s01_false_boat_35_n03662601_18579.png
subject-01,1,931,0.601716995239258,clock,clock,false,0931_fc_s01_false_clock_35_n02708093_3745.png
subject-01,1,932,0.723376035690308,bottle,bottle,false,0932_fc_s01_false_bottle_35_n02823428_4959.png
subject-01,1,933,0.957110166549683,bottle,bottle,true,0933_fc_s01_true_bottle_35_n04579145_54.png
subject-01,1,934,0.850658893585205,bicycle,bicycle,true,0934_fc_s01_true_bicycle_35_n02835271_29653.png
subject-01,1,935,0.808490991592407,chair,chair,true,0935_fc_s01_true_chair_35_n03376595_10986.png
subject-01,1,936,0.878501892089844,chair,chair,true,0936_fc_s01_true_chair_35_n03376595_10153.png
subject-01,1,937,0.606331825256348,boat,boat,true,0937_fc_s01_true_boat_35_n03344393_6799.png
subject-01,1,938,0.768054008483887,oven,oven,true,0938_fc_s01_true_oven_35_n04111531_20099.png
subject-01,1,939,0.863879919052124,elephant,elephant,false,0939_fc_s01_false_elephant_35_n02504013_11073.png
subject-01,1,940,0.817541837692261,dog,dog,true,0940_fc_s01_true_dog_35_n02095570_11142.png
subject-01,1,941,0.729592084884644,keyboard,keyboard,true,0941_fc_s01_true_keyboard_35_n04505470_489.png
subject-01,1,942,0.775198936462402,bottle,bottle,true,0942_fc_s01_true_bottle_35_n04557648_1791.png
subject-01,1,943,0.6109459400177,oven,oven,false,0943_fc_s01_false_oven_35_n04111531_18245.png
subject-01,1,944,0.867270946502686,chair,chair,false,0944_fc_s01_false_chair_35_n04099969_3414.png
subject-01,1,945,0.932739973068237,keyboard,keyboard,false,0945_fc_s01_false_keyboard_35_n03085013_24206.png
subject-01,1,946,1.04263806343079,car,car,false,0946_fc_s01_false_car_35_n03100240_18270.png
subject-01,1,947,0.696614027023315,clock,clock,true,0947_fc_s01_true_clock_35_n03196217_3430.png
subject-01,1,948,0.612056970596313,cat,cat,true,0948_fc_s01_true_cat_35_n02123159_2339.png
subject-01,1,949,1.0358510017395,truck,truck,false,0949_fc_s01_false_truck_35_n04467665_11830.png
subject-01,1,950,0.739682912826538,airplane,airplane,false,0950_fc_s01_false_airplane_35_n02690373_4198.png
subject-01,1,951,1.04552984237671,clock,chair,true,0951_fc_s01_true_chair_35_n04429376_16619.png
subject-01,1,952,0.847329139709473,bottle,bottle,true,0952_fc_s01_true_bottle_35_n04579145_6186.png
subject-01,1,953,1.46908497810364,clock,knife,true,0953_fc_s01_true_knife_35_n03041632_27929.png
subject-01,1,954,0.733016967773438,truck,truck,false,0954_fc_s01_false_truck_35_n04467665_3529.png
subject-01,1,955,0.614857196807861,oven,oven,false,0955_fc_s01_false_oven_35_n04111531_4050.png
subject-01,1,956,0.686717987060547,car,car,true,0956_fc_s01_true_car_35_n04285008_5440.png
subject-01,1,957,0.654644012451172,airplane,airplane,true,0957_fc_s01_true_airplane_35_n02690373_8454.png
subject-01,1,958,0.662393093109131,oven,knife,false,0958_fc_s01_false_knife_35_n03041632_11326.png
subject-01,1,959,0.886202096939087,bird,bird,false,0959_fc_s01_false_bird_35_n01796340_5485.png
subject-01,1,960,0.921792030334473,elephant,elephant,true,0960_fc_s01_true_elephant_35_n02504013_12615.png
subject-01,1,961,0.829428911209106,keyboard,keyboard,true,0961_fc_s01_true_keyboard_35_n03085013_3980.png
subject-01,1,962,0.799192905426025,truck,truck,true,0962_fc_s01_true_truck_35_n03796401_16337.png
subject-01,1,963,1.07284498214722,truck,truck,true,0963_fc_s01_true_truck_35_n03796401_6921.png
subject-01,1,964,0.743255853652954,bear,bear,true,0964_fc_s01_true_bear_35_n02134084_7274.png
subject-01,1,965,0.950957059860229,bird,bird,false,0965_fc_s01_false_bird_35_n01819313_5839.png
subject-01,1,966,0.950579881668091,bicycle,bicycle,true,0966_fc_s01_true_bicycle_35_n03792782_2057.png
subject-01,1,967,0.654381990432739,clock,clock,false,0967_fc_s01_false_clock_35_n03196217_3050.png
subject-01,1,968,0.772006034851074,car,car,true,0968_fc_s01_true_car_35_n04285008_12754.png
subject-01,1,969,0.85619592666626,bear,bear,false,0969_fc_s01_false_bear_35_n02134418_1409.png
subject-01,1,970,0.819810152053833,chair,chair,true,0970_fc_s01_true_chair_35_n03376595_3654.png
subject-01,1,971,0.695478916168213,keyboard,keyboard,false,0971_fc_s01_false_keyboard_35_n04505470_4873.png
subject-01,1,972,0.837332963943481,airplane,airplane,true,0972_fc_s01_true_airplane_35_n02690373_1615.png
subject-01,1,973,0.851502895355225,bottle,bottle,false,0973_fc_s01_false_bottle_35_n04591713_6851.png
subject-01,1,974,0.700942039489746,oven,oven,false,0974_fc_s01_false_oven_35_n04111531_14804.png
subject-01,1,975,1.48283696174622,bottle,knife,false,0975_fc_s01_false_knife_35_n03041632_29680.png
subject-01,1,976,0.736508131027222,airplane,airplane,true,0976_fc_s01_true_airplane_35_n02690373_2068.png
subject-01,1,977,0.682281017303467,oven,oven,false,0977_fc_s01_false_oven_35_n04111531_8309.png
subject-01,1,978,0.78415584564209,truck,truck,true,0978_fc_s01_true_truck_35_n04467665_3094.png
subject-01,1,979,0.887911081314087,elephant,elephant,true,0979_fc_s01_true_elephant_35_n02504458_5788.png
subject-01,1,980,0.917802810668945,keyboard,keyboard,true,0980_fc_s01_true_keyboard_35_n04505470_4500.png
subject-01,1,981,0.753468036651611,car,car,false,0981_fc_s01_false_car_35_n04285008_7924.png
subject-01,1,982,0.729231119155884,cat,cat,false,0982_fc_s01_false_cat_35_n02123394_9541.png
subject-01,1,983,0.977261066436768,bear,bear,false,0983_fc_s01_false_bear_35_n02134418_2440.png
subject-01,1,984,0.591048955917358,clock,clock,false,0984_fc_s01_false_clock_35_n03196217_8785.png
subject-01,1,985,0.989151954650879,dog,dog,true,0985_fc_s01_true_dog_35_n02094258_1036.png
subject-01,1,986,1.25057506561279,car,boat,false,0986_fc_s01_false_boat_35_n02951358_8503.png
subject-01,1,987,0.922412872314453,chair,chair,true,0987_fc_s01_true_chair_35_n02791124_1557.png
subject-01,1,988,0.672250032424927,keyboard,keyboard,true,0988_fc_s01_true_keyboard_35_n03085013_5440.png
subject-01,1,989,0.758042812347412,chair,chair,true,0989_fc_s01_true_chair_35_n02791124_606.png
subject-01,1,990,0.92792820930481,bottle,bottle,false,0990_fc_s01_false_bottle_35_n03937543_10543.png
subject-01,1,991,0.913859128952026,bicycle,bicycle,false,0991_fc_s01_false_bicycle_35_n03792782_18665.png
subject-01,1,992,0.753473997116089,car,car,false,0992_fc_s01_false_car_35_n02814533_90486.png
subject-01,1,993,0.979495048522949,cat,bear,false,0993_fc_s01_false_bear_35_n02134418_4485.png
subject-01,1,994,0.673295974731445,keyboard,keyboard,false,0994_fc_s01_false_keyboard_35_n03085013_20727.png
subject-01,1,995,0.668894052505493,cat,cat,true,0995_fc_s01_true_cat_35_n02123394_1122.png
subject-01,1,996,1.2947199344635,cat,cat,true,0996_fc_s01_true_cat_35_n02123159_7762.png
subject-01,1,997,0.618492126464844,oven,oven,true,0997_fc_s01_true_oven_35_n04111531_5897.png
subject-01,1,998,0.736522912979126,cat,cat,false,0998_fc_s01_false_cat_35_n02125311_23312.png
subject-01,1,999,0.716597080230713,elephant,elephant,false,0999_fc_s01_false_elephant_35_n02504013_1436.png
subject-01,1,1000,0.882461071014404,bird,bird,false,1000_fc_s01_false_bird_35_n01622779_11953.png
subject-01,1,1001,0.817970991134644,elephant,elephant,true,1001_fc_s01_true_elephant_35_n02504458_975.png
subject-01,1,1002,0.779489994049072,car,car,true,1002_fc_s01_true_car_35_n04285008_2841.png
subject-01,1,1003,0.671547889709473,cat,cat,false,1003_fc_s01_false_cat_35_n02123597_3575.png
subject-01,1,1004,0.647390842437744,boat,boat,true,1004_fc_s01_true_boat_35_n04612504_14418.png
subject-01,1,1005,0.831269025802612,dog,dog,false,1005_fc_s01_false_dog_35_n02087394_9938.png
subject-01,1,1006,0.934812068939209,clock,chair,true,1006_fc_s01_true_chair_35_n04429376_17646.png
subject-01,1,1007,0.966686010360718,chair,chair,true,1007_fc_s01_true_chair_35_n04099969_6309.png
subject-01,1,1008,0.770465135574341,bottle,bottle,true,1008_fc_s01_true_bottle_35_n03983396_3331.png
subject-01,1,1009,0.918494939804077,keyboard,keyboard,true,1009_fc_s01_true_keyboard_35_n04505470_882.png
subject-01,1,1010,0.700059175491333,clock,clock,true,1010_fc_s01_true_clock_35_n02708093_1124.png
subject-01,1,1011,0.639853000640869,clock,clock,false,1011_fc_s01_false_clock_35_n04548280_17802.png
subject-01,1,1012,0.635822057723999,cat,cat,true,1012_fc_s01_true_cat_35_n02123045_6507.png
subject-01,1,1013,0.811357021331787,elephant,elephant,true,1013_fc_s01_true_elephant_35_n02504458_379.png
subject-01,1,1014,0.927335023880005,boat,boat,false,1014_fc_s01_false_boat_35_n03662601_6916.png
subject-01,1,1015,0.881278038024902,knife,knife,true,1015_fc_s01_true_knife_35_n03041632_2390.png
subject-01,1,1016,1.08298897743225,car,car,true,1016_fc_s01_true_car_35_n03100240_17973.png
subject-01,1,1017,0.654802083969116,cat,cat,false,1017_fc_s01_false_cat_35_n02123597_9467.png
subject-01,1,1018,0.650702953338623,bicycle,bicycle,false,1018_fc_s01_false_bicycle_35_n02835271_12028.png
subject-01,1,1019,0.722709894180298,chair,chair,true,1019_fc_s01_true_chair_35_n04099969_25327.png
