subj,session,trial,rt,object_response,category,condition,imagename
swag_regnety_128gf_in1k,1,1,NaN,chair,chair,0,0001_rot_dnn_0_chair_20_n03376595_3070.png
swag_regnety_128gf_in1k,1,2,NaN,car,car,180,0002_rot_dnn_180_car_20_n02814533_29367.png
swag_regnety_128gf_in1k,1,3,NaN,car,car,270,0003_rot_dnn_270_car_20_n02814533_31083.png
swag_regnety_128gf_in1k,1,4,NaN,truck,car,180,0004_rot_dnn_180_car_20_n03100240_1703.png
swag_regnety_128gf_in1k,1,5,NaN,bottle,bottle,180,0005_rot_dnn_180_bottle_20_n04591713_2359.png
swag_regnety_128gf_in1k,1,6,NaN,dog,dog,90,0006_rot_dnn_90_dog_20_n02111500_8796.png
swag_regnety_128gf_in1k,1,7,NaN,bear,bear,180,0007_rot_dnn_180_bear_20_n02132136_4512.png
swag_regnety_128gf_in1k,1,8,NaN,chair,chair,90,0008_rot_dnn_90_chair_20_n03376595_4820.png
swag_regnety_128gf_in1k,1,9,NaN,bottle,bottle,270,0009_rot_dnn_270_bottle_20_n04591713_6111.png
swag_regnety_128gf_in1k,1,10,NaN,bottle,bottle,270,0010_rot_dnn_270_bottle_20_n04560804_14111.png
swag_regnety_128gf_in1k,1,11,NaN,dog,dog,0,0011_rot_dnn_0_dog_20_n02099601_8656.png
swag_regnety_128gf_in1k,1,12,NaN,cat,cat,0,0012_rot_dnn_0_cat_20_n02125311_14054.png
swag_regnety_128gf_in1k,1,13,NaN,bear,bear,0,0013_rot_dnn_0_bear_20_n02132136_10385.png
swag_regnety_128gf_in1k,1,14,NaN,bottle,bottle,90,0014_rot_dnn_90_bottle_20_n02823428_10417.png
swag_regnety_128gf_in1k,1,15,NaN,keyboard,keyboard,0,0015_rot_dnn_0_keyboard_20_n03085013_23566.png
swag_regnety_128gf_in1k,1,16,NaN,truck,truck,90,0016_rot_dnn_90_truck_20_n03417042_12560.png
swag_regnety_128gf_in1k,1,17,NaN,truck,truck,180,0017_rot_dnn_180_truck_20_n04467665_69063.png
swag_regnety_128gf_in1k,1,18,NaN,oven,oven,180,0018_rot_dnn_180_oven_20_n04111531_9712.png
swag_regnety_128gf_in1k,1,19,NaN,oven,oven,180,0019_rot_dnn_180_oven_20_n04111531_10375.png
swag_regnety_128gf_in1k,1,20,NaN,keyboard,keyboard,0,0020_rot_dnn_0_keyboard_20_n04505470_1744.png
swag_regnety_128gf_in1k,1,21,NaN,boat,boat,90,0021_rot_dnn_90_boat_20_n04273569_7296.png
swag_regnety_128gf_in1k,1,22,NaN,dog,dog,0,0022_rot_dnn_0_dog_20_n02101006_4807.png
swag_regnety_128gf_in1k,1,23,NaN,clock,clock,90,0023_rot_dnn_90_clock_20_n02708093_1986.png
swag_regnety_128gf_in1k,1,24,NaN,bottle,bottle,0,0024_rot_dnn_0_bottle_20_n04560804_15562.png
swag_regnety_128gf_in1k,1,25,NaN,cat,cat,0,0025_rot_dnn_0_cat_20_n02124075_13594.png
swag_regnety_128gf_in1k,1,26,NaN,bear,bear,90,0026_rot_dnn_90_bear_20_n02134418_4365.png
swag_regnety_128gf_in1k,1,27,NaN,boat,bear,180,0027_rot_dnn_180_bear_20_n02132136_8650.png
swag_regnety_128gf_in1k,1,28,NaN,bird,bird,90,0028_rot_dnn_90_bird_20_n02009912_12219.png
swag_regnety_128gf_in1k,1,29,NaN,dog,dog,90,0029_rot_dnn_90_dog_20_n02100236_1662.png
swag_regnety_128gf_in1k,1,30,NaN,clock,clock,90,0030_rot_dnn_90_clock_20_n04548280_1947.png
swag_regnety_128gf_in1k,1,31,NaN,dog,dog,270,0031_rot_dnn_270_dog_20_n02109047_66167.png
swag_regnety_128gf_in1k,1,32,NaN,oven,oven,90,0032_rot_dnn_90_oven_20_n04111531_21055.png
swag_regnety_128gf_in1k,1,33,NaN,clock,clock,0,0033_rot_dnn_0_clock_20_n02708093_2012.png
swag_regnety_128gf_in1k,1,34,NaN,elephant,elephant,0,0034_rot_dnn_0_elephant_20_n02504458_6119.png
swag_regnety_128gf_in1k,1,35,NaN,chair,chair,0,0035_rot_dnn_0_chair_20_n04099969_12707.png
swag_regnety_128gf_in1k,1,36,NaN,keyboard,keyboard,270,0036_rot_dnn_270_keyboard_20_n03085013_19054.png
swag_regnety_128gf_in1k,1,37,NaN,chair,chair,0,0037_rot_dnn_0_chair_20_n02791124_422.png
swag_regnety_128gf_in1k,1,38,NaN,bicycle,bicycle,0,0038_rot_dnn_0_bicycle_20_n02835271_23830.png
swag_regnety_128gf_in1k,1,39,NaN,bird,bird,90,0039_rot_dnn_90_bird_20_n01534433_14735.png
swag_regnety_128gf_in1k,1,40,NaN,bird,bird,90,0040_rot_dnn_90_bird_20_n02011460_13994.png
swag_regnety_128gf_in1k,1,41,NaN,boat,boat,270,0041_rot_dnn_270_boat_20_n04273569_17522.png
swag_regnety_128gf_in1k,1,42,NaN,bear,bear,180,0042_rot_dnn_180_bear_20_n02132136_5537.png
swag_regnety_128gf_in1k,1,43,NaN,bear,bear,90,0043_rot_dnn_90_bear_20_n02132136_19248.png
swag_regnety_128gf_in1k,1,44,NaN,bird,bird,270,0044_rot_dnn_270_bird_20_n01537544_1886.png
swag_regnety_128gf_in1k,1,45,NaN,clock,clock,180,0045_rot_dnn_180_clock_20_n03196217_4776.png
swag_regnety_128gf_in1k,1,46,NaN,boat,boat,270,0046_rot_dnn_270_boat_20_n04612504_17610.png
swag_regnety_128gf_in1k,1,47,NaN,bear,bear,90,0047_rot_dnn_90_bear_20_n02134418_1814.png
swag_regnety_128gf_in1k,1,48,NaN,keyboard,keyboard,180,0048_rot_dnn_180_keyboard_20_n03085013_20330.png
swag_regnety_128gf_in1k,1,49,NaN,bottle,bottle,180,0049_rot_dnn_180_bottle_20_n02823428_14574.png
swag_regnety_128gf_in1k,1,50,NaN,bicycle,bicycle,0,0050_rot_dnn_0_bicycle_20_n03792782_7105.png
swag_regnety_128gf_in1k,1,51,NaN,elephant,elephant,0,0051_rot_dnn_0_elephant_20_n02504458_1302.png
swag_regnety_128gf_in1k,1,52,NaN,airplane,airplane,90,0052_rot_dnn_90_airplane_20_n02690373_3877.png
swag_regnety_128gf_in1k,1,53,NaN,car,boat,90,0053_rot_dnn_90_boat_20_n02951358_15422.png
swag_regnety_128gf_in1k,1,54,NaN,car,car,270,0054_rot_dnn_270_car_20_n02814533_46458.png
swag_regnety_128gf_in1k,1,55,NaN,car,car,0,0055_rot_dnn_0_car_20_n02814533_39547.png
swag_regnety_128gf_in1k,1,56,NaN,boat,boat,180,0056_rot_dnn_180_boat_20_n04273569_6586.png
swag_regnety_128gf_in1k,1,57,NaN,clock,clock,90,0057_rot_dnn_90_clock_20_n02708093_3394.png
swag_regnety_128gf_in1k,1,58,NaN,keyboard,keyboard,180,0058_rot_dnn_180_keyboard_20_n03085013_25419.png
swag_regnety_128gf_in1k,1,59,NaN,bottle,bottle,180,0059_rot_dnn_180_bottle_20_n04557648_1871.png
swag_regnety_128gf_in1k,1,60,NaN,chair,chair,90,0060_rot_dnn_90_chair_20_n04099969_6944.png
swag_regnety_128gf_in1k,1,61,NaN,boat,boat,270,0061_rot_dnn_270_boat_20_n04273569_1495.png
swag_regnety_128gf_in1k,1,62,NaN,keyboard,keyboard,90,0062_rot_dnn_90_keyboard_20_n03085013_7317.png
swag_regnety_128gf_in1k,1,63,NaN,knife,knife,90,0063_rot_dnn_90_knife_20_n03041632_7448.png
swag_regnety_128gf_in1k,1,64,NaN,truck,truck,0,0064_rot_dnn_0_truck_20_n03417042_11000.png
swag_regnety_128gf_in1k,1,65,NaN,bird,bird,0,0065_rot_dnn_0_bird_20_n01582220_8827.png
swag_regnety_128gf_in1k,1,66,NaN,airplane,airplane,270,0066_rot_dnn_270_airplane_20_n02690373_9247.png
swag_regnety_128gf_in1k,1,67,NaN,bear,bear,270,0067_rot_dnn_270_bear_20_n02133161_14397.png
swag_regnety_128gf_in1k,1,68,NaN,oven,oven,270,0068_rot_dnn_270_oven_20_n04111531_13560.png
swag_regnety_128gf_in1k,1,69,NaN,bear,bear,180,0069_rot_dnn_180_bear_20_n02132136_545.png
swag_regnety_128gf_in1k,1,70,NaN,cat,cat,90,0070_rot_dnn_90_cat_20_n02125311_73072.png
swag_regnety_128gf_in1k,1,71,NaN,bicycle,bicycle,0,0071_rot_dnn_0_bicycle_20_n03792782_30530.png
swag_regnety_128gf_in1k,1,72,NaN,knife,knife,90,0072_rot_dnn_90_knife_20_n03041632_4975.png
swag_regnety_128gf_in1k,1,73,NaN,dog,dog,90,0073_rot_dnn_90_dog_20_n02107683_3120.png
swag_regnety_128gf_in1k,1,74,NaN,elephant,elephant,90,0074_rot_dnn_90_elephant_20_n02504013_7316.png
swag_regnety_128gf_in1k,1,75,NaN,truck,truck,90,0075_rot_dnn_90_truck_20_n03796401_7284.png
swag_regnety_128gf_in1k,1,76,NaN,chair,chair,270,0076_rot_dnn_270_chair_20_n03376595_497.png
swag_regnety_128gf_in1k,1,77,NaN,truck,truck,270,0077_rot_dnn_270_truck_20_n03796401_19845.png
swag_regnety_128gf_in1k,1,78,NaN,chair,chair,90,0078_rot_dnn_90_chair_20_n04099969_1941.png
swag_regnety_128gf_in1k,1,79,NaN,truck,truck,90,0079_rot_dnn_90_truck_20_n03417042_28886.png
swag_regnety_128gf_in1k,1,80,NaN,car,car,0,0080_rot_dnn_0_car_20_n02814533_12185.png
swag_regnety_128gf_in1k,1,81,NaN,bicycle,bicycle,90,0081_rot_dnn_90_bicycle_20_n02835271_1621.png
swag_regnety_128gf_in1k,1,82,NaN,cat,cat,0,0082_rot_dnn_0_cat_20_n02123597_32226.png
swag_regnety_128gf_in1k,1,83,NaN,bicycle,bicycle,90,0083_rot_dnn_90_bicycle_20_n03792782_5048.png
swag_regnety_128gf_in1k,1,84,NaN,airplane,airplane,0,0084_rot_dnn_0_airplane_20_n02690373_10044.png
swag_regnety_128gf_in1k,1,85,NaN,car,car,180,0085_rot_dnn_180_car_20_n03100240_5752.png
swag_regnety_128gf_in1k,1,86,NaN,car,car,90,0086_rot_dnn_90_car_20_n02814533_68219.png
swag_regnety_128gf_in1k,1,87,NaN,airplane,airplane,0,0087_rot_dnn_0_airplane_20_n02690373_1171.png
swag_regnety_128gf_in1k,1,88,NaN,bird,bird,90,0088_rot_dnn_90_bird_20_n01817953_6970.png
swag_regnety_128gf_in1k,1,89,NaN,car,car,90,0089_rot_dnn_90_car_20_n04285008_15503.png
swag_regnety_128gf_in1k,1,90,NaN,boat,boat,270,0090_rot_dnn_270_boat_20_n03344393_11886.png
swag_regnety_128gf_in1k,1,91,NaN,boat,boat,0,0091_rot_dnn_0_boat_20_n04273569_30203.png
swag_regnety_128gf_in1k,1,92,NaN,keyboard,keyboard,180,0092_rot_dnn_180_keyboard_20_n03085013_22069.png
swag_regnety_128gf_in1k,1,93,NaN,knife,knife,0,0093_rot_dnn_0_knife_20_n03041632_26314.png
swag_regnety_128gf_in1k,1,94,NaN,bicycle,bicycle,270,0094_rot_dnn_270_bicycle_20_n03792782_18308.png
swag_regnety_128gf_in1k,1,95,NaN,car,car,180,0095_rot_dnn_180_car_20_n04285008_8396.png
swag_regnety_128gf_in1k,1,96,NaN,bear,bear,90,0096_rot_dnn_90_bear_20_n02133161_12349.png
swag_regnety_128gf_in1k,1,97,NaN,bear,bear,270,0097_rot_dnn_270_bear_20_n02132136_18303.png
swag_regnety_128gf_in1k,1,98,NaN,cat,cat,180,0098_rot_dnn_180_cat_20_n02123394_6853.png
swag_regnety_128gf_in1k,1,99,NaN,cat,cat,180,0099_rot_dnn_180_cat_20_n02123597_4805.png
swag_regnety_128gf_in1k,1,100,NaN,car,car,0,0100_rot_dnn_0_car_20_n03100240_17587.png
swag_regnety_128gf_in1k,1,101,NaN,bird,bird,180,0101_rot_dnn_180_bird_20_n01601694_19236.png
swag_regnety_128gf_in1k,1,102,NaN,cat,cat,0,0102_rot_dnn_0_cat_20_n02123597_2341.png
swag_regnety_128gf_in1k,1,103,NaN,elephant,elephant,270,0103_rot_dnn_270_elephant_20_n02504013_7883.png
swag_regnety_128gf_in1k,1,104,NaN,chair,chair,270,0104_rot_dnn_270_chair_20_n03376595_14240.png
swag_regnety_128gf_in1k,1,105,NaN,airplane,airplane,0,0105_rot_dnn_0_airplane_20_n02690373_10188.png
swag_regnety_128gf_in1k,1,106,NaN,truck,truck,90,0106_rot_dnn_90_truck_20_n03417042_8634.png
swag_regnety_128gf_in1k,1,107,NaN,knife,knife,90,0107_rot_dnn_90_knife_20_n03041632_32774.png
swag_regnety_128gf_in1k,1,108,NaN,bottle,bottle,90,0108_rot_dnn_90_bottle_20_n03983396_4115.png
swag_regnety_128gf_in1k,1,109,NaN,clock,clock,270,0109_rot_dnn_270_clock_20_n04548280_8552.png
swag_regnety_128gf_in1k,1,110,NaN,car,car,0,0110_rot_dnn_0_car_20_n02814533_6233.png
swag_regnety_128gf_in1k,1,111,NaN,elephant,elephant,0,0111_rot_dnn_0_elephant_20_n02504458_9870.png
swag_regnety_128gf_in1k,1,112,NaN,bicycle,bicycle,270,0112_rot_dnn_270_bicycle_20_n02835271_3956.png
swag_regnety_128gf_in1k,1,113,NaN,knife,knife,90,0113_rot_dnn_90_knife_20_n03041632_14817.png
swag_regnety_128gf_in1k,1,114,NaN,chair,chair,90,0114_rot_dnn_90_chair_20_n04099969_8642.png
swag_regnety_128gf_in1k,1,115,NaN,clock,clock,0,0115_rot_dnn_0_clock_20_n02708093_240.png
swag_regnety_128gf_in1k,1,116,NaN,bear,bear,180,0116_rot_dnn_180_bear_20_n02133161_3896.png
swag_regnety_128gf_in1k,1,117,NaN,bottle,bottle,270,0117_rot_dnn_270_bottle_20_n04557648_11000.png
swag_regnety_128gf_in1k,1,118,NaN,keyboard,keyboard,90,0118_rot_dnn_90_keyboard_20_n03085013_2853.png
swag_regnety_128gf_in1k,1,119,NaN,boat,boat,90,0119_rot_dnn_90_boat_20_n04273569_7097.png
swag_regnety_128gf_in1k,1,120,NaN,bicycle,bicycle,270,0120_rot_dnn_270_bicycle_20_n03792782_40932.png
swag_regnety_128gf_in1k,1,121,NaN,chair,chair,270,0121_rot_dnn_270_chair_20_n04429376_44914.png
swag_regnety_128gf_in1k,1,122,NaN,bear,bear,180,0122_rot_dnn_180_bear_20_n02134418_2122.png
swag_regnety_128gf_in1k,1,123,NaN,keyboard,keyboard,90,0123_rot_dnn_90_keyboard_20_n03085013_22704.png
swag_regnety_128gf_in1k,1,124,NaN,truck,truck,0,0124_rot_dnn_0_truck_20_n03417042_6838.png
swag_regnety_128gf_in1k,1,125,NaN,elephant,elephant,0,0125_rot_dnn_0_elephant_20_n02504458_3628.png
swag_regnety_128gf_in1k,1,126,NaN,cat,cat,90,0126_rot_dnn_90_cat_20_n02123597_10141.png
swag_regnety_128gf_in1k,1,127,NaN,bicycle,bicycle,0,0127_rot_dnn_0_bicycle_20_n02835271_6383.png
swag_regnety_128gf_in1k,1,128,NaN,car,car,180,0128_rot_dnn_180_car_20_n04285008_7154.png
swag_regnety_128gf_in1k,1,129,NaN,bird,bird,0,0129_rot_dnn_0_bird_20_n02007558_1068.png
swag_regnety_128gf_in1k,1,130,NaN,cat,cat,90,0130_rot_dnn_90_cat_20_n02125311_1896.png
swag_regnety_128gf_in1k,1,131,NaN,keyboard,keyboard,0,0131_rot_dnn_0_keyboard_20_n04505470_1903.png
swag_regnety_128gf_in1k,1,132,NaN,bicycle,bicycle,90,0132_rot_dnn_90_bicycle_20_n03792782_66159.png
swag_regnety_128gf_in1k,1,133,NaN,bear,bear,90,0133_rot_dnn_90_bear_20_n02134418_5219.png
swag_regnety_128gf_in1k,1,134,NaN,car,car,90,0134_rot_dnn_90_car_20_n02814533_92229.png
swag_regnety_128gf_in1k,1,135,NaN,cat,dog,90,0135_rot_dnn_90_dog_20_n02090721_1002.png
swag_regnety_128gf_in1k,1,136,NaN,truck,truck,270,0136_rot_dnn_270_truck_20_n04467665_46263.png
swag_regnety_128gf_in1k,1,137,NaN,bottle,bottle,180,0137_rot_dnn_180_bottle_20_n03983396_704.png
swag_regnety_128gf_in1k,1,138,NaN,truck,truck,180,0138_rot_dnn_180_truck_20_n03796401_4149.png
swag_regnety_128gf_in1k,1,139,NaN,bird,bird,0,0139_rot_dnn_0_bird_20_n02006656_2030.png
swag_regnety_128gf_in1k,1,140,NaN,cat,cat,90,0140_rot_dnn_90_cat_20_n02123394_234.png
swag_regnety_128gf_in1k,1,141,NaN,chair,chair,90,0141_rot_dnn_90_chair_20_n04429376_19916.png
swag_regnety_128gf_in1k,1,142,NaN,truck,truck,270,0142_rot_dnn_270_truck_20_n04467665_14024.png
swag_regnety_128gf_in1k,1,143,NaN,chair,chair,90,0143_rot_dnn_90_chair_20_n04429376_14729.png
swag_regnety_128gf_in1k,1,144,NaN,car,car,270,0144_rot_dnn_270_car_20_n02814533_82321.png
swag_regnety_128gf_in1k,1,145,NaN,clock,clock,180,0145_rot_dnn_180_clock_20_n04548280_3701.png
swag_regnety_128gf_in1k,1,146,NaN,boat,boat,270,0146_rot_dnn_270_boat_20_n02951358_11442.png
swag_regnety_128gf_in1k,1,147,NaN,bear,bear,90,0147_rot_dnn_90_bear_20_n02132136_17349.png
swag_regnety_128gf_in1k,1,148,NaN,airplane,airplane,90,0148_rot_dnn_90_airplane_20_n02690373_4982.png
swag_regnety_128gf_in1k,1,149,NaN,airplane,airplane,0,0149_rot_dnn_0_airplane_20_n02690373_2232.png
swag_regnety_128gf_in1k,1,150,NaN,cat,cat,180,0150_rot_dnn_180_cat_20_n02123045_909.png
swag_regnety_128gf_in1k,1,151,NaN,clock,clock,180,0151_rot_dnn_180_clock_20_n04548280_1190.png
swag_regnety_128gf_in1k,1,152,NaN,oven,oven,90,0152_rot_dnn_90_oven_20_n04111531_1855.png
swag_regnety_128gf_in1k,1,153,NaN,boat,boat,270,0153_rot_dnn_270_boat_20_n03662601_21408.png
swag_regnety_128gf_in1k,1,154,NaN,dog,dog,90,0154_rot_dnn_90_dog_20_n02088364_15877.png
swag_regnety_128gf_in1k,1,155,NaN,knife,knife,90,0155_rot_dnn_90_knife_20_n03041632_15250.png
swag_regnety_128gf_in1k,1,156,NaN,oven,oven,0,0156_rot_dnn_0_oven_20_n04111531_17006.png
swag_regnety_128gf_in1k,1,157,NaN,clock,clock,90,0157_rot_dnn_90_clock_20_n04548280_11763.png
swag_regnety_128gf_in1k,1,158,NaN,bird,bird,270,0158_rot_dnn_270_bird_20_n02028035_8327.png
swag_regnety_128gf_in1k,1,159,NaN,car,car,90,0159_rot_dnn_90_car_20_n04285008_5641.png
swag_regnety_128gf_in1k,1,160,NaN,oven,oven,90,0160_rot_dnn_90_oven_20_n04111531_10727.png
swag_regnety_128gf_in1k,1,161,NaN,elephant,elephant,270,0161_rot_dnn_270_elephant_20_n02504458_1971.png
swag_regnety_128gf_in1k,1,162,NaN,bottle,bottle,180,0162_rot_dnn_180_bottle_20_n04560804_15941.png
swag_regnety_128gf_in1k,1,163,NaN,elephant,elephant,0,0163_rot_dnn_0_elephant_20_n02504458_151.png
swag_regnety_128gf_in1k,1,164,NaN,bear,bear,180,0164_rot_dnn_180_bear_20_n02133161_15427.png
swag_regnety_128gf_in1k,1,165,NaN,bear,bear,180,0165_rot_dnn_180_bear_20_n02134084_20605.png
swag_regnety_128gf_in1k,1,166,NaN,bottle,bottle,90,0166_rot_dnn_90_bottle_20_n04560804_2693.png
swag_regnety_128gf_in1k,1,167,NaN,airplane,airplane,270,0167_rot_dnn_270_airplane_20_n02690373_8214.png
swag_regnety_128gf_in1k,1,168,NaN,boat,boat,0,0168_rot_dnn_0_boat_20_n02951358_14966.png
swag_regnety_128gf_in1k,1,169,NaN,knife,knife,90,0169_rot_dnn_90_knife_20_n03041632_14801.png
swag_regnety_128gf_in1k,1,170,NaN,dog,dog,90,0170_rot_dnn_90_dog_20_n02110063_8776.png
swag_regnety_128gf_in1k,1,171,NaN,dog,dog,180,0171_rot_dnn_180_dog_20_n02100236_7671.png
swag_regnety_128gf_in1k,1,172,NaN,oven,oven,0,0172_rot_dnn_0_oven_20_n04111531_21248.png
swag_regnety_128gf_in1k,1,173,NaN,knife,knife,270,0173_rot_dnn_270_knife_20_n03041632_17100.png
swag_regnety_128gf_in1k,1,174,NaN,knife,knife,0,0174_rot_dnn_0_knife_20_n03041632_3781.png
swag_regnety_128gf_in1k,1,175,NaN,oven,oven,270,0175_rot_dnn_270_oven_20_n04111531_46651.png
swag_regnety_128gf_in1k,1,176,NaN,clock,clock,0,0176_rot_dnn_0_clock_20_n04548280_8303.png
swag_regnety_128gf_in1k,1,177,NaN,airplane,airplane,0,0177_rot_dnn_0_airplane_20_n02690373_2070.png
swag_regnety_128gf_in1k,1,178,NaN,car,car,180,0178_rot_dnn_180_car_20_n03100240_574.png
swag_regnety_128gf_in1k,1,179,NaN,dog,dog,90,0179_rot_dnn_90_dog_20_n02095570_11263.png
swag_regnety_128gf_in1k,1,180,NaN,bottle,bottle,180,0180_rot_dnn_180_bottle_20_n03983396_9667.png
swag_regnety_128gf_in1k,1,181,NaN,clock,clock,0,0181_rot_dnn_0_clock_20_n02708093_3535.png
swag_regnety_128gf_in1k,1,182,NaN,bird,bird,180,0182_rot_dnn_180_bird_20_n01531178_17239.png
swag_regnety_128gf_in1k,1,183,NaN,elephant,elephant,180,0183_rot_dnn_180_elephant_20_n02504458_2272.png
swag_regnety_128gf_in1k,1,184,NaN,knife,knife,90,0184_rot_dnn_90_knife_20_n03041632_50648.png
swag_regnety_128gf_in1k,1,185,NaN,knife,knife,0,0185_rot_dnn_0_knife_20_n03041632_33225.png
swag_regnety_128gf_in1k,1,186,NaN,airplane,airplane,0,0186_rot_dnn_0_airplane_20_n02690373_736.png
swag_regnety_128gf_in1k,1,187,NaN,knife,knife,270,0187_rot_dnn_270_knife_20_n03041632_2546.png
swag_regnety_128gf_in1k,1,188,NaN,boat,boat,180,0188_rot_dnn_180_boat_20_n04273569_13053.png
swag_regnety_128gf_in1k,1,189,NaN,airplane,airplane,180,0189_rot_dnn_180_airplane_20_n02690373_3588.png
swag_regnety_128gf_in1k,1,190,NaN,keyboard,keyboard,0,0190_rot_dnn_0_keyboard_20_n03085013_21004.png
swag_regnety_128gf_in1k,1,191,NaN,boat,boat,180,0191_rot_dnn_180_boat_20_n03662601_16627.png
swag_regnety_128gf_in1k,1,192,NaN,bird,bird,180,0192_rot_dnn_180_bird_20_n02017213_6478.png
swag_regnety_128gf_in1k,1,193,NaN,bear,bear,90,0193_rot_dnn_90_bear_20_n02134418_998.png
swag_regnety_128gf_in1k,1,194,NaN,truck,truck,90,0194_rot_dnn_90_truck_20_n04467665_71055.png
swag_regnety_128gf_in1k,1,195,NaN,car,car,90,0195_rot_dnn_90_car_20_n02814533_23979.png
swag_regnety_128gf_in1k,1,196,NaN,elephant,elephant,180,0196_rot_dnn_180_elephant_20_n02504458_6805.png
swag_regnety_128gf_in1k,1,197,NaN,clock,clock,90,0197_rot_dnn_90_clock_20_n04548280_4841.png
swag_regnety_128gf_in1k,1,198,NaN,boat,boat,90,0198_rot_dnn_90_boat_20_n03662601_6832.png
swag_regnety_128gf_in1k,1,199,NaN,oven,oven,270,0199_rot_dnn_270_oven_20_n04111531_766.png
swag_regnety_128gf_in1k,1,200,NaN,clock,clock,0,0200_rot_dnn_0_clock_20_n04548280_1305.png
swag_regnety_128gf_in1k,1,201,NaN,bicycle,bicycle,0,0201_rot_dnn_0_bicycle_20_n03792782_19083.png
swag_regnety_128gf_in1k,1,202,NaN,bird,bird,90,0202_rot_dnn_90_bird_20_n01860187_20081.png
swag_regnety_128gf_in1k,1,203,NaN,oven,oven,0,0203_rot_dnn_0_oven_20_n04111531_4817.png
swag_regnety_128gf_in1k,1,204,NaN,truck,car,180,0204_rot_dnn_180_car_20_n02814533_33360.png
swag_regnety_128gf_in1k,1,205,NaN,clock,clock,270,0205_rot_dnn_270_clock_20_n04548280_4035.png
swag_regnety_128gf_in1k,1,206,NaN,keyboard,keyboard,270,0206_rot_dnn_270_keyboard_20_n03085013_7879.png
swag_regnety_128gf_in1k,1,207,NaN,airplane,airplane,0,0207_rot_dnn_0_airplane_20_n02690373_2598.png
swag_regnety_128gf_in1k,1,208,NaN,cat,cat,180,0208_rot_dnn_180_cat_20_n02123045_436.png
swag_regnety_128gf_in1k,1,209,NaN,airplane,airplane,270,0209_rot_dnn_270_airplane_20_n02690373_813.png
swag_regnety_128gf_in1k,1,210,NaN,cat,cat,0,0210_rot_dnn_0_cat_20_n02123159_1008.png
swag_regnety_128gf_in1k,1,211,NaN,bottle,bottle,90,0211_rot_dnn_90_bottle_20_n03983396_5452.png
swag_regnety_128gf_in1k,1,212,NaN,dog,dog,90,0212_rot_dnn_90_dog_20_n02090379_13010.png
swag_regnety_128gf_in1k,1,213,NaN,chair,chair,180,0213_rot_dnn_180_chair_20_n04099969_4162.png
swag_regnety_128gf_in1k,1,214,NaN,keyboard,keyboard,270,0214_rot_dnn_270_keyboard_20_n04505470_206.png
swag_regnety_128gf_in1k,1,215,NaN,cat,cat,0,0215_rot_dnn_0_cat_20_n02123045_5290.png
swag_regnety_128gf_in1k,1,216,NaN,bird,bird,180,0216_rot_dnn_180_bird_20_n01843383_6001.png
swag_regnety_128gf_in1k,1,217,NaN,knife,knife,0,0217_rot_dnn_0_knife_20_n03041632_24376.png
swag_regnety_128gf_in1k,1,218,NaN,bicycle,bicycle,90,0218_rot_dnn_90_bicycle_20_n02835271_2915.png
swag_regnety_128gf_in1k,1,219,NaN,bicycle,bicycle,0,0219_rot_dnn_0_bicycle_20_n03792782_5517.png
swag_regnety_128gf_in1k,1,220,NaN,bicycle,bicycle,90,0220_rot_dnn_90_bicycle_20_n02835271_7053.png
swag_regnety_128gf_in1k,1,221,NaN,clock,clock,180,0221_rot_dnn_180_clock_20_n04548280_7115.png
swag_regnety_128gf_in1k,1,222,NaN,boat,boat,270,0222_rot_dnn_270_boat_20_n04273569_29866.png
swag_regnety_128gf_in1k,1,223,NaN,clock,clock,90,0223_rot_dnn_90_clock_20_n02708093_3623.png
swag_regnety_128gf_in1k,1,224,NaN,bear,bear,180,0224_rot_dnn_180_bear_20_n02132136_7468.png
swag_regnety_128gf_in1k,1,225,NaN,cat,cat,0,0225_rot_dnn_0_cat_20_n02123159_2137.png
swag_regnety_128gf_in1k,1,226,NaN,bottle,bottle,90,0226_rot_dnn_90_bottle_20_n03937543_5257.png
swag_regnety_128gf_in1k,1,227,NaN,cat,cat,0,0227_rot_dnn_0_cat_20_n02123394_937.png
swag_regnety_128gf_in1k,1,228,NaN,boat,boat,0,0228_rot_dnn_0_boat_20_n03662601_11764.png
swag_regnety_128gf_in1k,1,229,NaN,bear,bear,0,0229_rot_dnn_0_bear_20_n02132136_10412.png
swag_regnety_128gf_in1k,1,230,NaN,clock,clock,270,0230_rot_dnn_270_clock_20_n03196217_3600.png
swag_regnety_128gf_in1k,1,231,NaN,dog,dog,270,0231_rot_dnn_270_dog_20_n02102177_255.png
swag_regnety_128gf_in1k,1,232,NaN,bird,bird,270,0232_rot_dnn_270_bird_20_n01614925_1860.png
swag_regnety_128gf_in1k,1,233,NaN,airplane,airplane,180,0233_rot_dnn_180_airplane_20_n02690373_1021.png
swag_regnety_128gf_in1k,1,234,NaN,chair,chair,180,0234_rot_dnn_180_chair_20_n03376595_9079.png
swag_regnety_128gf_in1k,1,235,NaN,chair,chair,90,0235_rot_dnn_90_chair_20_n02791124_5199.png
swag_regnety_128gf_in1k,1,236,NaN,keyboard,keyboard,90,0236_rot_dnn_90_keyboard_20_n03085013_24294.png
swag_regnety_128gf_in1k,1,237,NaN,cat,cat,0,0237_rot_dnn_0_cat_20_n02123597_13286.png
swag_regnety_128gf_in1k,1,238,NaN,bird,bird,180,0238_rot_dnn_180_bird_20_n01560419_17392.png
swag_regnety_128gf_in1k,1,239,NaN,oven,oven,270,0239_rot_dnn_270_oven_20_n04111531_6934.png
swag_regnety_128gf_in1k,1,240,NaN,clock,clock,90,0240_rot_dnn_90_clock_20_n03196217_6707.png
swag_regnety_128gf_in1k,1,241,NaN,knife,knife,180,0241_rot_dnn_180_knife_20_n03041632_15174.png
swag_regnety_128gf_in1k,1,242,NaN,oven,oven,180,0242_rot_dnn_180_oven_20_n04111531_13644.png
swag_regnety_128gf_in1k,1,243,NaN,elephant,elephant,0,0243_rot_dnn_0_elephant_20_n02504458_3458.png
swag_regnety_128gf_in1k,1,244,NaN,clock,clock,90,0244_rot_dnn_90_clock_20_n04548280_18914.png
swag_regnety_128gf_in1k,1,245,NaN,dog,dog,180,0245_rot_dnn_180_dog_20_n02107908_2754.png
swag_regnety_128gf_in1k,1,246,NaN,airplane,airplane,0,0246_rot_dnn_0_airplane_20_n02690373_1306.png
swag_regnety_128gf_in1k,1,247,NaN,chair,chair,90,0247_rot_dnn_90_chair_20_n03376595_10266.png
swag_regnety_128gf_in1k,1,248,NaN,keyboard,keyboard,270,0248_rot_dnn_270_keyboard_20_n04505470_1416.png
swag_regnety_128gf_in1k,1,249,NaN,clock,clock,180,0249_rot_dnn_180_clock_20_n04548280_4686.png
swag_regnety_128gf_in1k,1,250,NaN,truck,truck,270,0250_rot_dnn_270_truck_20_n04467665_69882.png
swag_regnety_128gf_in1k,1,251,NaN,bottle,bottle,270,0251_rot_dnn_270_bottle_20_n04591713_2123.png
swag_regnety_128gf_in1k,1,252,NaN,oven,oven,90,0252_rot_dnn_90_oven_20_n04111531_6933.png
swag_regnety_128gf_in1k,1,253,NaN,car,car,270,0253_rot_dnn_270_car_20_n03100240_8898.png
swag_regnety_128gf_in1k,1,254,NaN,elephant,elephant,180,0254_rot_dnn_180_elephant_20_n02504458_5277.png
swag_regnety_128gf_in1k,1,255,NaN,truck,truck,270,0255_rot_dnn_270_truck_20_n03417042_9967.png
swag_regnety_128gf_in1k,1,256,NaN,bear,bear,0,0256_rot_dnn_0_bear_20_n02134418_1017.png
swag_regnety_128gf_in1k,1,257,NaN,airplane,airplane,90,0257_rot_dnn_90_airplane_20_n02690373_1909.png
swag_regnety_128gf_in1k,1,258,NaN,airplane,airplane,0,0258_rot_dnn_0_airplane_20_n02690373_6753.png
swag_regnety_128gf_in1k,1,259,NaN,airplane,airplane,0,0259_rot_dnn_0_airplane_20_n02690373_1972.png
swag_regnety_128gf_in1k,1,260,NaN,oven,oven,90,0260_rot_dnn_90_oven_20_n04111531_9915.png
swag_regnety_128gf_in1k,1,261,NaN,elephant,elephant,270,0261_rot_dnn_270_elephant_20_n02504458_485.png
swag_regnety_128gf_in1k,1,262,NaN,elephant,elephant,180,0262_rot_dnn_180_elephant_20_n02504013_2431.png
swag_regnety_128gf_in1k,1,263,NaN,clock,clock,180,0263_rot_dnn_180_clock_20_n02708093_1038.png
swag_regnety_128gf_in1k,1,264,NaN,cat,cat,270,0264_rot_dnn_270_cat_20_n02123597_5927.png
swag_regnety_128gf_in1k,1,265,NaN,bicycle,bicycle,90,0265_rot_dnn_90_bicycle_20_n03792782_3202.png
swag_regnety_128gf_in1k,1,266,NaN,car,car,270,0266_rot_dnn_270_car_20_n02814533_45480.png
swag_regnety_128gf_in1k,1,267,NaN,truck,truck,90,0267_rot_dnn_90_truck_20_n03796401_4571.png
swag_regnety_128gf_in1k,1,268,NaN,oven,oven,90,0268_rot_dnn_90_oven_20_n04111531_21011.png
swag_regnety_128gf_in1k,1,269,NaN,airplane,airplane,0,0269_rot_dnn_0_airplane_20_n02690373_4310.png
swag_regnety_128gf_in1k,1,270,NaN,oven,oven,0,0270_rot_dnn_0_oven_20_n04111531_7134.png
swag_regnety_128gf_in1k,1,271,NaN,dog,dog,270,0271_rot_dnn_270_dog_20_n02105251_1092.png
swag_regnety_128gf_in1k,1,272,NaN,knife,knife,180,0272_rot_dnn_180_knife_20_n03041632_34505.png
swag_regnety_128gf_in1k,1,273,NaN,keyboard,keyboard,90,0273_rot_dnn_90_keyboard_20_n04505470_4520.png
swag_regnety_128gf_in1k,1,274,NaN,boat,boat,180,0274_rot_dnn_180_boat_20_n03344393_1519.png
swag_regnety_128gf_in1k,1,275,NaN,chair,chair,270,0275_rot_dnn_270_chair_20_n03376595_9535.png
swag_regnety_128gf_in1k,1,276,NaN,cat,cat,270,0276_rot_dnn_270_cat_20_n02125311_1326.png
swag_regnety_128gf_in1k,1,277,NaN,cat,cat,90,0277_rot_dnn_90_cat_20_n02123394_2948.png
swag_regnety_128gf_in1k,1,278,NaN,oven,oven,270,0278_rot_dnn_270_oven_20_n04111531_5429.png
swag_regnety_128gf_in1k,1,279,NaN,elephant,elephant,0,0279_rot_dnn_0_elephant_20_n02504013_6645.png
swag_regnety_128gf_in1k,1,280,NaN,keyboard,keyboard,90,0280_rot_dnn_90_keyboard_20_n04505470_4159.png
swag_regnety_128gf_in1k,1,281,NaN,bottle,bottle,90,0281_rot_dnn_90_bottle_20_n02823428_6252.png
swag_regnety_128gf_in1k,1,282,NaN,airplane,airplane,180,0282_rot_dnn_180_airplane_20_n02690373_15097.png
swag_regnety_128gf_in1k,1,283,NaN,cat,cat,0,0283_rot_dnn_0_cat_20_n02123159_3420.png
swag_regnety_128gf_in1k,1,284,NaN,cat,cat,0,0284_rot_dnn_0_cat_20_n02124075_7835.png
swag_regnety_128gf_in1k,1,285,NaN,cat,cat,90,0285_rot_dnn_90_cat_20_n02123045_6696.png
swag_regnety_128gf_in1k,1,286,NaN,boat,boat,180,0286_rot_dnn_180_boat_20_n02951358_34766.png
swag_regnety_128gf_in1k,1,287,NaN,bird,bird,0,0287_rot_dnn_0_bird_20_n01855672_8191.png
swag_regnety_128gf_in1k,1,288,NaN,truck,truck,180,0288_rot_dnn_180_truck_20_n03796401_1150.png
swag_regnety_128gf_in1k,1,289,NaN,bicycle,bicycle,270,0289_rot_dnn_270_bicycle_20_n03792782_9782.png
swag_regnety_128gf_in1k,1,290,NaN,airplane,boat,270,0290_rot_dnn_270_boat_20_n03662601_12969.png
swag_regnety_128gf_in1k,1,291,NaN,bottle,bottle,180,0291_rot_dnn_180_bottle_20_n02823428_4530.png
swag_regnety_128gf_in1k,1,292,NaN,chair,chair,0,0292_rot_dnn_0_chair_20_n02791124_2898.png
swag_regnety_128gf_in1k,1,293,NaN,cat,cat,270,0293_rot_dnn_270_cat_20_n02123394_686.png
swag_regnety_128gf_in1k,1,294,NaN,dog,dog,180,0294_rot_dnn_180_dog_20_n02100735_4364.png
swag_regnety_128gf_in1k,1,295,NaN,dog,dog,0,0295_rot_dnn_0_dog_20_n02102177_7968.png
swag_regnety_128gf_in1k,1,296,NaN,knife,knife,270,0296_rot_dnn_270_knife_20_n03041632_15099.png
swag_regnety_128gf_in1k,1,297,NaN,oven,oven,180,0297_rot_dnn_180_oven_20_n04111531_2937.png
swag_regnety_128gf_in1k,1,298,NaN,cat,cat,0,0298_rot_dnn_0_cat_20_n02123394_3695.png
swag_regnety_128gf_in1k,1,299,NaN,bear,bear,180,0299_rot_dnn_180_bear_20_n02134084_3696.png
swag_regnety_128gf_in1k,1,300,NaN,oven,oven,270,0300_rot_dnn_270_oven_20_n04111531_4671.png
swag_regnety_128gf_in1k,1,301,NaN,bear,bear,180,0301_rot_dnn_180_bear_20_n02133161_2741.png
swag_regnety_128gf_in1k,1,302,NaN,boat,boat,90,0302_rot_dnn_90_boat_20_n03662601_3893.png
swag_regnety_128gf_in1k,1,303,NaN,boat,boat,90,0303_rot_dnn_90_boat_20_n03344393_2790.png
swag_regnety_128gf_in1k,1,304,NaN,keyboard,keyboard,180,0304_rot_dnn_180_keyboard_20_n03085013_3920.png
swag_regnety_128gf_in1k,1,305,NaN,chair,chair,90,0305_rot_dnn_90_chair_20_n04099969_1962.png
swag_regnety_128gf_in1k,1,306,NaN,knife,knife,0,0306_rot_dnn_0_knife_20_n03041632_13846.png
swag_regnety_128gf_in1k,1,307,NaN,boat,boat,0,0307_rot_dnn_0_boat_20_n02951358_30117.png
swag_regnety_128gf_in1k,1,308,NaN,elephant,elephant,270,0308_rot_dnn_270_elephant_20_n02504458_9922.png
swag_regnety_128gf_in1k,1,309,NaN,boat,boat,180,0309_rot_dnn_180_boat_20_n03344393_5609.png
swag_regnety_128gf_in1k,1,310,NaN,chair,chair,0,0310_rot_dnn_0_chair_20_n02791124_3180.png
swag_regnety_128gf_in1k,1,311,NaN,boat,boat,90,0311_rot_dnn_90_boat_20_n02951358_12532.png
swag_regnety_128gf_in1k,1,312,NaN,cat,cat,180,0312_rot_dnn_180_cat_20_n02123597_1901.png
swag_regnety_128gf_in1k,1,313,NaN,elephant,elephant,270,0313_rot_dnn_270_elephant_20_n02504013_5173.png
swag_regnety_128gf_in1k,1,314,NaN,car,car,180,0314_rot_dnn_180_car_20_n04285008_4834.png
swag_regnety_128gf_in1k,1,315,NaN,truck,truck,270,0315_rot_dnn_270_truck_20_n03417042_28584.png
swag_regnety_128gf_in1k,1,316,NaN,dog,dog,180,0316_rot_dnn_180_dog_20_n02093428_11151.png
swag_regnety_128gf_in1k,1,317,NaN,bicycle,bicycle,90,0317_rot_dnn_90_bicycle_20_n03792782_1475.png
swag_regnety_128gf_in1k,1,318,NaN,knife,knife,0,0318_rot_dnn_0_knife_20_n03041632_8666.png
swag_regnety_128gf_in1k,1,319,NaN,clock,clock,0,0319_rot_dnn_0_clock_20_n04548280_253.png
swag_regnety_128gf_in1k,1,320,NaN,airplane,airplane,180,0320_rot_dnn_180_airplane_20_n02690373_9441.png
swag_regnety_128gf_in1k,1,321,NaN,airplane,airplane,270,0321_rot_dnn_270_airplane_20_n02690373_1946.png
swag_regnety_128gf_in1k,1,322,NaN,car,car,90,0322_rot_dnn_90_car_20_n03100240_5044.png
swag_regnety_128gf_in1k,1,323,NaN,dog,dog,270,0323_rot_dnn_270_dog_20_n02111500_6559.png
swag_regnety_128gf_in1k,1,324,NaN,dog,dog,270,0324_rot_dnn_270_dog_20_n02096051_1852.png
swag_regnety_128gf_in1k,1,325,NaN,bear,bear,270,0325_rot_dnn_270_bear_20_n02133161_5020.png
swag_regnety_128gf_in1k,1,326,NaN,chair,chair,90,0326_rot_dnn_90_chair_20_n02791124_2034.png
swag_regnety_128gf_in1k,1,327,NaN,clock,clock,180,0327_rot_dnn_180_clock_20_n03196217_6526.png
swag_regnety_128gf_in1k,1,328,NaN,oven,oven,180,0328_rot_dnn_180_oven_20_n04111531_9779.png
swag_regnety_128gf_in1k,1,329,NaN,boat,boat,0,0329_rot_dnn_0_boat_20_n03662601_28640.png
swag_regnety_128gf_in1k,1,330,NaN,knife,knife,90,0330_rot_dnn_90_knife_20_n03041632_31301.png
swag_regnety_128gf_in1k,1,331,NaN,keyboard,keyboard,90,0331_rot_dnn_90_keyboard_20_n03085013_9209.png
swag_regnety_128gf_in1k,1,332,NaN,elephant,elephant,90,0332_rot_dnn_90_elephant_20_n02504458_113.png
swag_regnety_128gf_in1k,1,333,NaN,bicycle,bicycle,180,0333_rot_dnn_180_bicycle_20_n03792782_6058.png
swag_regnety_128gf_in1k,1,334,NaN,keyboard,keyboard,0,0334_rot_dnn_0_keyboard_20_n04505470_4651.png
swag_regnety_128gf_in1k,1,335,NaN,keyboard,keyboard,180,0335_rot_dnn_180_keyboard_20_n03085013_7009.png
swag_regnety_128gf_in1k,1,336,NaN,truck,truck,270,0336_rot_dnn_270_truck_20_n04467665_44390.png
swag_regnety_128gf_in1k,1,337,NaN,boat,boat,90,0337_rot_dnn_90_boat_20_n04273569_17340.png
swag_regnety_128gf_in1k,1,338,NaN,elephant,elephant,0,0338_rot_dnn_0_elephant_20_n02504013_1333.png
swag_regnety_128gf_in1k,1,339,NaN,knife,knife,270,0339_rot_dnn_270_knife_20_n03041632_50034.png
swag_regnety_128gf_in1k,1,340,NaN,clock,clock,90,0340_rot_dnn_90_clock_20_n02708093_2740.png
swag_regnety_128gf_in1k,1,341,NaN,bear,bear,0,0341_rot_dnn_0_bear_20_n02132136_13975.png
swag_regnety_128gf_in1k,1,342,NaN,elephant,elephant,90,0342_rot_dnn_90_elephant_20_n02504013_256.png
swag_regnety_128gf_in1k,1,343,NaN,boat,boat,90,0343_rot_dnn_90_boat_20_n03344393_6588.png
swag_regnety_128gf_in1k,1,344,NaN,knife,knife,270,0344_rot_dnn_270_knife_20_n03041632_7173.png
swag_regnety_128gf_in1k,1,345,NaN,boat,elephant,180,0345_rot_dnn_180_elephant_20_n02504458_1041.png
swag_regnety_128gf_in1k,1,346,NaN,chair,chair,180,0346_rot_dnn_180_chair_20_n04099969_8021.png
swag_regnety_128gf_in1k,1,347,NaN,truck,truck,0,0347_rot_dnn_0_truck_20_n03796401_1791.png
swag_regnety_128gf_in1k,1,348,NaN,keyboard,keyboard,90,0348_rot_dnn_90_keyboard_20_n04505470_5007.png
swag_regnety_128gf_in1k,1,349,NaN,truck,truck,180,0349_rot_dnn_180_truck_20_n03417042_29384.png
swag_regnety_128gf_in1k,1,350,NaN,bird,bird,90,0350_rot_dnn_90_bird_20_n01534433_1271.png
swag_regnety_128gf_in1k,1,351,NaN,dog,dog,270,0351_rot_dnn_270_dog_20_n02113624_393.png
swag_regnety_128gf_in1k,1,352,NaN,cat,cat,90,0352_rot_dnn_90_cat_20_n02123159_5461.png
swag_regnety_128gf_in1k,1,353,NaN,knife,knife,270,0353_rot_dnn_270_knife_20_n03041632_9759.png
swag_regnety_128gf_in1k,1,354,NaN,chair,chair,90,0354_rot_dnn_90_chair_20_n04429376_1754.png
swag_regnety_128gf_in1k,1,355,NaN,chair,oven,90,0355_rot_dnn_90_oven_20_n04111531_1818.png
swag_regnety_128gf_in1k,1,356,NaN,clock,clock,0,0356_rot_dnn_0_clock_20_n04548280_5798.png
swag_regnety_128gf_in1k,1,357,NaN,oven,oven,90,0357_rot_dnn_90_oven_20_n04111531_3099.png
swag_regnety_128gf_in1k,1,358,NaN,bottle,bottle,270,0358_rot_dnn_270_bottle_20_n04557648_581.png
swag_regnety_128gf_in1k,1,359,NaN,bird,bird,0,0359_rot_dnn_0_bird_20_n01531178_3183.png
swag_regnety_128gf_in1k,1,360,NaN,airplane,airplane,90,0360_rot_dnn_90_airplane_20_n02690373_8872.png
swag_regnety_128gf_in1k,1,361,NaN,cat,cat,0,0361_rot_dnn_0_cat_20_n02123394_5301.png
swag_regnety_128gf_in1k,1,362,NaN,bicycle,bicycle,270,0362_rot_dnn_270_bicycle_20_n03792782_12844.png
swag_regnety_128gf_in1k,1,363,NaN,bear,bear,90,0363_rot_dnn_90_bear_20_n02132136_2691.png
swag_regnety_128gf_in1k,1,364,NaN,car,car,0,0364_rot_dnn_0_car_20_n02814533_27327.png
swag_regnety_128gf_in1k,1,365,NaN,bird,bird,0,0365_rot_dnn_0_bird_20_n02027492_7653.png
swag_regnety_128gf_in1k,1,366,NaN,bear,bear,0,0366_rot_dnn_0_bear_20_n02133161_62.png
swag_regnety_128gf_in1k,1,367,NaN,bottle,bottle,0,0367_rot_dnn_0_bottle_20_n04560804_9710.png
swag_regnety_128gf_in1k,1,368,NaN,clock,clock,180,0368_rot_dnn_180_clock_20_n04548280_15154.png
swag_regnety_128gf_in1k,1,369,NaN,oven,oven,180,0369_rot_dnn_180_oven_20_n04111531_114.png
swag_regnety_128gf_in1k,1,370,NaN,cat,cat,180,0370_rot_dnn_180_cat_20_n02125311_24813.png
swag_regnety_128gf_in1k,1,371,NaN,airplane,airplane,90,0371_rot_dnn_90_airplane_20_n02690373_7647.png
swag_regnety_128gf_in1k,1,372,NaN,bottle,bottle,0,0372_rot_dnn_0_bottle_20_n03983396_9823.png
swag_regnety_128gf_in1k,1,373,NaN,bear,bear,0,0373_rot_dnn_0_bear_20_n02134418_2398.png
swag_regnety_128gf_in1k,1,374,NaN,keyboard,keyboard,90,0374_rot_dnn_90_keyboard_20_n04505470_4584.png
swag_regnety_128gf_in1k,1,375,NaN,keyboard,keyboard,0,0375_rot_dnn_0_keyboard_20_n04505470_10055.png
swag_regnety_128gf_in1k,1,376,NaN,boat,boat,270,0376_rot_dnn_270_boat_20_n04273569_10980.png
swag_regnety_128gf_in1k,1,377,NaN,car,car,180,0377_rot_dnn_180_car_20_n03100240_16210.png
swag_regnety_128gf_in1k,1,378,NaN,keyboard,keyboard,0,0378_rot_dnn_0_keyboard_20_n04505470_1067.png
swag_regnety_128gf_in1k,1,379,NaN,elephant,elephant,0,0379_rot_dnn_0_elephant_20_n02504458_7867.png
swag_regnety_128gf_in1k,1,380,NaN,keyboard,keyboard,180,0380_rot_dnn_180_keyboard_20_n04505470_807.png
swag_regnety_128gf_in1k,1,381,NaN,bicycle,bicycle,270,0381_rot_dnn_270_bicycle_20_n02835271_24104.png
swag_regnety_128gf_in1k,1,382,NaN,bottle,bottle,0,0382_rot_dnn_0_bottle_20_n03937543_6698.png
swag_regnety_128gf_in1k,1,383,NaN,oven,oven,0,0383_rot_dnn_0_oven_20_n04111531_10403.png
swag_regnety_128gf_in1k,1,384,NaN,truck,truck,0,0384_rot_dnn_0_truck_20_n03796401_8463.png
swag_regnety_128gf_in1k,1,385,NaN,truck,truck,0,0385_rot_dnn_0_truck_20_n03796401_8176.png
swag_regnety_128gf_in1k,1,386,NaN,bottle,bottle,90,0386_rot_dnn_90_bottle_20_n03937543_984.png
swag_regnety_128gf_in1k,1,387,NaN,bicycle,bicycle,90,0387_rot_dnn_90_bicycle_20_n02835271_11697.png
swag_regnety_128gf_in1k,1,388,NaN,keyboard,keyboard,270,0388_rot_dnn_270_keyboard_20_n03085013_22417.png
swag_regnety_128gf_in1k,1,389,NaN,car,car,270,0389_rot_dnn_270_car_20_n03100240_7602.png
swag_regnety_128gf_in1k,1,390,NaN,bird,bird,90,0390_rot_dnn_90_bird_20_n01534433_14389.png
swag_regnety_128gf_in1k,1,391,NaN,bear,bear,0,0391_rot_dnn_0_bear_20_n02134084_2598.png
swag_regnety_128gf_in1k,1,392,NaN,bird,bird,180,0392_rot_dnn_180_bird_20_n01560419_19599.png
swag_regnety_128gf_in1k,1,393,NaN,bicycle,bicycle,90,0393_rot_dnn_90_bicycle_20_n02835271_8747.png
swag_regnety_128gf_in1k,1,394,NaN,knife,knife,180,0394_rot_dnn_180_knife_20_n03041632_30821.png
swag_regnety_128gf_in1k,1,395,NaN,chair,chair,270,0395_rot_dnn_270_chair_20_n03376595_209.png
swag_regnety_128gf_in1k,1,396,NaN,boat,boat,180,0396_rot_dnn_180_boat_20_n04273569_29113.png
swag_regnety_128gf_in1k,1,397,NaN,bird,bird,270,0397_rot_dnn_270_bird_20_n02006656_6435.png
swag_regnety_128gf_in1k,1,398,NaN,airplane,airplane,90,0398_rot_dnn_90_airplane_20_n02690373_3492.png
swag_regnety_128gf_in1k,1,399,NaN,oven,oven,270,0399_rot_dnn_270_oven_20_n04111531_9380.png
swag_regnety_128gf_in1k,1,400,NaN,keyboard,keyboard,270,0400_rot_dnn_270_keyboard_20_n04505470_510.png
swag_regnety_128gf_in1k,1,401,NaN,bird,bird,180,0401_rot_dnn_180_bird_20_n02027492_20576.png
swag_regnety_128gf_in1k,1,402,NaN,bird,bird,90,0402_rot_dnn_90_bird_20_n01855032_1920.png
swag_regnety_128gf_in1k,1,403,NaN,boat,boat,180,0403_rot_dnn_180_boat_20_n04273569_15761.png
swag_regnety_128gf_in1k,1,404,NaN,oven,oven,180,0404_rot_dnn_180_oven_20_n04111531_10667.png
swag_regnety_128gf_in1k,1,405,NaN,knife,knife,270,0405_rot_dnn_270_knife_20_n03041632_36215.png
swag_regnety_128gf_in1k,1,406,NaN,bicycle,bicycle,180,0406_rot_dnn_180_bicycle_20_n02835271_2625.png
swag_regnety_128gf_in1k,1,407,NaN,bird,bird,270,0407_rot_dnn_270_bird_20_n02028035_20411.png
swag_regnety_128gf_in1k,1,408,NaN,knife,knife,0,0408_rot_dnn_0_knife_20_n03041632_25656.png
swag_regnety_128gf_in1k,1,409,NaN,oven,oven,270,0409_rot_dnn_270_oven_20_n04111531_4332.png
swag_regnety_128gf_in1k,1,410,NaN,keyboard,keyboard,180,0410_rot_dnn_180_keyboard_20_n04505470_3553.png
swag_regnety_128gf_in1k,1,411,NaN,bicycle,bicycle,180,0411_rot_dnn_180_bicycle_20_n02835271_18706.png
swag_regnety_128gf_in1k,1,412,NaN,truck,truck,270,0412_rot_dnn_270_truck_20_n03417042_10744.png
swag_regnety_128gf_in1k,1,413,NaN,clock,clock,0,0413_rot_dnn_0_clock_20_n03196217_11724.png
swag_regnety_128gf_in1k,1,414,NaN,bicycle,bicycle,270,0414_rot_dnn_270_bicycle_20_n02835271_14123.png
swag_regnety_128gf_in1k,1,415,NaN,bicycle,bicycle,270,0415_rot_dnn_270_bicycle_20_n02835271_7900.png
swag_regnety_128gf_in1k,1,416,NaN,truck,truck,270,0416_rot_dnn_270_truck_20_n03417042_2153.png
swag_regnety_128gf_in1k,1,417,NaN,bicycle,bicycle,270,0417_rot_dnn_270_bicycle_20_n03792782_10129.png
swag_regnety_128gf_in1k,1,418,NaN,bird,bird,180,0418_rot_dnn_180_bird_20_n01514859_18430.png
swag_regnety_128gf_in1k,1,419,NaN,chair,chair,0,0419_rot_dnn_0_chair_20_n04099969_5010.png
swag_regnety_128gf_in1k,1,420,NaN,truck,truck,0,0420_rot_dnn_0_truck_20_n03796401_588.png
swag_regnety_128gf_in1k,1,421,NaN,car,car,0,0421_rot_dnn_0_car_20_n02814533_486.png
swag_regnety_128gf_in1k,1,422,NaN,elephant,elephant,90,0422_rot_dnn_90_elephant_20_n02504013_3540.png
swag_regnety_128gf_in1k,1,423,NaN,car,car,180,0423_rot_dnn_180_car_20_n02814533_55715.png
swag_regnety_128gf_in1k,1,424,NaN,bottle,bottle,180,0424_rot_dnn_180_bottle_20_n03983396_10896.png
swag_regnety_128gf_in1k,1,425,NaN,bottle,bottle,90,0425_rot_dnn_90_bottle_20_n04557648_15053.png
swag_regnety_128gf_in1k,1,426,NaN,car,car,0,0426_rot_dnn_0_car_20_n04285008_8281.png
swag_regnety_128gf_in1k,1,427,NaN,car,car,270,0427_rot_dnn_270_car_20_n02814533_38596.png
swag_regnety_128gf_in1k,1,428,NaN,elephant,elephant,270,0428_rot_dnn_270_elephant_20_n02504013_15219.png
swag_regnety_128gf_in1k,1,429,NaN,elephant,elephant,180,0429_rot_dnn_180_elephant_20_n02504013_828.png
swag_regnety_128gf_in1k,1,430,NaN,oven,oven,180,0430_rot_dnn_180_oven_20_n04111531_1439.png
swag_regnety_128gf_in1k,1,431,NaN,bottle,bottle,90,0431_rot_dnn_90_bottle_20_n03983396_3315.png
swag_regnety_128gf_in1k,1,432,NaN,airplane,airplane,90,0432_rot_dnn_90_airplane_20_n02690373_4024.png
swag_regnety_128gf_in1k,1,433,NaN,elephant,elephant,270,0433_rot_dnn_270_elephant_20_n02504013_10301.png
swag_regnety_128gf_in1k,1,434,NaN,oven,oven,180,0434_rot_dnn_180_oven_20_n04111531_7067.png
swag_regnety_128gf_in1k,1,435,NaN,knife,knife,90,0435_rot_dnn_90_knife_20_n03041632_36834.png
swag_regnety_128gf_in1k,1,436,NaN,car,car,90,0436_rot_dnn_90_car_20_n02814533_18148.png
swag_regnety_128gf_in1k,1,437,NaN,cat,cat,90,0437_rot_dnn_90_cat_20_n02125311_41284.png
swag_regnety_128gf_in1k,1,438,NaN,bicycle,bicycle,0,0438_rot_dnn_0_bicycle_20_n02835271_18188.png
swag_regnety_128gf_in1k,1,439,NaN,bottle,bottle,0,0439_rot_dnn_0_bottle_20_n04591713_2903.png
swag_regnety_128gf_in1k,1,440,NaN,knife,knife,0,0440_rot_dnn_0_knife_20_n03041632_54191.png
swag_regnety_128gf_in1k,1,441,NaN,truck,truck,180,0441_rot_dnn_180_truck_20_n03417042_8867.png
swag_regnety_128gf_in1k,1,442,NaN,oven,oven,270,0442_rot_dnn_270_oven_20_n04111531_8421.png
swag_regnety_128gf_in1k,1,443,NaN,elephant,elephant,270,0443_rot_dnn_270_elephant_20_n02504013_4062.png
swag_regnety_128gf_in1k,1,444,NaN,keyboard,keyboard,270,0444_rot_dnn_270_keyboard_20_n04505470_1649.png
swag_regnety_128gf_in1k,1,445,NaN,boat,boat,180,0445_rot_dnn_180_boat_20_n03344393_7967.png
swag_regnety_128gf_in1k,1,446,NaN,bicycle,bicycle,0,0446_rot_dnn_0_bicycle_20_n02835271_10265.png
swag_regnety_128gf_in1k,1,447,NaN,truck,bicycle,180,0447_rot_dnn_180_bicycle_20_n02835271_6742.png
swag_regnety_128gf_in1k,1,448,NaN,cat,cat,180,0448_rot_dnn_180_cat_20_n02123045_3168.png
swag_regnety_128gf_in1k,1,449,NaN,car,car,180,0449_rot_dnn_180_car_20_n03100240_8489.png
swag_regnety_128gf_in1k,1,450,NaN,oven,oven,270,0450_rot_dnn_270_oven_20_n04111531_1826.png
swag_regnety_128gf_in1k,1,451,NaN,dog,dog,180,0451_rot_dnn_180_dog_20_n02104365_1592.png
swag_regnety_128gf_in1k,1,452,NaN,boat,boat,90,0452_rot_dnn_90_boat_20_n02951358_4343.png
swag_regnety_128gf_in1k,1,453,NaN,bottle,bottle,0,0453_rot_dnn_0_bottle_20_n02823428_4282.png
swag_regnety_128gf_in1k,1,454,NaN,bird,bird,0,0454_rot_dnn_0_bird_20_n01817953_2043.png
swag_regnety_128gf_in1k,1,455,NaN,dog,dog,0,0455_rot_dnn_0_dog_20_n02110958_14369.png
swag_regnety_128gf_in1k,1,456,NaN,dog,dog,270,0456_rot_dnn_270_dog_20_n02108000_1044.png
swag_regnety_128gf_in1k,1,457,NaN,dog,dog,270,0457_rot_dnn_270_dog_20_n02087394_1428.png
swag_regnety_128gf_in1k,1,458,NaN,airplane,airplane,90,0458_rot_dnn_90_airplane_20_n02690373_2856.png
swag_regnety_128gf_in1k,1,459,NaN,chair,chair,0,0459_rot_dnn_0_chair_20_n03376595_19165.png
swag_regnety_128gf_in1k,1,460,NaN,chair,chair,270,0460_rot_dnn_270_chair_20_n04099969_42125.png
swag_regnety_128gf_in1k,1,461,NaN,bottle,bottle,270,0461_rot_dnn_270_bottle_20_n02823428_12656.png
swag_regnety_128gf_in1k,1,462,NaN,bicycle,bicycle,180,0462_rot_dnn_180_bicycle_20_n02835271_5861.png
swag_regnety_128gf_in1k,1,463,NaN,airplane,airplane,90,0463_rot_dnn_90_airplane_20_n02690373_19345.png
swag_regnety_128gf_in1k,1,464,NaN,clock,clock,90,0464_rot_dnn_90_clock_20_n02708093_8069.png
swag_regnety_128gf_in1k,1,465,NaN,chair,chair,270,0465_rot_dnn_270_chair_20_n04099969_16.png
swag_regnety_128gf_in1k,1,466,NaN,dog,dog,270,0466_rot_dnn_270_dog_20_n02104365_1756.png
swag_regnety_128gf_in1k,1,467,NaN,bird,bird,270,0467_rot_dnn_270_bird_20_n01819313_17231.png
swag_regnety_128gf_in1k,1,468,NaN,car,car,90,0468_rot_dnn_90_car_20_n02814533_34149.png
swag_regnety_128gf_in1k,1,469,NaN,knife,knife,0,0469_rot_dnn_0_knife_20_n03041632_26053.png
swag_regnety_128gf_in1k,1,470,NaN,oven,oven,0,0470_rot_dnn_0_oven_20_n04111531_11287.png
swag_regnety_128gf_in1k,1,471,NaN,bottle,bottle,0,0471_rot_dnn_0_bottle_20_n03937543_11959.png
swag_regnety_128gf_in1k,1,472,NaN,airplane,airplane,270,0472_rot_dnn_270_airplane_20_n02690373_1348.png
swag_regnety_128gf_in1k,1,473,NaN,bear,bear,0,0473_rot_dnn_0_bear_20_n02132136_5175.png
swag_regnety_128gf_in1k,1,474,NaN,keyboard,keyboard,270,0474_rot_dnn_270_keyboard_20_n03085013_7382.png
swag_regnety_128gf_in1k,1,475,NaN,dog,dog,270,0475_rot_dnn_270_dog_20_n02109961_4280.png
swag_regnety_128gf_in1k,1,476,NaN,truck,truck,90,0476_rot_dnn_90_truck_20_n03417042_1344.png
swag_regnety_128gf_in1k,1,477,NaN,elephant,elephant,0,0477_rot_dnn_0_elephant_20_n02504013_9299.png
swag_regnety_128gf_in1k,1,478,NaN,bear,bear,0,0478_rot_dnn_0_bear_20_n02134418_5527.png
swag_regnety_128gf_in1k,1,479,NaN,keyboard,keyboard,270,0479_rot_dnn_270_keyboard_20_n03085013_23109.png
swag_regnety_128gf_in1k,1,480,NaN,bear,bear,180,0480_rot_dnn_180_bear_20_n02133161_4393.png
swag_regnety_128gf_in1k,1,481,NaN,oven,oven,0,0481_rot_dnn_0_oven_20_n04111531_73.png
swag_regnety_128gf_in1k,1,482,NaN,keyboard,keyboard,0,0482_rot_dnn_0_keyboard_20_n03085013_7613.png
swag_regnety_128gf_in1k,1,483,NaN,oven,oven,180,0483_rot_dnn_180_oven_20_n04111531_2795.png
swag_regnety_128gf_in1k,1,484,NaN,oven,oven,0,0484_rot_dnn_0_oven_20_n04111531_22517.png
swag_regnety_128gf_in1k,1,485,NaN,elephant,elephant,90,0485_rot_dnn_90_elephant_20_n02504458_2613.png
swag_regnety_128gf_in1k,1,486,NaN,oven,oven,180,0486_rot_dnn_180_oven_20_n04111531_9176.png
swag_regnety_128gf_in1k,1,487,NaN,bottle,bottle,180,0487_rot_dnn_180_bottle_20_n04557648_5790.png
swag_regnety_128gf_in1k,1,488,NaN,truck,truck,90,0488_rot_dnn_90_truck_20_n04467665_9812.png
swag_regnety_128gf_in1k,1,489,NaN,bottle,bottle,0,0489_rot_dnn_0_bottle_20_n04591713_7476.png
swag_regnety_128gf_in1k,1,490,NaN,elephant,elephant,90,0490_rot_dnn_90_elephant_20_n02504458_1567.png
swag_regnety_128gf_in1k,1,491,NaN,clock,clock,90,0491_rot_dnn_90_clock_20_n04548280_6865.png
swag_regnety_128gf_in1k,1,492,NaN,bottle,bottle,180,0492_rot_dnn_180_bottle_20_n02823428_3.png
swag_regnety_128gf_in1k,1,493,NaN,boat,boat,90,0493_rot_dnn_90_boat_20_n04273569_8951.png
swag_regnety_128gf_in1k,1,494,NaN,knife,knife,180,0494_rot_dnn_180_knife_20_n03041632_53874.png
swag_regnety_128gf_in1k,1,495,NaN,clock,clock,0,0495_rot_dnn_0_clock_20_n04548280_6126.png
swag_regnety_128gf_in1k,1,496,NaN,cat,cat,180,0496_rot_dnn_180_cat_20_n02123597_6186.png
swag_regnety_128gf_in1k,1,497,NaN,cat,cat,270,0497_rot_dnn_270_cat_20_n02124075_14662.png
swag_regnety_128gf_in1k,1,498,NaN,car,car,90,0498_rot_dnn_90_car_20_n04285008_8677.png
swag_regnety_128gf_in1k,1,499,NaN,bird,bird,90,0499_rot_dnn_90_bird_20_n01820546_2568.png
swag_regnety_128gf_in1k,1,500,NaN,clock,clock,90,0500_rot_dnn_90_clock_20_n04548280_7354.png
swag_regnety_128gf_in1k,1,501,NaN,bicycle,bicycle,270,0501_rot_dnn_270_bicycle_20_n03792782_586.png
swag_regnety_128gf_in1k,1,502,NaN,bear,bear,0,0502_rot_dnn_0_bear_20_n02134084_572.png
swag_regnety_128gf_in1k,1,503,NaN,bicycle,bicycle,270,0503_rot_dnn_270_bicycle_20_n03792782_3388.png
swag_regnety_128gf_in1k,1,504,NaN,bicycle,bicycle,270,0504_rot_dnn_270_bicycle_20_n03792782_28970.png
swag_regnety_128gf_in1k,1,505,NaN,bottle,bottle,270,0505_rot_dnn_270_bottle_20_n04560804_11386.png
swag_regnety_128gf_in1k,1,506,NaN,chair,chair,180,0506_rot_dnn_180_chair_20_n03376595_6799.png
swag_regnety_128gf_in1k,1,507,NaN,dog,dog,270,0507_rot_dnn_270_dog_20_n02094258_6398.png
swag_regnety_128gf_in1k,1,508,NaN,bird,bird,0,0508_rot_dnn_0_bird_20_n01592084_2639.png
swag_regnety_128gf_in1k,1,509,NaN,bird,bird,180,0509_rot_dnn_180_bird_20_n02017213_4781.png
swag_regnety_128gf_in1k,1,510,NaN,airplane,airplane,270,0510_rot_dnn_270_airplane_20_n02690373_3818.png
swag_regnety_128gf_in1k,1,511,NaN,bicycle,bicycle,90,0511_rot_dnn_90_bicycle_20_n03792782_26383.png
swag_regnety_128gf_in1k,1,512,NaN,oven,oven,90,0512_rot_dnn_90_oven_20_n04111531_5216.png
swag_regnety_128gf_in1k,1,513,NaN,airplane,airplane,180,0513_rot_dnn_180_airplane_20_n02690373_20331.png
swag_regnety_128gf_in1k,1,514,NaN,truck,truck,180,0514_rot_dnn_180_truck_20_n04467665_23691.png
swag_regnety_128gf_in1k,1,515,NaN,bird,bird,0,0515_rot_dnn_0_bird_20_n02009229_492.png
swag_regnety_128gf_in1k,1,516,NaN,bird,bird,90,0516_rot_dnn_90_bird_20_n02002556_5890.png
swag_regnety_128gf_in1k,1,517,NaN,bird,bird,270,0517_rot_dnn_270_bird_20_n01855032_5358.png
swag_regnety_128gf_in1k,1,518,NaN,dog,dog,180,0518_rot_dnn_180_dog_20_n02112350_10026.png
swag_regnety_128gf_in1k,1,519,NaN,knife,knife,90,0519_rot_dnn_90_knife_20_n03041632_11773.png
swag_regnety_128gf_in1k,1,520,NaN,elephant,elephant,0,0520_rot_dnn_0_elephant_20_n02504013_20486.png
swag_regnety_128gf_in1k,1,521,NaN,oven,oven,0,0521_rot_dnn_0_oven_20_n04111531_27.png
swag_regnety_128gf_in1k,1,522,NaN,bird,bird,180,0522_rot_dnn_180_bird_20_n01855672_15421.png
swag_regnety_128gf_in1k,1,523,NaN,bear,bear,270,0523_rot_dnn_270_bear_20_n02132136_239.png
swag_regnety_128gf_in1k,1,524,NaN,keyboard,keyboard,90,0524_rot_dnn_90_keyboard_20_n03085013_25924.png
swag_regnety_128gf_in1k,1,525,NaN,bicycle,bicycle,180,0525_rot_dnn_180_bicycle_20_n03792782_6030.png
swag_regnety_128gf_in1k,1,526,NaN,bottle,bottle,270,0526_rot_dnn_270_bottle_20_n03983396_5497.png
swag_regnety_128gf_in1k,1,527,NaN,chair,chair,180,0527_rot_dnn_180_chair_20_n04429376_6390.png
swag_regnety_128gf_in1k,1,528,NaN,dog,dog,90,0528_rot_dnn_90_dog_20_n02100877_11159.png
swag_regnety_128gf_in1k,1,529,NaN,bottle,bottle,180,0529_rot_dnn_180_bottle_20_n04579145_579.png
swag_regnety_128gf_in1k,1,530,NaN,cat,cat,90,0530_rot_dnn_90_cat_20_n02123159_5678.png
swag_regnety_128gf_in1k,1,531,NaN,elephant,elephant,180,0531_rot_dnn_180_elephant_20_n02504013_13283.png
swag_regnety_128gf_in1k,1,532,NaN,dog,dog,90,0532_rot_dnn_90_dog_20_n02095570_7633.png
swag_regnety_128gf_in1k,1,533,NaN,clock,clock,180,0533_rot_dnn_180_clock_20_n02708093_8311.png
swag_regnety_128gf_in1k,1,534,NaN,chair,chair,270,0534_rot_dnn_270_chair_20_n03376595_426.png
swag_regnety_128gf_in1k,1,535,NaN,dog,dog,180,0535_rot_dnn_180_dog_20_n02100877_3112.png
swag_regnety_128gf_in1k,1,536,NaN,car,car,270,0536_rot_dnn_270_car_20_n02814533_458.png
swag_regnety_128gf_in1k,1,537,NaN,bird,bird,0,0537_rot_dnn_0_bird_20_n02006656_5079.png
swag_regnety_128gf_in1k,1,538,NaN,boat,boat,90,0538_rot_dnn_90_boat_20_n04273569_12725.png
swag_regnety_128gf_in1k,1,539,NaN,cat,cat,270,0539_rot_dnn_270_cat_20_n02123045_6677.png
swag_regnety_128gf_in1k,1,540,NaN,bicycle,bicycle,270,0540_rot_dnn_270_bicycle_20_n02835271_4440.png
swag_regnety_128gf_in1k,1,541,NaN,keyboard,keyboard,270,0541_rot_dnn_270_keyboard_20_n03085013_21444.png
swag_regnety_128gf_in1k,1,542,NaN,clock,clock,180,0542_rot_dnn_180_clock_20_n02708093_8255.png
swag_regnety_128gf_in1k,1,543,NaN,bicycle,bicycle,0,0543_rot_dnn_0_bicycle_20_n02835271_30318.png
swag_regnety_128gf_in1k,1,544,NaN,cat,cat,180,0544_rot_dnn_180_cat_20_n02123394_2059.png
swag_regnety_128gf_in1k,1,545,NaN,elephant,elephant,180,0545_rot_dnn_180_elephant_20_n02504013_6618.png
swag_regnety_128gf_in1k,1,546,NaN,cat,cat,270,0546_rot_dnn_270_cat_20_n02124075_8889.png
swag_regnety_128gf_in1k,1,547,NaN,dog,dog,90,0547_rot_dnn_90_dog_20_n02100877_7302.png
swag_regnety_128gf_in1k,1,548,NaN,car,car,180,0548_rot_dnn_180_car_20_n02814533_85971.png
swag_regnety_128gf_in1k,1,549,NaN,chair,chair,0,0549_rot_dnn_0_chair_20_n03376595_5909.png
swag_regnety_128gf_in1k,1,550,NaN,keyboard,keyboard,270,0550_rot_dnn_270_keyboard_20_n03085013_13083.png
swag_regnety_128gf_in1k,1,551,NaN,oven,oven,90,0551_rot_dnn_90_oven_20_n04111531_9611.png
swag_regnety_128gf_in1k,1,552,NaN,boat,boat,0,0552_rot_dnn_0_boat_20_n02951358_13996.png
swag_regnety_128gf_in1k,1,553,NaN,boat,boat,0,0553_rot_dnn_0_boat_20_n03344393_9251.png
swag_regnety_128gf_in1k,1,554,NaN,airplane,airplane,180,0554_rot_dnn_180_airplane_20_n02690373_9175.png
swag_regnety_128gf_in1k,1,555,NaN,bear,bear,0,0555_rot_dnn_0_bear_20_n02132136_2791.png
swag_regnety_128gf_in1k,1,556,NaN,elephant,elephant,180,0556_rot_dnn_180_elephant_20_n02504458_193.png
swag_regnety_128gf_in1k,1,557,NaN,bird,bird,270,0557_rot_dnn_270_bird_20_n01843383_9985.png
swag_regnety_128gf_in1k,1,558,NaN,bird,bird,270,0558_rot_dnn_270_bird_20_n02028035_10744.png
swag_regnety_128gf_in1k,1,559,NaN,truck,truck,270,0559_rot_dnn_270_truck_20_n04467665_3720.png
swag_regnety_128gf_in1k,1,560,NaN,car,car,0,0560_rot_dnn_0_car_20_n02814533_52605.png
swag_regnety_128gf_in1k,1,561,NaN,clock,clock,90,0561_rot_dnn_90_clock_20_n04548280_5631.png
swag_regnety_128gf_in1k,1,562,NaN,oven,oven,0,0562_rot_dnn_0_oven_20_n04111531_1922.png
swag_regnety_128gf_in1k,1,563,NaN,airplane,boat,180,0563_rot_dnn_180_boat_20_n03662601_1197.png
swag_regnety_128gf_in1k,1,564,NaN,clock,clock,270,0564_rot_dnn_270_clock_20_n02708093_1862.png
swag_regnety_128gf_in1k,1,565,NaN,truck,truck,180,0565_rot_dnn_180_truck_20_n03796401_4582.png
swag_regnety_128gf_in1k,1,566,NaN,elephant,elephant,90,0566_rot_dnn_90_elephant_20_n02504013_565.png
swag_regnety_128gf_in1k,1,567,NaN,truck,truck,180,0567_rot_dnn_180_truck_20_n04467665_49826.png
swag_regnety_128gf_in1k,1,568,NaN,knife,bear,270,0568_rot_dnn_270_bear_20_n02134418_5067.png
swag_regnety_128gf_in1k,1,569,NaN,clock,chair,90,0569_rot_dnn_90_chair_20_n04429376_29223.png
swag_regnety_128gf_in1k,1,570,NaN,airplane,airplane,270,0570_rot_dnn_270_airplane_20_n02690373_5909.png
swag_regnety_128gf_in1k,1,571,NaN,car,dog,270,0571_rot_dnn_270_dog_20_n02097658_722.png
swag_regnety_128gf_in1k,1,572,NaN,oven,oven,0,0572_rot_dnn_0_oven_20_n04111531_10339.png
swag_regnety_128gf_in1k,1,573,NaN,truck,truck,90,0573_rot_dnn_90_truck_20_n03417042_28078.png
swag_regnety_128gf_in1k,1,574,NaN,chair,chair,180,0574_rot_dnn_180_chair_20_n04099969_22118.png
swag_regnety_128gf_in1k,1,575,NaN,clock,clock,270,0575_rot_dnn_270_clock_20_n04548280_7978.png
swag_regnety_128gf_in1k,1,576,NaN,bear,bear,180,0576_rot_dnn_180_bear_20_n02133161_1962.png
swag_regnety_128gf_in1k,1,577,NaN,clock,clock,180,0577_rot_dnn_180_clock_20_n04548280_13750.png
swag_regnety_128gf_in1k,1,578,NaN,keyboard,keyboard,0,0578_rot_dnn_0_keyboard_20_n03085013_15249.png
swag_regnety_128gf_in1k,1,579,NaN,car,car,90,0579_rot_dnn_90_car_20_n02814533_479.png
swag_regnety_128gf_in1k,1,580,NaN,keyboard,keyboard,270,0580_rot_dnn_270_keyboard_20_n03085013_20716.png
swag_regnety_128gf_in1k,1,581,NaN,bird,bird,180,0581_rot_dnn_180_bird_20_n01530575_7990.png
swag_regnety_128gf_in1k,1,582,NaN,chair,chair,0,0582_rot_dnn_0_chair_20_n04429376_17343.png
swag_regnety_128gf_in1k,1,583,NaN,chair,chair,90,0583_rot_dnn_90_chair_20_n02791124_8775.png
swag_regnety_128gf_in1k,1,584,NaN,cat,cat,90,0584_rot_dnn_90_cat_20_n02125311_2959.png
swag_regnety_128gf_in1k,1,585,NaN,oven,oven,180,0585_rot_dnn_180_oven_20_n04111531_13906.png
swag_regnety_128gf_in1k,1,586,NaN,airplane,airplane,90,0586_rot_dnn_90_airplane_20_n02690373_7293.png
swag_regnety_128gf_in1k,1,587,NaN,chair,chair,180,0587_rot_dnn_180_chair_20_n04099969_10825.png
swag_regnety_128gf_in1k,1,588,NaN,airplane,airplane,180,0588_rot_dnn_180_airplane_20_n02690373_17044.png
swag_regnety_128gf_in1k,1,589,NaN,bird,bird,0,0589_rot_dnn_0_bird_20_n01797886_6169.png
swag_regnety_128gf_in1k,1,590,NaN,oven,oven,0,0590_rot_dnn_0_oven_20_n04111531_13255.png
swag_regnety_128gf_in1k,1,591,NaN,knife,knife,270,0591_rot_dnn_270_knife_20_n03041632_17820.png
swag_regnety_128gf_in1k,1,592,NaN,bicycle,bicycle,270,0592_rot_dnn_270_bicycle_20_n02835271_21640.png
swag_regnety_128gf_in1k,1,593,NaN,bear,bear,0,0593_rot_dnn_0_bear_20_n02134418_517.png
swag_regnety_128gf_in1k,1,594,NaN,airplane,airplane,180,0594_rot_dnn_180_airplane_20_n02690373_4588.png
swag_regnety_128gf_in1k,1,595,NaN,bottle,bottle,270,0595_rot_dnn_270_bottle_20_n02823428_12190.png
swag_regnety_128gf_in1k,1,596,NaN,bottle,bottle,0,0596_rot_dnn_0_bottle_20_n04591713_1717.png
swag_regnety_128gf_in1k,1,597,NaN,knife,knife,0,0597_rot_dnn_0_knife_20_n03041632_9488.png
swag_regnety_128gf_in1k,1,598,NaN,truck,truck,90,0598_rot_dnn_90_truck_20_n03417042_11166.png
swag_regnety_128gf_in1k,1,599,NaN,elephant,elephant,90,0599_rot_dnn_90_elephant_20_n02504458_585.png
swag_regnety_128gf_in1k,1,600,NaN,keyboard,keyboard,0,0600_rot_dnn_0_keyboard_20_n04505470_5046.png
swag_regnety_128gf_in1k,1,601,NaN,chair,chair,180,0601_rot_dnn_180_chair_20_n03376595_4937.png
swag_regnety_128gf_in1k,1,602,NaN,boat,boat,180,0602_rot_dnn_180_boat_20_n03662601_1740.png
swag_regnety_128gf_in1k,1,603,NaN,knife,knife,0,0603_rot_dnn_0_knife_20_n03041632_4037.png
swag_regnety_128gf_in1k,1,604,NaN,boat,boat,0,0604_rot_dnn_0_boat_20_n04273569_1538.png
swag_regnety_128gf_in1k,1,605,NaN,bird,bird,0,0605_rot_dnn_0_bird_20_n02017213_15918.png
swag_regnety_128gf_in1k,1,606,NaN,keyboard,keyboard,0,0606_rot_dnn_0_keyboard_20_n03085013_10463.png
swag_regnety_128gf_in1k,1,607,NaN,bear,bear,270,0607_rot_dnn_270_bear_20_n02133161_7939.png
swag_regnety_128gf_in1k,1,608,NaN,truck,car,270,0608_rot_dnn_270_car_20_n04285008_11704.png
swag_regnety_128gf_in1k,1,609,NaN,truck,truck,90,0609_rot_dnn_90_truck_20_n03796401_16046.png
swag_regnety_128gf_in1k,1,610,NaN,chair,chair,270,0610_rot_dnn_270_chair_20_n02791124_3710.png
swag_regnety_128gf_in1k,1,611,NaN,keyboard,keyboard,180,0611_rot_dnn_180_keyboard_20_n04505470_3566.png
swag_regnety_128gf_in1k,1,612,NaN,boat,bird,90,0612_rot_dnn_90_bird_20_n02037110_8716.png
swag_regnety_128gf_in1k,1,613,NaN,car,car,0,0613_rot_dnn_0_car_20_n03100240_19550.png
swag_regnety_128gf_in1k,1,614,NaN,airplane,airplane,270,0614_rot_dnn_270_airplane_20_n02690373_10769.png
swag_regnety_128gf_in1k,1,615,NaN,bicycle,bicycle,0,0615_rot_dnn_0_bicycle_20_n03792782_3456.png
swag_regnety_128gf_in1k,1,616,NaN,chair,chair,0,0616_rot_dnn_0_chair_20_n03376595_2368.png
swag_regnety_128gf_in1k,1,617,NaN,dog,dog,0,0617_rot_dnn_0_dog_20_n02091467_2974.png
swag_regnety_128gf_in1k,1,618,NaN,knife,knife,180,0618_rot_dnn_180_knife_20_n03041632_43634.png
swag_regnety_128gf_in1k,1,619,NaN,keyboard,keyboard,180,0619_rot_dnn_180_keyboard_20_n04505470_4477.png
swag_regnety_128gf_in1k,1,620,NaN,boat,boat,90,0620_rot_dnn_90_boat_20_n03344393_4773.png
swag_regnety_128gf_in1k,1,621,NaN,airplane,airplane,180,0621_rot_dnn_180_airplane_20_n02690373_139.png
swag_regnety_128gf_in1k,1,622,NaN,knife,knife,270,0622_rot_dnn_270_knife_20_n03041632_737.png
swag_regnety_128gf_in1k,1,623,NaN,chair,chair,270,0623_rot_dnn_270_chair_20_n02791124_2698.png
swag_regnety_128gf_in1k,1,624,NaN,truck,truck,270,0624_rot_dnn_270_truck_20_n03417042_5301.png
swag_regnety_128gf_in1k,1,625,NaN,bird,bird,0,0625_rot_dnn_0_bird_20_n02006656_5757.png
swag_regnety_128gf_in1k,1,626,NaN,elephant,bear,270,0626_rot_dnn_270_bear_20_n02132136_15174.png
swag_regnety_128gf_in1k,1,627,NaN,bottle,bottle,270,0627_rot_dnn_270_bottle_20_n04560804_6329.png
swag_regnety_128gf_in1k,1,628,NaN,truck,truck,0,0628_rot_dnn_0_truck_20_n03417042_22196.png
swag_regnety_128gf_in1k,1,629,NaN,cat,cat,0,0629_rot_dnn_0_cat_20_n02125311_18366.png
swag_regnety_128gf_in1k,1,630,NaN,chair,chair,0,0630_rot_dnn_0_chair_20_n02791124_12707.png
swag_regnety_128gf_in1k,1,631,NaN,oven,oven,180,0631_rot_dnn_180_oven_20_n04111531_1938.png
swag_regnety_128gf_in1k,1,632,NaN,airplane,airplane,270,0632_rot_dnn_270_airplane_20_n02690373_9346.png
swag_regnety_128gf_in1k,1,633,NaN,cat,cat,0,0633_rot_dnn_0_cat_20_n02123045_10433.png
swag_regnety_128gf_in1k,1,634,NaN,airplane,airplane,180,0634_rot_dnn_180_airplane_20_n02690373_5055.png
swag_regnety_128gf_in1k,1,635,NaN,clock,clock,270,0635_rot_dnn_270_clock_20_n04548280_4198.png
swag_regnety_128gf_in1k,1,636,NaN,bicycle,bicycle,90,0636_rot_dnn_90_bicycle_20_n03792782_12010.png
swag_regnety_128gf_in1k,1,637,NaN,cat,cat,180,0637_rot_dnn_180_cat_20_n02125311_24586.png
swag_regnety_128gf_in1k,1,638,NaN,chair,chair,0,0638_rot_dnn_0_chair_20_n02791124_3220.png
swag_regnety_128gf_in1k,1,639,NaN,car,car,90,0639_rot_dnn_90_car_20_n04285008_12737.png
swag_regnety_128gf_in1k,1,640,NaN,chair,chair,180,0640_rot_dnn_180_chair_20_n04429376_4296.png
swag_regnety_128gf_in1k,1,641,NaN,airplane,airplane,90,0641_rot_dnn_90_airplane_20_n02690373_5534.png
swag_regnety_128gf_in1k,1,642,NaN,dog,dog,180,0642_rot_dnn_180_dog_20_n02113978_2286.png
swag_regnety_128gf_in1k,1,643,NaN,dog,dog,0,0643_rot_dnn_0_dog_20_n02087394_3354.png
swag_regnety_128gf_in1k,1,644,NaN,chair,chair,180,0644_rot_dnn_180_chair_20_n03376595_2103.png
swag_regnety_128gf_in1k,1,645,NaN,elephant,elephant,0,0645_rot_dnn_0_elephant_20_n02504458_5181.png
swag_regnety_128gf_in1k,1,646,NaN,chair,chair,270,0646_rot_dnn_270_chair_20_n02791124_10287.png
swag_regnety_128gf_in1k,1,647,NaN,oven,oven,90,0647_rot_dnn_90_oven_20_n04111531_22291.png
swag_regnety_128gf_in1k,1,648,NaN,bottle,bottle,90,0648_rot_dnn_90_bottle_20_n03937543_4399.png
swag_regnety_128gf_in1k,1,649,NaN,truck,truck,90,0649_rot_dnn_90_truck_20_n03796401_13226.png
swag_regnety_128gf_in1k,1,650,NaN,airplane,airplane,270,0650_rot_dnn_270_airplane_20_n02690373_5430.png
swag_regnety_128gf_in1k,1,651,NaN,cat,cat,90,0651_rot_dnn_90_cat_20_n02124075_20.png
swag_regnety_128gf_in1k,1,652,NaN,keyboard,keyboard,90,0652_rot_dnn_90_keyboard_20_n04505470_4943.png
swag_regnety_128gf_in1k,1,653,NaN,truck,car,180,0653_rot_dnn_180_car_20_n03100240_4288.png
swag_regnety_128gf_in1k,1,654,NaN,dog,dog,0,0654_rot_dnn_0_dog_20_n02109525_7478.png
swag_regnety_128gf_in1k,1,655,NaN,bicycle,bicycle,0,0655_rot_dnn_0_bicycle_20_n03792782_4895.png
swag_regnety_128gf_in1k,1,656,NaN,oven,oven,0,0656_rot_dnn_0_oven_20_n04111531_8077.png
swag_regnety_128gf_in1k,1,657,NaN,airplane,airplane,90,0657_rot_dnn_90_airplane_20_n02690373_4845.png
swag_regnety_128gf_in1k,1,658,NaN,cat,cat,90,0658_rot_dnn_90_cat_20_n02125311_59332.png
swag_regnety_128gf_in1k,1,659,NaN,bicycle,bicycle,180,0659_rot_dnn_180_bicycle_20_n02835271_24.png
swag_regnety_128gf_in1k,1,660,NaN,oven,truck,180,0660_rot_dnn_180_truck_20_n04467665_22637.png
swag_regnety_128gf_in1k,1,661,NaN,dog,dog,180,0661_rot_dnn_180_dog_20_n02101006_6694.png
swag_regnety_128gf_in1k,1,662,NaN,car,car,0,0662_rot_dnn_0_car_20_n02814533_37256.png
swag_regnety_128gf_in1k,1,663,NaN,bear,bear,0,0663_rot_dnn_0_bear_20_n02134418_132.png
swag_regnety_128gf_in1k,1,664,NaN,knife,knife,180,0664_rot_dnn_180_knife_20_n03041632_41310.png
swag_regnety_128gf_in1k,1,665,NaN,bird,bird,0,0665_rot_dnn_0_bird_20_n01530575_3198.png
swag_regnety_128gf_in1k,1,666,NaN,bicycle,bicycle,180,0666_rot_dnn_180_bicycle_20_n02835271_3643.png
swag_regnety_128gf_in1k,1,667,NaN,chair,chair,180,0667_rot_dnn_180_chair_20_n02791124_3186.png
swag_regnety_128gf_in1k,1,668,NaN,chair,chair,270,0668_rot_dnn_270_chair_20_n04099969_5396.png
swag_regnety_128gf_in1k,1,669,NaN,dog,dog,0,0669_rot_dnn_0_dog_20_n02110806_749.png
swag_regnety_128gf_in1k,1,670,NaN,truck,car,180,0670_rot_dnn_180_car_20_n04285008_7155.png
swag_regnety_128gf_in1k,1,671,NaN,airplane,airplane,270,0671_rot_dnn_270_airplane_20_n02690373_6621.png
swag_regnety_128gf_in1k,1,672,NaN,cat,cat,270,0672_rot_dnn_270_cat_20_n02124075_11727.png
swag_regnety_128gf_in1k,1,673,NaN,elephant,elephant,180,0673_rot_dnn_180_elephant_20_n02504013_1078.png
swag_regnety_128gf_in1k,1,674,NaN,knife,knife,180,0674_rot_dnn_180_knife_20_n03041632_21017.png
swag_regnety_128gf_in1k,1,675,NaN,knife,knife,180,0675_rot_dnn_180_knife_20_n03041632_22330.png
swag_regnety_128gf_in1k,1,676,NaN,clock,clock,270,0676_rot_dnn_270_clock_20_n03196217_368.png
swag_regnety_128gf_in1k,1,677,NaN,knife,knife,0,0677_rot_dnn_0_knife_20_n03041632_99912.png
swag_regnety_128gf_in1k,1,678,NaN,boat,boat,180,0678_rot_dnn_180_boat_20_n03344393_7705.png
swag_regnety_128gf_in1k,1,679,NaN,bear,bear,180,0679_rot_dnn_180_bear_20_n02134084_41588.png
swag_regnety_128gf_in1k,1,680,NaN,knife,knife,0,0680_rot_dnn_0_knife_20_n03041632_45775.png
swag_regnety_128gf_in1k,1,681,NaN,bicycle,bicycle,180,0681_rot_dnn_180_bicycle_20_n02835271_24630.png
swag_regnety_128gf_in1k,1,682,NaN,boat,boat,270,0682_rot_dnn_270_boat_20_n03662601_22973.png
swag_regnety_128gf_in1k,1,683,NaN,car,car,270,0683_rot_dnn_270_car_20_n02814533_8042.png
swag_regnety_128gf_in1k,1,684,NaN,boat,boat,0,0684_rot_dnn_0_boat_20_n03662601_17483.png
swag_regnety_128gf_in1k,1,685,NaN,bicycle,bicycle,180,0685_rot_dnn_180_bicycle_20_n03792782_13680.png
swag_regnety_128gf_in1k,1,686,NaN,chair,chair,180,0686_rot_dnn_180_chair_20_n03376595_15468.png
swag_regnety_128gf_in1k,1,687,NaN,knife,knife,270,0687_rot_dnn_270_knife_20_n03041632_26236.png
swag_regnety_128gf_in1k,1,688,NaN,cat,cat,180,0688_rot_dnn_180_cat_20_n02125311_41650.png
swag_regnety_128gf_in1k,1,689,NaN,car,car,90,0689_rot_dnn_90_car_20_n02814533_5916.png
swag_regnety_128gf_in1k,1,690,NaN,knife,knife,180,0690_rot_dnn_180_knife_20_n03041632_7116.png
swag_regnety_128gf_in1k,1,691,NaN,bottle,bottle,90,0691_rot_dnn_90_bottle_20_n04560804_13583.png
swag_regnety_128gf_in1k,1,692,NaN,bicycle,bicycle,180,0692_rot_dnn_180_bicycle_20_n02835271_10933.png
swag_regnety_128gf_in1k,1,693,NaN,truck,truck,180,0693_rot_dnn_180_truck_20_n04467665_9589.png
swag_regnety_128gf_in1k,1,694,NaN,car,car,180,0694_rot_dnn_180_car_20_n03100240_1750.png
swag_regnety_128gf_in1k,1,695,NaN,bear,bear,270,0695_rot_dnn_270_bear_20_n02134418_1094.png
swag_regnety_128gf_in1k,1,696,NaN,clock,clock,0,0696_rot_dnn_0_clock_20_n04548280_7792.png
swag_regnety_128gf_in1k,1,697,NaN,airplane,airplane,0,0697_rot_dnn_0_airplane_20_n02690373_7142.png
swag_regnety_128gf_in1k,1,698,NaN,keyboard,keyboard,0,0698_rot_dnn_0_keyboard_20_n04505470_7312.png
swag_regnety_128gf_in1k,1,699,NaN,bear,bear,90,0699_rot_dnn_90_bear_20_n02132136_18953.png
swag_regnety_128gf_in1k,1,700,NaN,bird,bird,270,0700_rot_dnn_270_bird_20_n02056570_9303.png
swag_regnety_128gf_in1k,1,701,NaN,chair,chair,0,0701_rot_dnn_0_chair_20_n02791124_4956.png
swag_regnety_128gf_in1k,1,702,NaN,dog,dog,0,0702_rot_dnn_0_dog_20_n02087394_9061.png
swag_regnety_128gf_in1k,1,703,NaN,bird,bird,270,0703_rot_dnn_270_bird_20_n02025239_13707.png
swag_regnety_128gf_in1k,1,704,NaN,knife,knife,270,0704_rot_dnn_270_knife_20_n03041632_14916.png
swag_regnety_128gf_in1k,1,705,NaN,chair,chair,180,0705_rot_dnn_180_chair_20_n02791124_1287.png
swag_regnety_128gf_in1k,1,706,NaN,bear,bear,180,0706_rot_dnn_180_bear_20_n02134418_1825.png
swag_regnety_128gf_in1k,1,707,NaN,elephant,elephant,0,0707_rot_dnn_0_elephant_20_n02504013_6999.png
swag_regnety_128gf_in1k,1,708,NaN,clock,clock,270,0708_rot_dnn_270_clock_20_n04548280_7050.png
swag_regnety_128gf_in1k,1,709,NaN,cat,cat,180,0709_rot_dnn_180_cat_20_n02123394_8100.png
swag_regnety_128gf_in1k,1,710,NaN,oven,oven,180,0710_rot_dnn_180_oven_20_n04111531_11026.png
swag_regnety_128gf_in1k,1,711,NaN,car,car,0,0711_rot_dnn_0_car_20_n02814533_79974.png
swag_regnety_128gf_in1k,1,712,NaN,chair,chair,0,0712_rot_dnn_0_chair_20_n04429376_10994.png
swag_regnety_128gf_in1k,1,713,NaN,boat,boat,90,0713_rot_dnn_90_boat_20_n02951358_582.png
swag_regnety_128gf_in1k,1,714,NaN,keyboard,keyboard,270,0714_rot_dnn_270_keyboard_20_n03085013_24385.png
swag_regnety_128gf_in1k,1,715,NaN,bear,bear,0,0715_rot_dnn_0_bear_20_n02133161_4218.png
swag_regnety_128gf_in1k,1,716,NaN,keyboard,keyboard,270,0716_rot_dnn_270_keyboard_20_n03085013_1070.png
swag_regnety_128gf_in1k,1,717,NaN,bicycle,bicycle,180,0717_rot_dnn_180_bicycle_20_n02835271_2131.png
swag_regnety_128gf_in1k,1,718,NaN,elephant,oven,90,0718_rot_dnn_90_oven_20_n04111531_8988.png
swag_regnety_128gf_in1k,1,719,NaN,elephant,elephant,90,0719_rot_dnn_90_elephant_20_n02504458_3608.png
swag_regnety_128gf_in1k,1,720,NaN,boat,boat,270,0720_rot_dnn_270_boat_20_n03344393_2961.png
swag_regnety_128gf_in1k,1,721,NaN,oven,oven,90,0721_rot_dnn_90_oven_20_n04111531_12980.png
swag_regnety_128gf_in1k,1,722,NaN,airplane,airplane,180,0722_rot_dnn_180_airplane_20_n02690373_7046.png
swag_regnety_128gf_in1k,1,723,NaN,bottle,bottle,0,0723_rot_dnn_0_bottle_20_n03937543_1929.png
swag_regnety_128gf_in1k,1,724,NaN,dog,dog,90,0724_rot_dnn_90_dog_20_n02087394_7707.png
swag_regnety_128gf_in1k,1,725,NaN,chair,chair,180,0725_rot_dnn_180_chair_20_n03376595_9219.png
swag_regnety_128gf_in1k,1,726,NaN,airplane,airplane,180,0726_rot_dnn_180_airplane_20_n02690373_5838.png
swag_regnety_128gf_in1k,1,727,NaN,chair,chair,0,0727_rot_dnn_0_chair_20_n04099969_16669.png
swag_regnety_128gf_in1k,1,728,NaN,bird,bird,180,0728_rot_dnn_180_bird_20_n01532829_37796.png
swag_regnety_128gf_in1k,1,729,NaN,airplane,airplane,180,0729_rot_dnn_180_airplane_20_n02690373_6602.png
swag_regnety_128gf_in1k,1,730,NaN,bear,bear,180,0730_rot_dnn_180_bear_20_n02134418_200.png
swag_regnety_128gf_in1k,1,731,NaN,car,car,0,0731_rot_dnn_0_car_20_n03100240_16084.png
swag_regnety_128gf_in1k,1,732,NaN,bear,bear,270,0732_rot_dnn_270_bear_20_n02134084_18952.png
swag_regnety_128gf_in1k,1,733,NaN,boat,boat,90,0733_rot_dnn_90_boat_20_n04273569_1050.png
swag_regnety_128gf_in1k,1,734,NaN,dog,dog,0,0734_rot_dnn_0_dog_20_n02092339_659.png
swag_regnety_128gf_in1k,1,735,NaN,elephant,elephant,0,0735_rot_dnn_0_elephant_20_n02504458_493.png
swag_regnety_128gf_in1k,1,736,NaN,truck,truck,90,0736_rot_dnn_90_truck_20_n03417042_9238.png
swag_regnety_128gf_in1k,1,737,NaN,truck,truck,90,0737_rot_dnn_90_truck_20_n04467665_8303.png
swag_regnety_128gf_in1k,1,738,NaN,cat,cat,270,0738_rot_dnn_270_cat_20_n02123394_6969.png
swag_regnety_128gf_in1k,1,739,NaN,bottle,bottle,90,0739_rot_dnn_90_bottle_20_n03983396_618.png
swag_regnety_128gf_in1k,1,740,NaN,elephant,elephant,0,0740_rot_dnn_0_elephant_20_n02504458_8621.png
swag_regnety_128gf_in1k,1,741,NaN,bicycle,bicycle,90,0741_rot_dnn_90_bicycle_20_n02835271_3308.png
swag_regnety_128gf_in1k,1,742,NaN,bird,bird,90,0742_rot_dnn_90_bird_20_n02025239_17065.png
swag_regnety_128gf_in1k,1,743,NaN,clock,clock,0,0743_rot_dnn_0_clock_20_n04548280_4582.png
swag_regnety_128gf_in1k,1,744,NaN,keyboard,keyboard,180,0744_rot_dnn_180_keyboard_20_n04505470_933.png
swag_regnety_128gf_in1k,1,745,NaN,cat,cat,270,0745_rot_dnn_270_cat_20_n02123597_2549.png
swag_regnety_128gf_in1k,1,746,NaN,boat,boat,90,0746_rot_dnn_90_boat_20_n04612504_30766.png
swag_regnety_128gf_in1k,1,747,NaN,airplane,airplane,90,0747_rot_dnn_90_airplane_20_n02690373_4695.png
swag_regnety_128gf_in1k,1,748,NaN,oven,oven,0,0748_rot_dnn_0_oven_20_n04111531_18648.png
swag_regnety_128gf_in1k,1,749,NaN,bicycle,bicycle,180,0749_rot_dnn_180_bicycle_20_n02835271_14862.png
swag_regnety_128gf_in1k,1,750,NaN,knife,knife,180,0750_rot_dnn_180_knife_20_n03041632_101810.png
swag_regnety_128gf_in1k,1,751,NaN,keyboard,keyboard,0,0751_rot_dnn_0_keyboard_20_n03085013_3795.png
swag_regnety_128gf_in1k,1,752,NaN,clock,clock,90,0752_rot_dnn_90_clock_20_n03196217_1458.png
swag_regnety_128gf_in1k,1,753,NaN,bear,bear,180,0753_rot_dnn_180_bear_20_n02134418_4458.png
swag_regnety_128gf_in1k,1,754,NaN,cat,cat,180,0754_rot_dnn_180_cat_20_n02123045_11545.png
swag_regnety_128gf_in1k,1,755,NaN,bird,bird,270,0755_rot_dnn_270_bird_20_n01592084_8100.png
swag_regnety_128gf_in1k,1,756,NaN,car,car,270,0756_rot_dnn_270_car_20_n04285008_12504.png
swag_regnety_128gf_in1k,1,757,NaN,bear,bear,180,0757_rot_dnn_180_bear_20_n02133161_5235.png
swag_regnety_128gf_in1k,1,758,NaN,cat,cat,270,0758_rot_dnn_270_cat_20_n02125311_33586.png
swag_regnety_128gf_in1k,1,759,NaN,bird,bird,180,0759_rot_dnn_180_bird_20_n01820546_1089.png
swag_regnety_128gf_in1k,1,760,NaN,knife,knife,270,0760_rot_dnn_270_knife_20_n03041632_18995.png
swag_regnety_128gf_in1k,1,761,NaN,bottle,bottle,90,0761_rot_dnn_90_bottle_20_n02823428_4299.png
swag_regnety_128gf_in1k,1,762,NaN,cat,cat,90,0762_rot_dnn_90_cat_20_n02123045_7294.png
swag_regnety_128gf_in1k,1,763,NaN,truck,truck,180,0763_rot_dnn_180_truck_20_n03796401_6315.png
swag_regnety_128gf_in1k,1,764,NaN,knife,knife,90,0764_rot_dnn_90_knife_20_n03041632_30248.png
swag_regnety_128gf_in1k,1,765,NaN,clock,clock,270,0765_rot_dnn_270_clock_20_n02708093_1981.png
swag_regnety_128gf_in1k,1,766,NaN,bird,bird,180,0766_rot_dnn_180_bird_20_n02002724_6462.png
swag_regnety_128gf_in1k,1,767,NaN,chair,chair,90,0767_rot_dnn_90_chair_20_n04099969_48945.png
swag_regnety_128gf_in1k,1,768,NaN,clock,clock,270,0768_rot_dnn_270_clock_20_n03196217_2291.png
swag_regnety_128gf_in1k,1,769,NaN,bottle,bottle,90,0769_rot_dnn_90_bottle_20_n03937543_4830.png
swag_regnety_128gf_in1k,1,770,NaN,bear,bear,180,0770_rot_dnn_180_bear_20_n02134418_5260.png
swag_regnety_128gf_in1k,1,771,NaN,keyboard,keyboard,90,0771_rot_dnn_90_keyboard_20_n04505470_4047.png
swag_regnety_128gf_in1k,1,772,NaN,bird,bird,270,0772_rot_dnn_270_bird_20_n01531178_4324.png
swag_regnety_128gf_in1k,1,773,NaN,knife,knife,90,0773_rot_dnn_90_knife_20_n03041632_4806.png
swag_regnety_128gf_in1k,1,774,NaN,bottle,bottle,270,0774_rot_dnn_270_bottle_20_n04557648_4727.png
swag_regnety_128gf_in1k,1,775,NaN,dog,dog,270,0775_rot_dnn_270_dog_20_n02092002_5845.png
swag_regnety_128gf_in1k,1,776,NaN,knife,knife,180,0776_rot_dnn_180_knife_20_n03041632_9580.png
swag_regnety_128gf_in1k,1,777,NaN,oven,oven,90,0777_rot_dnn_90_oven_20_n04111531_7728.png
swag_regnety_128gf_in1k,1,778,NaN,bear,bear,0,0778_rot_dnn_0_bear_20_n02134084_3934.png
swag_regnety_128gf_in1k,1,779,NaN,bottle,bottle,270,0779_rot_dnn_270_bottle_20_n04557648_16525.png
swag_regnety_128gf_in1k,1,780,NaN,bottle,bottle,0,0780_rot_dnn_0_bottle_20_n03983396_4313.png
swag_regnety_128gf_in1k,1,781,NaN,dog,dog,0,0781_rot_dnn_0_dog_20_n02097209_1042.png
swag_regnety_128gf_in1k,1,782,NaN,airplane,airplane,270,0782_rot_dnn_270_airplane_20_n02690373_8876.png
swag_regnety_128gf_in1k,1,783,NaN,cat,cat,270,0783_rot_dnn_270_cat_20_n02123597_2219.png
swag_regnety_128gf_in1k,1,784,NaN,boat,boat,270,0784_rot_dnn_270_boat_20_n02951358_9837.png
swag_regnety_128gf_in1k,1,785,NaN,bird,bird,180,0785_rot_dnn_180_bird_20_n02018207_5735.png
swag_regnety_128gf_in1k,1,786,NaN,boat,boat,0,0786_rot_dnn_0_boat_20_n03662601_7324.png
swag_regnety_128gf_in1k,1,787,NaN,bottle,bottle,90,0787_rot_dnn_90_bottle_20_n04579145_6509.png
swag_regnety_128gf_in1k,1,788,NaN,clock,clock,0,0788_rot_dnn_0_clock_20_n02708093_2030.png
swag_regnety_128gf_in1k,1,789,NaN,chair,chair,0,0789_rot_dnn_0_chair_20_n04099969_5854.png
swag_regnety_128gf_in1k,1,790,NaN,clock,clock,0,0790_rot_dnn_0_clock_20_n04548280_7211.png
swag_regnety_128gf_in1k,1,791,NaN,bear,bear,270,0791_rot_dnn_270_bear_20_n02134084_3903.png
swag_regnety_128gf_in1k,1,792,NaN,bear,bear,90,0792_rot_dnn_90_bear_20_n02134084_7817.png
swag_regnety_128gf_in1k,1,793,NaN,dog,dog,90,0793_rot_dnn_90_dog_20_n02099601_10748.png
swag_regnety_128gf_in1k,1,794,NaN,oven,oven,0,0794_rot_dnn_0_oven_20_n04111531_1230.png
swag_regnety_128gf_in1k,1,795,NaN,car,car,0,0795_rot_dnn_0_car_20_n02814533_70448.png
swag_regnety_128gf_in1k,1,796,NaN,knife,knife,0,0796_rot_dnn_0_knife_20_n03041632_49570.png
swag_regnety_128gf_in1k,1,797,NaN,car,car,0,0797_rot_dnn_0_car_20_n04285008_12909.png
swag_regnety_128gf_in1k,1,798,NaN,boat,boat,0,0798_rot_dnn_0_boat_20_n03344393_6297.png
swag_regnety_128gf_in1k,1,799,NaN,keyboard,keyboard,90,0799_rot_dnn_90_keyboard_20_n03085013_22665.png
swag_regnety_128gf_in1k,1,800,NaN,dog,dog,270,0800_rot_dnn_270_dog_20_n02109047_13710.png
swag_regnety_128gf_in1k,1,801,NaN,car,car,270,0801_rot_dnn_270_car_20_n02814533_23563.png
swag_regnety_128gf_in1k,1,802,NaN,bicycle,bicycle,0,0802_rot_dnn_0_bicycle_20_n03792782_892.png
swag_regnety_128gf_in1k,1,803,NaN,bird,bird,180,0803_rot_dnn_180_bird_20_n01616318_1164.png
swag_regnety_128gf_in1k,1,804,NaN,bear,bear,270,0804_rot_dnn_270_bear_20_n02134418_5827.png
swag_regnety_128gf_in1k,1,805,NaN,knife,knife,270,0805_rot_dnn_270_knife_20_n03041632_424.png
swag_regnety_128gf_in1k,1,806,NaN,dog,elephant,90,0806_rot_dnn_90_elephant_20_n02504013_4379.png
swag_regnety_128gf_in1k,1,807,NaN,keyboard,keyboard,0,0807_rot_dnn_0_keyboard_20_n03085013_22744.png
swag_regnety_128gf_in1k,1,808,NaN,clock,clock,90,0808_rot_dnn_90_clock_20_n04548280_5937.png
swag_regnety_128gf_in1k,1,809,NaN,bottle,bottle,90,0809_rot_dnn_90_bottle_20_n03983396_5514.png
swag_regnety_128gf_in1k,1,810,NaN,truck,truck,0,0810_rot_dnn_0_truck_20_n03417042_889.png
swag_regnety_128gf_in1k,1,811,NaN,clock,clock,180,0811_rot_dnn_180_clock_20_n02708093_906.png
swag_regnety_128gf_in1k,1,812,NaN,bicycle,bicycle,180,0812_rot_dnn_180_bicycle_20_n03792782_15282.png
swag_regnety_128gf_in1k,1,813,NaN,clock,clock,90,0813_rot_dnn_90_clock_20_n04548280_1254.png
swag_regnety_128gf_in1k,1,814,NaN,airplane,airplane,0,0814_rot_dnn_0_airplane_20_n02690373_764.png
swag_regnety_128gf_in1k,1,815,NaN,bicycle,bicycle,270,0815_rot_dnn_270_bicycle_20_n02835271_22206.png
swag_regnety_128gf_in1k,1,816,NaN,bottle,bottle,0,0816_rot_dnn_0_bottle_20_n02823428_3570.png
swag_regnety_128gf_in1k,1,817,NaN,bicycle,bicycle,180,0817_rot_dnn_180_bicycle_20_n03792782_14413.png
swag_regnety_128gf_in1k,1,818,NaN,bear,bear,90,0818_rot_dnn_90_bear_20_n02134418_2661.png
swag_regnety_128gf_in1k,1,819,NaN,cat,cat,270,0819_rot_dnn_270_cat_20_n02123394_4700.png
swag_regnety_128gf_in1k,1,820,NaN,bottle,bottle,0,0820_rot_dnn_0_bottle_20_n04557648_3959.png
swag_regnety_128gf_in1k,1,821,NaN,bottle,bottle,90,0821_rot_dnn_90_bottle_20_n03937543_2469.png
swag_regnety_128gf_in1k,1,822,NaN,clock,clock,90,0822_rot_dnn_90_clock_20_n02708093_2676.png
swag_regnety_128gf_in1k,1,823,NaN,cat,cat,0,0823_rot_dnn_0_cat_20_n02123597_19872.png
swag_regnety_128gf_in1k,1,824,NaN,oven,oven,180,0824_rot_dnn_180_oven_20_n04111531_14488.png
swag_regnety_128gf_in1k,1,825,NaN,clock,clock,270,0825_rot_dnn_270_clock_20_n02708093_3841.png
swag_regnety_128gf_in1k,1,826,NaN,cat,cat,180,0826_rot_dnn_180_cat_20_n02123045_11787.png
swag_regnety_128gf_in1k,1,827,NaN,elephant,elephant,90,0827_rot_dnn_90_elephant_20_n02504458_6470.png
swag_regnety_128gf_in1k,1,828,NaN,bird,bird,270,0828_rot_dnn_270_bird_20_n01558993_55.png
swag_regnety_128gf_in1k,1,829,NaN,elephant,elephant,270,0829_rot_dnn_270_elephant_20_n02504458_8296.png
swag_regnety_128gf_in1k,1,830,NaN,car,car,270,0830_rot_dnn_270_car_20_n02814533_41670.png
swag_regnety_128gf_in1k,1,831,NaN,bottle,bottle,0,0831_rot_dnn_0_bottle_20_n03983396_1881.png
swag_regnety_128gf_in1k,1,832,NaN,airplane,airplane,180,0832_rot_dnn_180_airplane_20_n02690373_1491.png
swag_regnety_128gf_in1k,1,833,NaN,oven,oven,0,0833_rot_dnn_0_oven_20_n04111531_6204.png
swag_regnety_128gf_in1k,1,834,NaN,elephant,elephant,270,0834_rot_dnn_270_elephant_20_n02504013_5364.png
swag_regnety_128gf_in1k,1,835,NaN,airplane,airplane,0,0835_rot_dnn_0_airplane_20_n02690373_389.png
swag_regnety_128gf_in1k,1,836,NaN,cat,cat,90,0836_rot_dnn_90_cat_20_n02123159_6933.png
swag_regnety_128gf_in1k,1,837,NaN,dog,dog,90,0837_rot_dnn_90_dog_20_n02111277_2994.png
swag_regnety_128gf_in1k,1,838,NaN,dog,dog,0,0838_rot_dnn_0_dog_20_n02112018_7786.png
swag_regnety_128gf_in1k,1,839,NaN,bear,bear,90,0839_rot_dnn_90_bear_20_n02134418_10879.png
swag_regnety_128gf_in1k,1,840,NaN,clock,clock,270,0840_rot_dnn_270_clock_20_n03196217_1984.png
swag_regnety_128gf_in1k,1,841,NaN,clock,clock,270,0841_rot_dnn_270_clock_20_n03196217_5433.png
swag_regnety_128gf_in1k,1,842,NaN,bird,bird,90,0842_rot_dnn_90_bird_20_n02006656_10849.png
swag_regnety_128gf_in1k,1,843,NaN,bicycle,bicycle,0,0843_rot_dnn_0_bicycle_20_n03792782_15757.png
swag_regnety_128gf_in1k,1,844,NaN,bicycle,bicycle,90,0844_rot_dnn_90_bicycle_20_n02835271_4797.png
swag_regnety_128gf_in1k,1,845,NaN,clock,clock,0,0845_rot_dnn_0_clock_20_n02708093_1897.png
swag_regnety_128gf_in1k,1,846,NaN,bottle,bottle,270,0846_rot_dnn_270_bottle_20_n02823428_1495.png
swag_regnety_128gf_in1k,1,847,NaN,clock,clock,0,0847_rot_dnn_0_clock_20_n04548280_3038.png
swag_regnety_128gf_in1k,1,848,NaN,bird,bird,90,0848_rot_dnn_90_bird_20_n01614925_2052.png
swag_regnety_128gf_in1k,1,849,NaN,boat,boat,0,0849_rot_dnn_0_boat_20_n03662601_16495.png
swag_regnety_128gf_in1k,1,850,NaN,knife,knife,90,0850_rot_dnn_90_knife_20_n03041632_33255.png
swag_regnety_128gf_in1k,1,851,NaN,keyboard,keyboard,180,0851_rot_dnn_180_keyboard_20_n03085013_24105.png
swag_regnety_128gf_in1k,1,852,NaN,bird,bird,0,0852_rot_dnn_0_bird_20_n02033041_3924.png
swag_regnety_128gf_in1k,1,853,NaN,dog,dog,90,0853_rot_dnn_90_dog_20_n02110806_8971.png
swag_regnety_128gf_in1k,1,854,NaN,keyboard,keyboard,270,0854_rot_dnn_270_keyboard_20_n04505470_2055.png
swag_regnety_128gf_in1k,1,855,NaN,car,car,270,0855_rot_dnn_270_car_20_n03100240_5946.png
swag_regnety_128gf_in1k,1,856,NaN,boat,boat,180,0856_rot_dnn_180_boat_20_n03662601_3955.png
swag_regnety_128gf_in1k,1,857,NaN,clock,clock,270,0857_rot_dnn_270_clock_20_n02708093_5577.png
swag_regnety_128gf_in1k,1,858,NaN,bird,bird,180,0858_rot_dnn_180_bird_20_n02027492_6213.png
swag_regnety_128gf_in1k,1,859,NaN,truck,truck,270,0859_rot_dnn_270_truck_20_n04467665_70509.png
swag_regnety_128gf_in1k,1,860,NaN,cat,cat,90,0860_rot_dnn_90_cat_20_n02123597_2522.png
swag_regnety_128gf_in1k,1,861,NaN,car,car,0,0861_rot_dnn_0_car_20_n03100240_18679.png
swag_regnety_128gf_in1k,1,862,NaN,clock,clock,270,0862_rot_dnn_270_clock_20_n03196217_1829.png
swag_regnety_128gf_in1k,1,863,NaN,truck,truck,0,0863_rot_dnn_0_truck_20_n03796401_5058.png
swag_regnety_128gf_in1k,1,864,NaN,car,car,0,0864_rot_dnn_0_car_20_n02814533_88986.png
swag_regnety_128gf_in1k,1,865,NaN,bicycle,bicycle,90,0865_rot_dnn_90_bicycle_20_n03792782_1924.png
swag_regnety_128gf_in1k,1,866,NaN,chair,chair,180,0866_rot_dnn_180_chair_20_n04429376_3898.png
swag_regnety_128gf_in1k,1,867,NaN,truck,truck,90,0867_rot_dnn_90_truck_20_n03417042_21946.png
swag_regnety_128gf_in1k,1,868,NaN,truck,truck,0,0868_rot_dnn_0_truck_20_n04467665_84527.png
swag_regnety_128gf_in1k,1,869,NaN,bicycle,bicycle,90,0869_rot_dnn_90_bicycle_20_n03792782_16117.png
swag_regnety_128gf_in1k,1,870,NaN,boat,boat,0,0870_rot_dnn_0_boat_20_n04273569_23800.png
swag_regnety_128gf_in1k,1,871,NaN,knife,knife,90,0871_rot_dnn_90_knife_20_n03041632_19620.png
swag_regnety_128gf_in1k,1,872,NaN,bicycle,bicycle,180,0872_rot_dnn_180_bicycle_20_n03792782_26168.png
swag_regnety_128gf_in1k,1,873,NaN,bear,bear,0,0873_rot_dnn_0_bear_20_n02132136_1386.png
swag_regnety_128gf_in1k,1,874,NaN,keyboard,keyboard,90,0874_rot_dnn_90_keyboard_20_n03085013_23625.png
swag_regnety_128gf_in1k,1,875,NaN,bottle,bottle,0,0875_rot_dnn_0_bottle_20_n04557648_757.png
swag_regnety_128gf_in1k,1,876,NaN,dog,dog,0,0876_rot_dnn_0_dog_20_n02102318_501.png
swag_regnety_128gf_in1k,1,877,NaN,airplane,airplane,270,0877_rot_dnn_270_airplane_20_n02690373_6104.png
swag_regnety_128gf_in1k,1,878,NaN,dog,dog,0,0878_rot_dnn_0_dog_20_n02089973_9526.png
swag_regnety_128gf_in1k,1,879,NaN,boat,boat,180,0879_rot_dnn_180_boat_20_n04612504_14176.png
swag_regnety_128gf_in1k,1,880,NaN,dog,cat,180,0880_rot_dnn_180_cat_20_n02125311_43726.png
swag_regnety_128gf_in1k,1,881,NaN,chair,chair,90,0881_rot_dnn_90_chair_20_n04429376_13191.png
swag_regnety_128gf_in1k,1,882,NaN,oven,oven,180,0882_rot_dnn_180_oven_20_n04111531_3611.png
swag_regnety_128gf_in1k,1,883,NaN,bottle,bottle,180,0883_rot_dnn_180_bottle_20_n04560804_15267.png
swag_regnety_128gf_in1k,1,884,NaN,knife,knife,180,0884_rot_dnn_180_knife_20_n03041632_2630.png
swag_regnety_128gf_in1k,1,885,NaN,cat,cat,90,0885_rot_dnn_90_cat_20_n02124075_14998.png
swag_regnety_128gf_in1k,1,886,NaN,oven,oven,90,0886_rot_dnn_90_oven_20_n04111531_1556.png
swag_regnety_128gf_in1k,1,887,NaN,chair,chair,270,0887_rot_dnn_270_chair_20_n02791124_5561.png
swag_regnety_128gf_in1k,1,888,NaN,car,car,0,0888_rot_dnn_0_car_20_n03100240_2195.png
swag_regnety_128gf_in1k,1,889,NaN,bear,bear,270,0889_rot_dnn_270_bear_20_n02134084_1802.png
swag_regnety_128gf_in1k,1,890,NaN,clock,clock,180,0890_rot_dnn_180_clock_20_n03196217_571.png
swag_regnety_128gf_in1k,1,891,NaN,knife,knife,0,0891_rot_dnn_0_knife_20_n03041632_24113.png
swag_regnety_128gf_in1k,1,892,NaN,airplane,airplane,0,0892_rot_dnn_0_airplane_20_n02690373_9829.png
swag_regnety_128gf_in1k,1,893,NaN,truck,truck,90,0893_rot_dnn_90_truck_20_n03796401_15105.png
swag_regnety_128gf_in1k,1,894,NaN,bird,bird,90,0894_rot_dnn_90_bird_20_n02018795_414.png
swag_regnety_128gf_in1k,1,895,NaN,elephant,elephant,270,0895_rot_dnn_270_elephant_20_n02504013_13512.png
swag_regnety_128gf_in1k,1,896,NaN,keyboard,keyboard,180,0896_rot_dnn_180_keyboard_20_n03085013_6405.png
swag_regnety_128gf_in1k,1,897,NaN,elephant,elephant,90,0897_rot_dnn_90_elephant_20_n02504013_344.png
swag_regnety_128gf_in1k,1,898,NaN,boat,boat,180,0898_rot_dnn_180_boat_20_n02951358_3511.png
swag_regnety_128gf_in1k,1,899,NaN,keyboard,keyboard,180,0899_rot_dnn_180_keyboard_20_n03085013_3691.png
swag_regnety_128gf_in1k,1,900,NaN,elephant,elephant,180,0900_rot_dnn_180_elephant_20_n02504458_5816.png
swag_regnety_128gf_in1k,1,901,NaN,keyboard,keyboard,180,0901_rot_dnn_180_keyboard_20_n04505470_10746.png
swag_regnety_128gf_in1k,1,902,NaN,truck,truck,0,0902_rot_dnn_0_truck_20_n03417042_21047.png
swag_regnety_128gf_in1k,1,903,NaN,boat,boat,0,0903_rot_dnn_0_boat_20_n03662601_8410.png
swag_regnety_128gf_in1k,1,904,NaN,airplane,airplane,270,0904_rot_dnn_270_airplane_20_n02690373_1235.png
swag_regnety_128gf_in1k,1,905,NaN,cat,cat,180,0905_rot_dnn_180_cat_20_n02123159_630.png
swag_regnety_128gf_in1k,1,906,NaN,knife,knife,90,0906_rot_dnn_90_knife_20_n03041632_51339.png
swag_regnety_128gf_in1k,1,907,NaN,car,car,90,0907_rot_dnn_90_car_20_n04285008_8641.png
swag_regnety_128gf_in1k,1,908,NaN,dog,dog,90,0908_rot_dnn_90_dog_20_n02093428_17633.png
swag_regnety_128gf_in1k,1,909,NaN,bear,bear,90,0909_rot_dnn_90_bear_20_n02133161_15177.png
swag_regnety_128gf_in1k,1,910,NaN,boat,boat,270,0910_rot_dnn_270_boat_20_n02951358_1362.png
swag_regnety_128gf_in1k,1,911,NaN,airplane,airplane,270,0911_rot_dnn_270_airplane_20_n02690373_6459.png
swag_regnety_128gf_in1k,1,912,NaN,bottle,bottle,0,0912_rot_dnn_0_bottle_20_n03937543_1197.png
swag_regnety_128gf_in1k,1,913,NaN,bear,bear,0,0913_rot_dnn_0_bear_20_n02132136_9797.png
swag_regnety_128gf_in1k,1,914,NaN,clock,clock,270,0914_rot_dnn_270_clock_20_n02708093_3674.png
swag_regnety_128gf_in1k,1,915,NaN,bear,bear,0,0915_rot_dnn_0_bear_20_n02132136_2799.png
swag_regnety_128gf_in1k,1,916,NaN,bird,bird,270,0916_rot_dnn_270_bird_20_n01582220_6459.png
swag_regnety_128gf_in1k,1,917,NaN,knife,bird,0,0917_rot_dnn_0_bird_20_n01817953_141.png
swag_regnety_128gf_in1k,1,918,NaN,bicycle,bicycle,90,0918_rot_dnn_90_bicycle_20_n03792782_15016.png
swag_regnety_128gf_in1k,1,919,NaN,car,car,270,0919_rot_dnn_270_car_20_n04285008_17151.png
swag_regnety_128gf_in1k,1,920,NaN,truck,truck,180,0920_rot_dnn_180_truck_20_n03796401_2258.png
swag_regnety_128gf_in1k,1,921,NaN,knife,knife,0,0921_rot_dnn_0_knife_20_n03041632_10263.png
swag_regnety_128gf_in1k,1,922,NaN,knife,knife,90,0922_rot_dnn_90_knife_20_n03041632_30079.png
swag_regnety_128gf_in1k,1,923,NaN,oven,oven,0,0923_rot_dnn_0_oven_20_n04111531_24065.png
swag_regnety_128gf_in1k,1,924,NaN,airplane,airplane,180,0924_rot_dnn_180_airplane_20_n02690373_3669.png
swag_regnety_128gf_in1k,1,925,NaN,boat,boat,180,0925_rot_dnn_180_boat_20_n02951358_3819.png
swag_regnety_128gf_in1k,1,926,NaN,clock,clock,0,0926_rot_dnn_0_clock_20_n04548280_8278.png
swag_regnety_128gf_in1k,1,927,NaN,bird,bird,0,0927_rot_dnn_0_bird_20_n01855672_55568.png
swag_regnety_128gf_in1k,1,928,NaN,keyboard,keyboard,90,0928_rot_dnn_90_keyboard_20_n04505470_961.png
swag_regnety_128gf_in1k,1,929,NaN,bear,bear,0,0929_rot_dnn_0_bear_20_n02133161_2040.png
swag_regnety_128gf_in1k,1,930,NaN,chair,chair,270,0930_rot_dnn_270_chair_20_n04099969_9243.png
swag_regnety_128gf_in1k,1,931,NaN,truck,truck,90,0931_rot_dnn_90_truck_20_n04467665_15994.png
swag_regnety_128gf_in1k,1,932,NaN,knife,knife,270,0932_rot_dnn_270_knife_20_n03041632_29940.png
swag_regnety_128gf_in1k,1,933,NaN,clock,clock,180,0933_rot_dnn_180_clock_20_n03196217_1271.png
swag_regnety_128gf_in1k,1,934,NaN,knife,knife,180,0934_rot_dnn_180_knife_20_n03041632_33268.png
swag_regnety_128gf_in1k,1,935,NaN,cat,cat,270,0935_rot_dnn_270_cat_20_n02123045_13025.png
swag_regnety_128gf_in1k,1,936,NaN,elephant,elephant,270,0936_rot_dnn_270_elephant_20_n02504013_4339.png
swag_regnety_128gf_in1k,1,937,NaN,airplane,airplane,90,0937_rot_dnn_90_airplane_20_n02690373_3050.png
swag_regnety_128gf_in1k,1,938,NaN,chair,chair,90,0938_rot_dnn_90_chair_20_n04099969_2561.png
swag_regnety_128gf_in1k,1,939,NaN,dog,dog,180,0939_rot_dnn_180_dog_20_n02097047_5605.png
swag_regnety_128gf_in1k,1,940,NaN,airplane,airplane,180,0940_rot_dnn_180_airplane_20_n02690373_6332.png
swag_regnety_128gf_in1k,1,941,NaN,bottle,bottle,180,0941_rot_dnn_180_bottle_20_n02823428_3298.png
swag_regnety_128gf_in1k,1,942,NaN,cat,cat,90,0942_rot_dnn_90_cat_20_n02124075_1121.png
swag_regnety_128gf_in1k,1,943,NaN,bicycle,bicycle,90,0943_rot_dnn_90_bicycle_20_n03792782_42978.png
swag_regnety_128gf_in1k,1,944,NaN,bottle,bottle,0,0944_rot_dnn_0_bottle_20_n04560804_15625.png
swag_regnety_128gf_in1k,1,945,NaN,boat,boat,180,0945_rot_dnn_180_boat_20_n04612504_13034.png
swag_regnety_128gf_in1k,1,946,NaN,dog,dog,180,0946_rot_dnn_180_dog_20_n02099267_4999.png
swag_regnety_128gf_in1k,1,947,NaN,chair,chair,0,0947_rot_dnn_0_chair_20_n04099969_6431.png
swag_regnety_128gf_in1k,1,948,NaN,truck,truck,0,0948_rot_dnn_0_truck_20_n03417042_6975.png
swag_regnety_128gf_in1k,1,949,NaN,dog,dog,270,0949_rot_dnn_270_dog_20_n02113023_291.png
swag_regnety_128gf_in1k,1,950,NaN,airplane,airplane,180,0950_rot_dnn_180_airplane_20_n02690373_2038.png
swag_regnety_128gf_in1k,1,951,NaN,bear,bear,90,0951_rot_dnn_90_bear_20_n02134418_5783.png
swag_regnety_128gf_in1k,1,952,NaN,airplane,airplane,90,0952_rot_dnn_90_airplane_20_n02690373_12929.png
swag_regnety_128gf_in1k,1,953,NaN,oven,oven,90,0953_rot_dnn_90_oven_20_n04111531_2618.png
swag_regnety_128gf_in1k,1,954,NaN,bird,bird,180,0954_rot_dnn_180_bird_20_n02009912_18708.png
swag_regnety_128gf_in1k,1,955,NaN,clock,clock,0,0955_rot_dnn_0_clock_20_n03196217_1255.png
swag_regnety_128gf_in1k,1,956,NaN,airplane,airplane,180,0956_rot_dnn_180_airplane_20_n02690373_2128.png
swag_regnety_128gf_in1k,1,957,NaN,airplane,airplane,180,0957_rot_dnn_180_airplane_20_n02690373_852.png
swag_regnety_128gf_in1k,1,958,NaN,oven,oven,270,0958_rot_dnn_270_oven_20_n04111531_18430.png
swag_regnety_128gf_in1k,1,959,NaN,bird,bird,0,0959_rot_dnn_0_bird_20_n01534433_1227.png
swag_regnety_128gf_in1k,1,960,NaN,car,car,0,0960_rot_dnn_0_car_20_n03100240_3927.png
swag_regnety_128gf_in1k,1,961,NaN,knife,knife,0,0961_rot_dnn_0_knife_20_n03041632_43289.png
swag_regnety_128gf_in1k,1,962,NaN,dog,dog,180,0962_rot_dnn_180_dog_20_n02109961_36163.png
swag_regnety_128gf_in1k,1,963,NaN,airplane,airplane,0,0963_rot_dnn_0_airplane_20_n02690373_2379.png
swag_regnety_128gf_in1k,1,964,NaN,oven,oven,270,0964_rot_dnn_270_oven_20_n04111531_9429.png
swag_regnety_128gf_in1k,1,965,NaN,keyboard,keyboard,0,0965_rot_dnn_0_keyboard_20_n04505470_763.png
swag_regnety_128gf_in1k,1,966,NaN,oven,oven,90,0966_rot_dnn_90_oven_20_n04111531_4327.png
swag_regnety_128gf_in1k,1,967,NaN,boat,boat,270,0967_rot_dnn_270_boat_20_n03344393_1533.png
swag_regnety_128gf_in1k,1,968,NaN,elephant,elephant,180,0968_rot_dnn_180_elephant_20_n02504458_1504.png
swag_regnety_128gf_in1k,1,969,NaN,dog,dog,0,0969_rot_dnn_0_dog_20_n02091831_332.png
swag_regnety_128gf_in1k,1,970,NaN,knife,knife,270,0970_rot_dnn_270_knife_20_n03041632_7205.png
swag_regnety_128gf_in1k,1,971,NaN,dog,dog,0,0971_rot_dnn_0_dog_20_n02104029_4770.png
swag_regnety_128gf_in1k,1,972,NaN,elephant,elephant,0,0972_rot_dnn_0_elephant_20_n02504013_1636.png
swag_regnety_128gf_in1k,1,973,NaN,cat,cat,270,0973_rot_dnn_270_cat_20_n02123597_6434.png
swag_regnety_128gf_in1k,1,974,NaN,airplane,airplane,270,0974_rot_dnn_270_airplane_20_n02690373_4434.png
swag_regnety_128gf_in1k,1,975,NaN,bicycle,bicycle,180,0975_rot_dnn_180_bicycle_20_n03792782_70555.png
swag_regnety_128gf_in1k,1,976,NaN,bear,bear,90,0976_rot_dnn_90_bear_20_n02132136_14056.png
swag_regnety_128gf_in1k,1,977,NaN,car,car,270,0977_rot_dnn_270_car_20_n03100240_17226.png
swag_regnety_128gf_in1k,1,978,NaN,chair,chair,180,0978_rot_dnn_180_chair_20_n02791124_880.png
swag_regnety_128gf_in1k,1,979,NaN,elephant,elephant,270,0979_rot_dnn_270_elephant_20_n02504013_7724.png
swag_regnety_128gf_in1k,1,980,NaN,keyboard,keyboard,90,0980_rot_dnn_90_keyboard_20_n04505470_4173.png
swag_regnety_128gf_in1k,1,981,NaN,boat,boat,0,0981_rot_dnn_0_boat_20_n03344393_9127.png
swag_regnety_128gf_in1k,1,982,NaN,knife,knife,180,0982_rot_dnn_180_knife_20_n03041632_39883.png
swag_regnety_128gf_in1k,1,983,NaN,bird,bird,90,0983_rot_dnn_90_bird_20_n01797886_2347.png
swag_regnety_128gf_in1k,1,984,NaN,oven,oven,90,0984_rot_dnn_90_oven_20_n04111531_11157.png
swag_regnety_128gf_in1k,1,985,NaN,airplane,airplane,270,0985_rot_dnn_270_airplane_20_n02690373_2584.png
swag_regnety_128gf_in1k,1,986,NaN,chair,chair,180,0986_rot_dnn_180_chair_20_n02791124_3923.png
swag_regnety_128gf_in1k,1,987,NaN,bicycle,bicycle,0,0987_rot_dnn_0_bicycle_20_n02835271_12743.png
swag_regnety_128gf_in1k,1,988,NaN,truck,truck,180,0988_rot_dnn_180_truck_20_n03417042_21663.png
swag_regnety_128gf_in1k,1,989,NaN,bicycle,bicycle,270,0989_rot_dnn_270_bicycle_20_n03792782_50904.png
swag_regnety_128gf_in1k,1,990,NaN,clock,clock,0,0990_rot_dnn_0_clock_20_n03196217_5103.png
swag_regnety_128gf_in1k,1,991,NaN,elephant,elephant,180,0991_rot_dnn_180_elephant_20_n02504458_5641.png
swag_regnety_128gf_in1k,1,992,NaN,airplane,airplane,0,0992_rot_dnn_0_airplane_20_n02690373_8163.png
swag_regnety_128gf_in1k,1,993,NaN,oven,oven,270,0993_rot_dnn_270_oven_20_n04111531_22041.png
swag_regnety_128gf_in1k,1,994,NaN,dog,dog,0,0994_rot_dnn_0_dog_20_n02106550_1763.png
swag_regnety_128gf_in1k,1,995,NaN,dog,dog,270,0995_rot_dnn_270_dog_20_n02094433_1289.png
swag_regnety_128gf_in1k,1,996,NaN,keyboard,keyboard,270,0996_rot_dnn_270_keyboard_20_n04505470_6662.png
swag_regnety_128gf_in1k,1,997,NaN,knife,knife,180,0997_rot_dnn_180_knife_20_n03041632_24228.png
swag_regnety_128gf_in1k,1,998,NaN,truck,truck,180,0998_rot_dnn_180_truck_20_n04467665_13225.png
swag_regnety_128gf_in1k,1,999,NaN,elephant,elephant,180,0999_rot_dnn_180_elephant_20_n02504013_7926.png
swag_regnety_128gf_in1k,1,1000,NaN,bicycle,bicycle,0,1000_rot_dnn_0_bicycle_20_n02835271_9310.png
swag_regnety_128gf_in1k,1,1001,NaN,clock,clock,180,1001_rot_dnn_180_clock_20_n04548280_3305.png
swag_regnety_128gf_in1k,1,1002,NaN,bear,dog,270,1002_rot_dnn_270_dog_20_n02105505_3286.png
swag_regnety_128gf_in1k,1,1003,NaN,cat,cat,180,1003_rot_dnn_180_cat_20_n02123045_5999.png
swag_regnety_128gf_in1k,1,1004,NaN,truck,truck,180,1004_rot_dnn_180_truck_20_n03417042_5004.png
swag_regnety_128gf_in1k,1,1005,NaN,bird,bird,270,1005_rot_dnn_270_bird_20_n02013706_652.png
swag_regnety_128gf_in1k,1,1006,NaN,bird,bird,270,1006_rot_dnn_270_bird_20_n02018207_7930.png
swag_regnety_128gf_in1k,1,1007,NaN,truck,truck,180,1007_rot_dnn_180_truck_20_n03417042_6539.png
swag_regnety_128gf_in1k,1,1008,NaN,elephant,elephant,90,1008_rot_dnn_90_elephant_20_n02504458_12090.png
swag_regnety_128gf_in1k,1,1009,NaN,truck,truck,270,1009_rot_dnn_270_truck_20_n03417042_9552.png
swag_regnety_128gf_in1k,1,1010,NaN,bear,dog,180,1010_rot_dnn_180_dog_20_n02111277_4038.png
swag_regnety_128gf_in1k,1,1011,NaN,bottle,bottle,270,1011_rot_dnn_270_bottle_20_n04591713_7036.png
swag_regnety_128gf_in1k,1,1012,NaN,chair,chair,270,1012_rot_dnn_270_chair_20_n04429376_13448.png
swag_regnety_128gf_in1k,1,1013,NaN,oven,oven,270,1013_rot_dnn_270_oven_20_n04111531_845.png
swag_regnety_128gf_in1k,1,1014,NaN,dog,dog,90,1014_rot_dnn_90_dog_20_n02090622_7692.png
swag_regnety_128gf_in1k,1,1015,NaN,oven,bottle,0,1015_rot_dnn_0_bottle_20_n03983396_17262.png
swag_regnety_128gf_in1k,1,1016,NaN,elephant,elephant,180,1016_rot_dnn_180_elephant_20_n02504458_1623.png
swag_regnety_128gf_in1k,1,1017,NaN,keyboard,keyboard,180,1017_rot_dnn_180_keyboard_20_n03085013_20960.png
swag_regnety_128gf_in1k,1,1018,NaN,airplane,airplane,270,1018_rot_dnn_270_airplane_20_n02690373_2629.png
swag_regnety_128gf_in1k,1,1019,NaN,cat,cat,270,1019_rot_dnn_270_cat_20_n02123159_7369.png
swag_regnety_128gf_in1k,1,1020,NaN,bicycle,bottle,90,1020_rot_dnn_90_bottle_20_n04560804_570.png
swag_regnety_128gf_in1k,1,1021,NaN,car,car,270,1021_rot_dnn_270_car_20_n02814533_89061.png
swag_regnety_128gf_in1k,1,1022,NaN,dog,dog,180,1022_rot_dnn_180_dog_20_n02093754_918.png
swag_regnety_128gf_in1k,1,1023,NaN,truck,truck,180,1023_rot_dnn_180_truck_20_n03796401_26894.png
swag_regnety_128gf_in1k,1,1024,NaN,truck,truck,270,1024_rot_dnn_270_truck_20_n03417042_27780.png
swag_regnety_128gf_in1k,1,1025,NaN,car,car,180,1025_rot_dnn_180_car_20_n02814533_75923.png
swag_regnety_128gf_in1k,1,1026,NaN,boat,boat,0,1026_rot_dnn_0_boat_20_n03662601_26140.png
swag_regnety_128gf_in1k,1,1027,NaN,elephant,elephant,180,1027_rot_dnn_180_elephant_20_n02504013_1644.png
swag_regnety_128gf_in1k,1,1028,NaN,oven,oven,180,1028_rot_dnn_180_oven_20_n04111531_704.png
swag_regnety_128gf_in1k,1,1029,NaN,boat,boat,270,1029_rot_dnn_270_boat_20_n03344393_9390.png
swag_regnety_128gf_in1k,1,1030,NaN,dog,dog,90,1030_rot_dnn_90_dog_20_n02097047_3817.png
swag_regnety_128gf_in1k,1,1031,NaN,elephant,elephant,270,1031_rot_dnn_270_elephant_20_n02504458_4001.png
swag_regnety_128gf_in1k,1,1032,NaN,elephant,elephant,180,1032_rot_dnn_180_elephant_20_n02504458_259.png
swag_regnety_128gf_in1k,1,1033,NaN,oven,oven,180,1033_rot_dnn_180_oven_20_n04111531_4939.png
swag_regnety_128gf_in1k,1,1034,NaN,elephant,elephant,90,1034_rot_dnn_90_elephant_20_n02504458_2417.png
swag_regnety_128gf_in1k,1,1035,NaN,elephant,elephant,270,1035_rot_dnn_270_elephant_20_n02504458_30.png
swag_regnety_128gf_in1k,1,1036,NaN,chair,chair,270,1036_rot_dnn_270_chair_20_n04099969_41686.png
swag_regnety_128gf_in1k,1,1037,NaN,knife,knife,270,1037_rot_dnn_270_knife_20_n03041632_46112.png
swag_regnety_128gf_in1k,1,1038,NaN,oven,oven,270,1038_rot_dnn_270_oven_20_n04111531_10722.png
swag_regnety_128gf_in1k,1,1039,NaN,knife,knife,270,1039_rot_dnn_270_knife_20_n03041632_751.png
swag_regnety_128gf_in1k,1,1040,NaN,clock,clock,270,1040_rot_dnn_270_clock_20_n03196217_8887.png
swag_regnety_128gf_in1k,1,1041,NaN,chair,chair,180,1041_rot_dnn_180_chair_20_n02791124_2938.png
swag_regnety_128gf_in1k,1,1042,NaN,chair,chair,90,1042_rot_dnn_90_chair_20_n02791124_1740.png
swag_regnety_128gf_in1k,1,1043,NaN,bicycle,bicycle,90,1043_rot_dnn_90_bicycle_20_n03792782_442.png
swag_regnety_128gf_in1k,1,1044,NaN,car,car,180,1044_rot_dnn_180_car_20_n03100240_6479.png
swag_regnety_128gf_in1k,1,1045,NaN,keyboard,keyboard,180,1045_rot_dnn_180_keyboard_20_n03085013_24316.png
swag_regnety_128gf_in1k,1,1046,NaN,elephant,elephant,90,1046_rot_dnn_90_elephant_20_n02504013_1500.png
swag_regnety_128gf_in1k,1,1047,NaN,truck,truck,180,1047_rot_dnn_180_truck_20_n03417042_189.png
swag_regnety_128gf_in1k,1,1048,NaN,dog,dog,180,1048_rot_dnn_180_dog_20_n02090721_1449.png
swag_regnety_128gf_in1k,1,1049,NaN,clock,clock,270,1049_rot_dnn_270_clock_20_n03196217_3194.png
swag_regnety_128gf_in1k,1,1050,NaN,knife,knife,0,1050_rot_dnn_0_knife_20_n03041632_4279.png
swag_regnety_128gf_in1k,1,1051,NaN,boat,boat,270,1051_rot_dnn_270_boat_20_n02951358_4937.png
