subj,Session,trial,rt,object_response,category,condition,imagename
subject-02,1,1,0.842274904251099,knife,knife,180,0001_rot_s02_180_knife_20_n03041632_41310.png
subject-02,1,2,0.817921876907349,bicycle,bicycle,180,0002_rot_s02_180_bicycle_20_n02835271_18706.png
subject-02,1,3,0.843836069107056,chair,chair,180,0003_rot_s02_180_chair_20_n04429376_3898.png
subject-02,1,4,0.885818004608154,keyboard,keyboard,180,0004_rot_s02_180_keyboard_20_n03085013_24105.png
subject-02,1,5,0.679296016693115,keyboard,keyboard,90,0005_rot_s02_90_keyboard_20_n04505470_3207.png
subject-02,1,6,0.775089979171753,chair,chair,90,0006_rot_s02_90_chair_20_n03376595_4820.png
subject-02,1,7,0.757070064544678,airplane,airplane,180,0007_rot_s02_180_airplane_20_n02690373_20331.png
subject-02,1,8,0.694914102554321,bottle,bottle,180,0008_rot_s02_180_bottle_20_n04591713_2359.png
subject-02,1,9,0.972579956054688,bottle,bottle,90,0009_rot_s02_90_bottle_20_n04557648_15053.png
subject-02,1,10,0.806829929351807,bear,bear,90,0010_rot_s02_90_bear_20_n02134418_5783.png
subject-02,1,11,0.888872146606445,airplane,airplane,180,0011_rot_s02_180_airplane_20_n02690373_17044.png
subject-02,1,12,0.8264319896698,clock,clock,180,0012_rot_s02_180_clock_20_n02708093_8311.png
subject-02,1,13,0.963863849639893,bird,bird,0,0013_rot_s02_0_bird_20_n01531178_3183.png
subject-02,1,14,0.688138961791992,airplane,airplane,0,0014_rot_s02_0_airplane_20_n02690373_736.png
subject-02,1,15,1.11968302726746,bird,knife,180,0015_rot_s02_180_knife_20_n03041632_19971.png
subject-02,1,16,0.943457841873169,car,car,90,0016_rot_s02_90_car_20_n03100240_1153.png
subject-02,1,17,0.601262092590332,boat,boat,0,0017_rot_s02_0_boat_20_n03662601_11764.png
subject-02,1,18,0.731041193008423,oven,oven,0,0018_rot_s02_0_oven_20_n04111531_22517.png
subject-02,1,19,0.775134086608887,cat,cat,270,0019_rot_s02_270_cat_20_n02123597_6434.png
subject-02,1,20,NaN,na,boat,270,0020_rot_s02_270_boat_20_n03662601_10090.png
subject-02,1,21,1.0709400177002,car,car,270,0021_rot_s02_270_car_20_n02814533_46458.png
subject-02,1,22,0.652364015579224,car,car,90,0022_rot_s02_90_car_20_n04285008_8641.png
subject-02,1,23,1.06800079345703,bird,cat,90,0023_rot_s02_90_cat_20_n02123159_5461.png
subject-02,1,24,1.06201601028442,bird,boat,0,0024_rot_s02_0_boat_20_n02951358_30117.png
subject-02,1,25,0.495694160461426,boat,boat,270,0025_rot_s02_270_boat_20_n02951358_1362.png
subject-02,1,26,0.895401000976562,airplane,airplane,0,0026_rot_s02_0_airplane_20_n02690373_17731.png
subject-02,1,27,1.32947611808777,boat,knife,270,0027_rot_s02_270_knife_20_n03041632_2546.png
subject-02,1,28,0.985121011734009,boat,boat,180,0028_rot_s02_180_boat_20_n03662601_1740.png
subject-02,1,29,0.740827798843384,airplane,airplane,90,0029_rot_s02_90_airplane_20_n02690373_4695.png
subject-02,1,30,0.946902990341187,bird,bird,90,0030_rot_s02_90_bird_20_n01855032_1920.png
subject-02,1,31,1.08867597579956,truck,truck,180,0031_rot_s02_180_truck_20_n03417042_8867.png
subject-02,1,32,1.27239513397217,bicycle,knife,90,0032_rot_s02_90_knife_20_n03041632_84012.png
subject-02,1,33,1.50019001960754,elephant,bear,0,0033_rot_s02_0_bear_20_n02134084_3934.png
subject-02,1,34,0.812140941619873,knife,clock,0,0034_rot_s02_0_clock_20_n03196217_5103.png
subject-02,1,35,0.72368597984314,keyboard,keyboard,90,0035_rot_s02_90_keyboard_20_n03085013_9209.png
subject-02,1,36,1.29167199134827,bird,bird,270,0036_rot_s02_270_bird_20_n01819313_17231.png
subject-02,1,37,1.09937286376953,dog,dog,0,0037_rot_s02_0_dog_20_n02106550_1763.png
subject-02,1,38,0.745154142379761,bear,bear,270,0038_rot_s02_270_bear_20_n02134084_18952.png
subject-02,1,39,1.50005602836609,bicycle,truck,270,0039_rot_s02_270_truck_20_n03417042_10744.png
subject-02,1,40,0.572795152664185,clock,clock,180,0040_rot_s02_180_clock_20_n03196217_946.png
subject-02,1,41,0.607008934020996,knife,knife,90,0041_rot_s02_90_knife_20_n03041632_31301.png
subject-02,1,42,0.658512830734253,bicycle,bicycle,270,0042_rot_s02_270_bicycle_20_n03792782_12844.png
subject-02,1,43,0.544699907302856,cat,cat,180,0043_rot_s02_180_cat_20_n02123394_6853.png
subject-02,1,44,1.10829091072083,knife,knife,0,0044_rot_s02_0_knife_20_n03041632_54191.png
subject-02,1,45,1.50005984306335,bear,bear,180,0045_rot_s02_180_bear_20_n02133161_3896.png
subject-02,1,46,0.631818056106567,knife,knife,270,0046_rot_s02_270_knife_20_n03041632_46112.png
subject-02,1,47,0.781621932983398,dog,dog,90,0047_rot_s02_90_dog_20_n02099601_10748.png
subject-02,1,48,0.773835897445679,dog,dog,0,0048_rot_s02_0_dog_20_n02089973_9526.png
subject-02,1,49,0.771126985549927,cat,cat,270,0049_rot_s02_270_cat_20_n02123597_2549.png
subject-02,1,50,1.14903402328491,dog,cat,270,0050_rot_s02_270_cat_20_n02124075_8889.png
subject-02,1,51,1.18482398986816,bear,truck,90,0051_rot_s02_90_truck_20_n03796401_13226.png
subject-02,1,52,0.642554044723511,car,car,90,0052_rot_s02_90_car_20_n04285008_8102.png
subject-02,1,53,1.15053796768188,elephant,elephant,180,0053_rot_s02_180_elephant_20_n02504458_193.png
subject-02,1,54,1.226233959198,clock,bottle,270,0054_rot_s02_270_bottle_20_n04557648_581.png
subject-02,1,55,0.722337007522583,truck,truck,90,0055_rot_s02_90_truck_20_n04467665_90715.png
subject-02,1,56,0.499957084655762,boat,boat,0,0056_rot_s02_0_boat_20_n03662601_17483.png
subject-02,1,57,0.755613088607788,clock,clock,270,0057_rot_s02_270_clock_20_n04548280_7978.png
subject-02,1,58,0.795428037643433,bicycle,bicycle,180,0058_rot_s02_180_bicycle_20_n03792782_6058.png
subject-02,1,59,0.877671957015991,cat,cat,270,0059_rot_s02_270_cat_20_n02123394_6969.png
subject-02,1,60,1.13501501083374,bird,bear,90,0060_rot_s02_90_bear_20_n02134418_2661.png
subject-02,1,61,0.812777996063232,bear,bear,0,0061_rot_s02_0_bear_20_n02132136_1386.png
subject-02,1,62,NaN,na,knife,270,0062_rot_s02_270_knife_20_n03041632_15099.png
subject-02,1,63,0.622599124908447,car,car,0,0063_rot_s02_0_car_20_n04285008_12909.png
subject-02,1,64,0.758478164672852,bicycle,bicycle,180,0064_rot_s02_180_bicycle_20_n03792782_3591.png
subject-02,1,65,1.26031804084778,chair,chair,180,0065_rot_s02_180_chair_20_n02791124_4369.png
subject-02,1,66,0.653893947601318,oven,oven,180,0066_rot_s02_180_oven_20_n04111531_1439.png
subject-02,1,67,0.803729057312012,bottle,bottle,180,0067_rot_s02_180_bottle_20_n02823428_14574.png
subject-02,1,68,0.917612075805664,bicycle,bicycle,270,0068_rot_s02_270_bicycle_20_n03792782_10129.png
subject-02,1,69,1.47756600379944,bicycle,truck,270,0069_rot_s02_270_truck_20_n04467665_3720.png
subject-02,1,70,0.91929292678833,bird,bird,90,0070_rot_s02_90_bird_20_n01614925_2052.png
subject-02,1,71,0.809256076812744,bird,bird,270,0071_rot_s02_270_bird_20_n01614925_1860.png
subject-02,1,72,1.09269690513611,car,car,180,0072_rot_s02_180_car_20_n03100240_16210.png
subject-02,1,73,0.648622989654541,knife,knife,0,0073_rot_s02_0_knife_20_n03041632_9488.png
subject-02,1,74,0.73888111114502,boat,boat,90,0074_rot_s02_90_boat_20_n04273569_12725.png
subject-02,1,75,0.638206958770752,oven,oven,180,0075_rot_s02_180_oven_20_n04111531_9176.png
subject-02,1,76,0.648420095443726,clock,clock,180,0076_rot_s02_180_clock_20_n04548280_15154.png
subject-02,1,77,0.609874963760376,cat,cat,270,0077_rot_s02_270_cat_20_n02124075_11727.png
subject-02,1,78,0.801700830459595,boat,boat,0,0078_rot_s02_0_boat_20_n03662601_8410.png
subject-02,1,79,0.735565900802612,chair,chair,270,0079_rot_s02_270_chair_20_n04099969_5396.png
subject-02,1,80,0.911381006240845,truck,truck,0,0080_rot_s02_0_truck_20_n03796401_588.png
subject-02,1,81,0.669307231903076,clock,clock,90,0081_rot_s02_90_clock_20_n02708093_2676.png
subject-02,1,82,0.673475027084351,car,car,90,0082_rot_s02_90_car_20_n02814533_14121.png
subject-02,1,83,0.638706922531128,boat,boat,90,0083_rot_s02_90_boat_20_n04273569_1050.png
subject-02,1,84,0.82279109954834,keyboard,keyboard,270,0084_rot_s02_270_keyboard_20_n04505470_1416.png
subject-02,1,85,0.736477851867676,truck,truck,90,0085_rot_s02_90_truck_20_n03417042_9238.png
subject-02,1,86,0.670453786849976,keyboard,keyboard,270,0086_rot_s02_270_keyboard_20_n03085013_24228.png
subject-02,1,87,0.778295040130615,bear,bear,0,0087_rot_s02_0_bear_20_n02134418_517.png
subject-02,1,88,0.883844137191772,airplane,airplane,270,0088_rot_s02_270_airplane_20_n02690373_9247.png
subject-02,1,89,1.50015497207642,airplane,chair,90,0089_rot_s02_90_chair_20_n02791124_5199.png
subject-02,1,90,0.731573104858398,bicycle,bicycle,90,0090_rot_s02_90_bicycle_20_n02835271_7053.png
subject-02,1,91,1.09123516082764,bicycle,bicycle,0,0091_rot_s02_0_bicycle_20_n02835271_8521.png
subject-02,1,92,1.07903695106506,airplane,airplane,90,0092_rot_s02_90_airplane_20_n02690373_3492.png
subject-02,1,93,0.82086706161499,oven,oven,180,0093_rot_s02_180_oven_20_n04111531_10667.png
subject-02,1,94,1.21675205230713,car,car,90,0094_rot_s02_90_car_20_n02814533_31743.png
subject-02,1,95,1.14890909194946,dog,dog,180,0095_rot_s02_180_dog_20_n02113978_2286.png
subject-02,1,96,0.666548013687134,bicycle,bicycle,0,0096_rot_s02_0_bicycle_20_n02835271_12743.png
subject-02,1,97,0.796347856521606,clock,clock,180,0097_rot_s02_180_clock_20_n02708093_906.png
subject-02,1,98,1.14214611053467,cat,cat,90,0098_rot_s02_90_cat_20_n02125311_18552.png
subject-02,1,99,0.845842123031616,dog,dog,0,0099_rot_s02_0_dog_20_n02091831_332.png
subject-02,1,100,0.701608896255493,bicycle,bicycle,0,0100_rot_s02_0_bicycle_20_n03792782_7105.png
subject-02,1,101,0.651830911636353,cat,cat,180,0101_rot_s02_180_cat_20_n02123394_8100.png
subject-02,1,102,0.707365989685059,boat,boat,90,0102_rot_s02_90_boat_20_n04273569_7296.png
subject-02,1,103,0.713381052017212,bicycle,bicycle,0,0103_rot_s02_0_bicycle_20_n02835271_30318.png
subject-02,1,104,0.887239933013916,bird,bird,180,0104_rot_s02_180_bird_20_n01514859_18430.png
subject-02,1,105,1.06890487670898,bottle,bottle,90,0105_rot_s02_90_bottle_20_n04579145_6509.png
subject-02,1,106,0.626973867416382,airplane,airplane,0,0106_rot_s02_0_airplane_20_n02690373_10188.png
subject-02,1,107,0.858331918716431,bird,bird,0,0107_rot_s02_0_bird_20_n01855672_8191.png
subject-02,1,108,0.628507852554321,truck,truck,0,0108_rot_s02_0_truck_20_n03417042_6975.png
subject-02,1,109,0.916074991226196,boat,airplane,270,0109_rot_s02_270_airplane_20_n02690373_2584.png
subject-02,1,110,0.597761869430542,boat,boat,0,0110_rot_s02_0_boat_20_n03662601_28640.png
subject-02,1,111,0.687657833099365,truck,truck,0,0111_rot_s02_0_truck_20_n03417042_15196.png
subject-02,1,112,0.61133599281311,car,car,270,0112_rot_s02_270_car_20_n02814533_458.png
subject-02,1,113,1.00717997550964,truck,truck,270,0113_rot_s02_270_truck_20_n04467665_69882.png
subject-02,1,114,0.785133123397827,truck,truck,90,0114_rot_s02_90_truck_20_n04467665_64792.png
subject-02,1,115,0.703000068664551,car,car,0,0115_rot_s02_0_car_20_n02814533_70448.png
subject-02,1,116,0.690610885620117,bear,bear,180,0116_rot_s02_180_bear_20_n02134418_200.png
subject-02,1,117,1.05234599113464,dog,dog,180,0117_rot_s02_180_dog_20_n02112350_10026.png
subject-02,1,118,1.32415795326233,bear,elephant,270,0118_rot_s02_270_elephant_20_n02504013_6139.png
subject-02,1,119,0.575971126556396,car,car,270,0119_rot_s02_270_car_20_n02814533_82321.png
subject-02,1,120,0.673827171325684,bear,bear,90,0120_rot_s02_90_bear_20_n02132136_14056.png
subject-02,1,121,1.38987588882446,bear,elephant,270,0121_rot_s02_270_elephant_20_n02504013_1761.png
subject-02,1,122,0.541777849197388,bear,bear,0,0122_rot_s02_0_bear_20_n02132136_13975.png
subject-02,1,123,0.975352048873901,bicycle,bicycle,180,0123_rot_s02_180_bicycle_20_n02835271_10933.png
subject-02,1,124,1.21348714828491,boat,boat,180,0124_rot_s02_180_boat_20_n04273569_29113.png
subject-02,1,125,0.88092303276062,bear,bear,180,0125_rot_s02_180_bear_20_n02134084_41588.png
subject-02,1,126,0.715086936950684,car,car,270,0126_rot_s02_270_car_20_n04285008_17151.png
subject-02,1,127,0.646647930145264,airplane,airplane,180,0127_rot_s02_180_airplane_20_n02690373_6602.png
subject-02,1,128,0.576322078704834,clock,clock,270,0128_rot_s02_270_clock_20_n02708093_1862.png
subject-02,1,129,0.918176174163818,bird,bird,180,0129_rot_s02_180_bird_20_n02051845_8617.png
subject-02,1,130,1.12609887123108,chair,chair,270,0130_rot_s02_270_chair_20_n02791124_2698.png
subject-02,1,131,1.16783690452576,elephant,bear,90,0131_rot_s02_90_bear_20_n02134418_1814.png
subject-02,1,132,0.929624080657959,car,car,0,0132_rot_s02_0_car_20_n02814533_27327.png
subject-02,1,133,1.48138999938965,elephant,cat,90,0133_rot_s02_90_cat_20_n02125311_59332.png
subject-02,1,134,0.613637924194336,elephant,elephant,180,0134_rot_s02_180_elephant_20_n02504458_5277.png
subject-02,1,135,1.05517792701721,boat,boat,0,0135_rot_s02_0_boat_20_n03344393_9127.png
subject-02,1,136,0.575107097625732,keyboard,keyboard,180,0136_rot_s02_180_keyboard_20_n03085013_25419.png
subject-02,1,137,1.41485404968262,boat,cat,270,0137_rot_s02_270_cat_20_n02123159_7369.png
subject-02,1,138,0.458402156829834,clock,clock,0,0138_rot_s02_0_clock_20_n03196217_4254.png
subject-02,1,139,0.902461051940918,knife,knife,0,0139_rot_s02_0_knife_20_n03041632_49570.png
subject-02,1,140,1.12411904335022,bicycle,bicycle,0,0140_rot_s02_0_bicycle_20_n03792782_3456.png
subject-02,1,141,1.16394591331482,elephant,bird,180,0141_rot_s02_180_bird_20_n02002724_6462.png
subject-02,1,142,0.871948003768921,knife,knife,180,0142_rot_s02_180_knife_20_n03041632_34505.png
subject-02,1,143,1.18375396728516,bottle,bottle,180,0143_rot_s02_180_bottle_20_n03983396_5883.png
subject-02,1,144,1.17348599433899,bear,bear,90,0144_rot_s02_90_bear_20_n02134418_1026.png
subject-02,1,145,1.22106099128723,cat,cat,0,0145_rot_s02_0_cat_20_n02123045_5290.png
subject-02,1,146,0.753132104873657,chair,chair,270,0146_rot_s02_270_chair_20_n03376595_426.png
subject-02,1,147,0.858711004257202,bottle,bottle,180,0147_rot_s02_180_bottle_20_n03983396_10896.png
subject-02,1,148,0.792477130889893,chair,chair,180,0148_rot_s02_180_chair_20_n03376595_2103.png
subject-02,1,149,0.590893030166626,bicycle,bicycle,270,0149_rot_s02_270_bicycle_20_n03792782_586.png
subject-02,1,150,0.586273908615112,bear,bear,180,0150_rot_s02_180_bear_20_n02134418_4458.png
subject-02,1,151,1.30249500274658,car,airplane,90,0151_rot_s02_90_airplane_20_n02690373_1909.png
subject-02,1,152,0.821928024291992,bottle,bottle,90,0152_rot_s02_90_bottle_20_n04560804_2693.png
subject-02,1,153,1.05401682853699,bear,bear,0,0153_rot_s02_0_bear_20_n02134418_4374.png
subject-02,1,154,0.671661138534546,bicycle,bicycle,0,0154_rot_s02_0_bicycle_20_n02835271_12984.png
subject-02,1,155,0.605438947677612,car,car,180,0155_rot_s02_180_car_20_n02814533_75923.png
subject-02,1,156,0.77300500869751,clock,clock,90,0156_rot_s02_90_clock_20_n02708093_3394.png
subject-02,1,157,1.11087799072266,bottle,bottle,270,0157_rot_s02_270_bottle_20_n02823428_10946.png
subject-02,1,158,1.20099091529846,oven,oven,0,0158_rot_s02_0_oven_20_n04111531_27.png
subject-02,1,159,0.916546821594238,bear,bird,270,0159_rot_s02_270_bird_20_n02056570_9303.png
subject-02,1,160,0.986366033554077,bottle,knife,90,0160_rot_s02_90_knife_20_n03041632_17859.png
subject-02,1,161,0.611526966094971,clock,clock,270,0161_rot_s02_270_clock_20_n02708093_3674.png
subject-02,1,162,0.687427043914795,truck,truck,180,0162_rot_s02_180_truck_20_n04467665_23691.png
subject-02,1,163,0.543301105499268,oven,oven,270,0163_rot_s02_270_oven_20_n04111531_10722.png
subject-02,1,164,0.689350843429565,airplane,airplane,90,0164_rot_s02_90_airplane_20_n02690373_4714.png
subject-02,1,165,0.659466981887817,bear,dog,90,0165_rot_s02_90_dog_20_n02100877_11159.png
subject-02,1,166,1.30278015136719,bottle,bottle,270,0166_rot_s02_270_bottle_20_n02823428_12190.png
subject-02,1,167,1.01056098937988,elephant,elephant,90,0167_rot_s02_90_elephant_20_n02504458_3608.png
subject-02,1,168,1.18676710128784,truck,truck,0,0168_rot_s02_0_truck_20_n04467665_84527.png
subject-02,1,169,0.956187009811401,chair,chair,90,0169_rot_s02_90_chair_20_n04099969_6944.png
subject-02,1,170,0.844109058380127,bicycle,bicycle,90,0170_rot_s02_90_bicycle_20_n02835271_11697.png
subject-02,1,171,0.817969083786011,dog,dog,270,0171_rot_s02_270_dog_20_n02109047_66167.png
subject-02,1,172,0.671766042709351,oven,oven,0,0172_rot_s02_0_oven_20_n04111531_11287.png
subject-02,1,173,0.601618051528931,bottle,bottle,270,0173_rot_s02_270_bottle_20_n04557648_4727.png
subject-02,1,174,0.591275930404663,clock,clock,180,0174_rot_s02_180_clock_20_n03196217_4776.png
subject-02,1,175,0.734970808029175,airplane,airplane,180,0175_rot_s02_180_airplane_20_n02690373_3669.png
subject-02,1,176,1.23696303367615,dog,dog,270,0176_rot_s02_270_dog_20_n02097658_722.png
subject-02,1,177,1.0768518447876,dog,bird,270,0177_rot_s02_270_bird_20_n01855032_5358.png
subject-02,1,178,0.90041184425354,bear,bear,90,0178_rot_s02_90_bear_20_n02134418_10879.png
subject-02,1,179,0.804183959960938,bicycle,bicycle,270,0179_rot_s02_270_bicycle_20_n02835271_14123.png
subject-02,1,180,0.942617893218994,dog,dog,180,0180_rot_s02_180_dog_20_n02087394_9693.png
subject-02,1,181,0.714153051376343,bear,bear,180,0181_rot_s02_180_bear_20_n02133161_4393.png
subject-02,1,182,0.537887096405029,oven,oven,270,0182_rot_s02_270_oven_20_n04111531_5429.png
subject-02,1,183,0.735632181167603,keyboard,keyboard,270,0183_rot_s02_270_keyboard_20_n03085013_24385.png
subject-02,1,184,1.03740692138672,truck,truck,90,0184_rot_s02_90_truck_20_n03417042_28657.png
subject-02,1,185,0.531202077865601,chair,chair,270,0185_rot_s02_270_chair_20_n04429376_44914.png
subject-02,1,186,0.636925935745239,bear,dog,180,0186_rot_s02_180_dog_20_n02109961_36163.png
subject-02,1,187,0.806724071502686,keyboard,keyboard,0,0187_rot_s02_0_keyboard_20_n04505470_7312.png
subject-02,1,188,1.30059313774109,clock,clock,0,0188_rot_s02_0_clock_20_n03196217_11724.png
subject-02,1,189,0.936325788497925,truck,car,90,0189_rot_s02_90_car_20_n02814533_92229.png
subject-02,1,190,0.98446798324585,bicycle,bicycle,90,0190_rot_s02_90_bicycle_20_n03792782_1475.png
subject-02,1,191,1.03632402420044,knife,knife,0,0191_rot_s02_0_knife_20_n03041632_26314.png
subject-02,1,192,0.687647104263306,bear,bear,270,0192_rot_s02_270_bear_20_n02134084_3903.png
subject-02,1,193,0.665802001953125,bicycle,bicycle,90,0193_rot_s02_90_bicycle_20_n03792782_3202.png
subject-02,1,194,0.771668910980225,cat,cat,180,0194_rot_s02_180_cat_20_n02123045_5999.png
subject-02,1,195,0.537379026412964,airplane,airplane,90,0195_rot_s02_90_airplane_20_n02690373_7293.png
subject-02,1,196,0.855561017990112,bird,bird,180,0196_rot_s02_180_bird_20_n01560419_17392.png
subject-02,1,197,0.576993942260742,cat,cat,180,0197_rot_s02_180_cat_20_n02123045_11787.png
subject-02,1,198,0.926645994186401,knife,chair,0,0198_rot_s02_0_chair_20_n02791124_12707.png
subject-02,1,199,0.616618871688843,clock,clock,0,0199_rot_s02_0_clock_20_n04548280_6776.png
subject-02,1,200,0.778536081314087,bear,elephant,0,0200_rot_s02_0_elephant_20_n02504458_9870.png
subject-02,1,201,0.900353193283081,bird,oven,90,0201_rot_s02_90_oven_20_n04111531_6933.png
subject-02,1,202,1.22409510612488,knife,knife,270,0202_rot_s02_270_knife_20_n03041632_737.png
subject-02,1,203,0.945909976959229,bird,bird,90,0203_rot_s02_90_bird_20_n01534433_14389.png
subject-02,1,204,0.823647975921631,boat,boat,0,0204_rot_s02_0_boat_20_n03662601_7324.png
subject-02,1,205,0.625441074371338,keyboard,keyboard,270,0205_rot_s02_270_keyboard_20_n03085013_22417.png
subject-02,1,206,0.805629014968872,airplane,airplane,180,0206_rot_s02_180_airplane_20_n02690373_852.png
subject-02,1,207,1.13919901847839,truck,truck,180,0207_rot_s02_180_truck_20_n04467665_13225.png
subject-02,1,208,0.861502170562744,knife,knife,0,0208_rot_s02_0_knife_20_n03041632_25656.png
subject-02,1,209,1.50010299682617,elephant,elephant,90,0209_rot_s02_90_elephant_20_n02504458_2613.png
subject-02,1,210,0.616452932357788,bear,bear,0,0210_rot_s02_0_bear_20_n02134084_2598.png
subject-02,1,211,1.25033092498779,oven,chair,90,0211_rot_s02_90_chair_20_n04429376_19916.png
subject-02,1,212,1.01215100288391,keyboard,keyboard,180,0212_rot_s02_180_keyboard_20_n04505470_10746.png
subject-02,1,213,1.03184485435486,cat,bird,0,0213_rot_s02_0_bird_20_n01817953_141.png
subject-02,1,214,0.840046882629395,bird,bird,0,0214_rot_s02_0_bird_20_n02013706_7808.png
subject-02,1,215,0.677758932113647,knife,knife,270,0215_rot_s02_270_knife_20_n03041632_17820.png
subject-02,1,216,0.901346921920776,elephant,elephant,270,0216_rot_s02_270_elephant_20_n02504013_5364.png
subject-02,1,217,1.02138519287109,cat,cat,90,0217_rot_s02_90_cat_20_n02123394_2964.png
subject-02,1,218,0.924846172332764,truck,truck,90,0218_rot_s02_90_truck_20_n03796401_15105.png
subject-02,1,219,0.74285888671875,cat,cat,90,0219_rot_s02_90_cat_20_n02123159_6933.png
subject-02,1,220,0.644609928131104,chair,chair,270,0220_rot_s02_270_chair_20_n04099969_9243.png
subject-02,1,221,0.902444839477539,airplane,airplane,270,0221_rot_s02_270_airplane_20_n02690373_8876.png
subject-02,1,222,0.988198041915894,truck,truck,180,0222_rot_s02_180_truck_20_n04467665_9589.png
subject-02,1,223,0.676403045654297,cat,cat,0,0223_rot_s02_0_cat_20_n02124075_7835.png
subject-02,1,224,1.10979199409485,knife,chair,180,0224_rot_s02_180_chair_20_n04099969_4162.png
subject-02,1,225,1.10588693618774,bear,bear,180,0225_rot_s02_180_bear_20_n02132136_8650.png
subject-02,1,226,0.959599018096924,dog,dog,90,0226_rot_s02_90_dog_20_n02111500_8796.png
subject-02,1,227,0.86363697052002,truck,car,180,0227_rot_s02_180_car_20_n03100240_1703.png
subject-02,1,228,0.797172069549561,bird,bird,180,0228_rot_s02_180_bird_20_n02018207_5735.png
subject-02,1,229,0.730978965759277,chair,chair,90,0229_rot_s02_90_chair_20_n03376595_14588.png
subject-02,1,230,0.796673059463501,chair,chair,0,0230_rot_s02_0_chair_20_n04099969_17087.png
subject-02,1,231,0.774610996246338,keyboard,keyboard,270,0231_rot_s02_270_keyboard_20_n03085013_23109.png
subject-02,1,232,0.778436899185181,dog,dog,180,0232_rot_s02_180_dog_20_n02107908_2754.png
subject-02,1,233,1.09626412391663,bear,elephant,90,0233_rot_s02_90_elephant_20_n02504013_7316.png
subject-02,1,234,1.38818216323853,cat,bear,270,0234_rot_s02_270_bear_20_n02134084_1802.png
subject-02,1,235,0.596143960952759,boat,boat,90,0235_rot_s02_90_boat_20_n03344393_4773.png
subject-02,1,236,0.685609102249146,elephant,elephant,90,0236_rot_s02_90_elephant_20_n02504013_3540.png
subject-02,1,237,1.36749196052551,chair,oven,90,0237_rot_s02_90_oven_20_n04111531_3099.png
subject-02,1,238,0.63763689994812,bicycle,bicycle,0,0238_rot_s02_0_bicycle_20_n03792782_63201.png
subject-02,1,239,1.22925090789795,clock,clock,180,0239_rot_s02_180_clock_20_n02708093_2900.png
subject-02,1,240,0.900797843933105,airplane,airplane,90,0240_rot_s02_90_airplane_20_n02690373_9794.png
subject-02,1,241,0.728518962860107,bottle,bottle,270,0241_rot_s02_270_bottle_20_n04557648_11000.png
subject-02,1,242,0.646236181259155,boat,boat,270,0242_rot_s02_270_boat_20_n03344393_1533.png
subject-02,1,243,0.780121088027954,chair,chair,90,0243_rot_s02_90_chair_20_n02791124_5749.png
subject-02,1,244,1.15190100669861,bird,bird,0,0244_rot_s02_0_bird_20_n01534433_1227.png
subject-02,1,245,0.865998029708862,keyboard,keyboard,0,0245_rot_s02_0_keyboard_20_n04505470_10055.png
subject-02,1,246,0.827820062637329,cat,dog,270,0246_rot_s02_270_dog_20_n02113023_291.png
subject-02,1,247,0.739248991012573,bear,bear,180,0247_rot_s02_180_bear_20_n02132136_9703.png
subject-02,1,248,0.593219995498657,chair,chair,180,0248_rot_s02_180_chair_20_n04099969_10825.png
subject-02,1,249,0.810933113098145,elephant,elephant,0,0249_rot_s02_0_elephant_20_n02504013_1636.png
subject-02,1,250,0.820930004119873,bottle,bottle,90,0250_rot_s02_90_bottle_20_n02823428_4299.png
subject-02,1,251,1.26297283172607,bottle,bottle,0,0251_rot_s02_0_bottle_20_n03937543_1929.png
subject-02,1,252,1.18056011199951,bottle,elephant,0,0252_rot_s02_0_elephant_20_n02504013_6645.png
subject-02,1,253,1.08816313743591,oven,oven,90,0253_rot_s02_90_oven_20_n04111531_9611.png
subject-02,1,254,0.796053171157837,oven,oven,270,0254_rot_s02_270_oven_20_n04111531_6863.png
subject-02,1,255,0.69820499420166,bear,bear,0,0255_rot_s02_0_bear_20_n02132136_9797.png
subject-02,1,256,0.967757940292358,airplane,airplane,0,0256_rot_s02_0_airplane_20_n02690373_1171.png
subject-02,1,257,1.06544804573059,truck,truck,180,0257_rot_s02_180_truck_20_n04467665_49826.png
subject-02,1,258,1.26345109939575,airplane,chair,270,0258_rot_s02_270_chair_20_n02791124_5561.png
subject-02,1,259,0.945003032684326,bear,bird,0,0259_rot_s02_0_bird_20_n02027492_7653.png
subject-02,1,260,0.951076984405518,elephant,elephant,270,0260_rot_s02_270_elephant_20_n02504013_7883.png
subject-02,1,261,1.07674503326416,keyboard,keyboard,90,0261_rot_s02_90_keyboard_20_n04505470_4943.png
subject-02,1,262,0.814524173736572,bird,bird,270,0262_rot_s02_270_bird_20_n01558993_7871.png
subject-02,1,263,1.22237110137939,bicycle,bicycle,270,0263_rot_s02_270_bicycle_20_n03792782_68417.png
subject-02,1,264,0.850035905838013,knife,knife,270,0264_rot_s02_270_knife_20_n03041632_11700.png
subject-02,1,265,1.12199902534485,dog,dog,90,0265_rot_s02_90_dog_20_n02100877_7302.png
subject-02,1,266,0.929812908172607,bicycle,bicycle,180,0266_rot_s02_180_bicycle_20_n03792782_15282.png
subject-02,1,267,1.11151003837585,knife,knife,180,0267_rot_s02_180_knife_20_n03041632_21017.png
subject-02,1,268,1.2796049118042,airplane,airplane,90,0268_rot_s02_90_airplane_20_n02690373_5748.png
subject-02,1,269,1.19506692886353,cat,cat,0,0269_rot_s02_0_cat_20_n02124075_9358.png
subject-02,1,270,1.50015997886658,airplane,airplane,90,0270_rot_s02_90_airplane_20_n02690373_4024.png
subject-02,1,271,0.63702917098999,oven,oven,0,0271_rot_s02_0_oven_20_n04111531_7045.png
subject-02,1,272,0.636861085891724,clock,clock,180,0272_rot_s02_180_clock_20_n02708093_8255.png
subject-02,1,273,0.712579011917114,cat,cat,270,0273_rot_s02_270_cat_20_n02124075_14662.png
subject-02,1,274,0.616316080093384,bottle,bottle,180,0274_rot_s02_180_bottle_20_n04579145_1646.png
subject-02,1,275,1.02202892303467,oven,oven,90,0275_rot_s02_90_oven_20_n04111531_22291.png
subject-02,1,276,1.10220384597778,airplane,boat,270,0276_rot_s02_270_boat_20_n04273569_17522.png
subject-02,1,277,0.753796100616455,keyboard,keyboard,270,0277_rot_s02_270_keyboard_20_n04505470_6662.png
subject-02,1,278,0.641552925109863,bicycle,bicycle,90,0278_rot_s02_90_bicycle_20_n02835271_27014.png
subject-02,1,279,0.661245107650757,keyboard,keyboard,90,0279_rot_s02_90_keyboard_20_n03085013_12678.png
subject-02,1,280,0.87322998046875,oven,oven,180,0280_rot_s02_180_oven_20_n04111531_114.png
subject-02,1,281,1.42497897148132,elephant,bird,90,0281_rot_s02_90_bird_20_n01860187_20081.png
subject-02,1,282,0.730955839157104,oven,oven,90,0282_rot_s02_90_oven_20_n04111531_10727.png
subject-02,1,283,0.968549966812134,keyboard,keyboard,270,0283_rot_s02_270_keyboard_20_n03085013_13083.png
subject-02,1,284,0.916529893875122,chair,chair,180,0284_rot_s02_180_chair_20_n04099969_8021.png
subject-02,1,285,0.788459062576294,boat,boat,180,0285_rot_s02_180_boat_20_n03344393_7967.png
subject-02,1,286,0.706346988677979,elephant,elephant,0,0286_rot_s02_0_elephant_20_n02504458_8621.png
subject-02,1,287,0.789793014526367,bottle,bottle,270,0287_rot_s02_270_bottle_20_n04557648_16525.png
subject-02,1,288,0.551564931869507,oven,oven,0,0288_rot_s02_0_oven_20_n04111531_1922.png
subject-02,1,289,1.45131206512451,knife,oven,180,0289_rot_s02_180_oven_20_n04111531_11026.png
subject-02,1,290,1.25959300994873,clock,knife,270,0290_rot_s02_270_knife_20_n03041632_50034.png
subject-02,1,291,0.569056987762451,cat,cat,180,0291_rot_s02_180_cat_20_n02123045_3168.png
subject-02,1,292,0.682792901992798,bicycle,bicycle,270,0292_rot_s02_270_bicycle_20_n02835271_24104.png
subject-02,1,293,0.654748916625977,bottle,bottle,180,0293_rot_s02_180_bottle_20_n02823428_8392.png
subject-02,1,294,1.07473301887512,car,car,180,0294_rot_s02_180_car_20_n04285008_7154.png
subject-02,1,295,1.00818204879761,bird,bird,180,0295_rot_s02_180_bird_20_n02027492_6213.png
subject-02,1,296,0.614096879959106,boat,boat,180,0296_rot_s02_180_boat_20_n02951358_34766.png
subject-02,1,297,0.819839000701904,clock,clock,180,0297_rot_s02_180_clock_20_n02708093_1038.png
subject-02,1,298,1.40385603904724,truck,truck,90,0298_rot_s02_90_truck_20_n04467665_71055.png
subject-02,1,299,0.857717990875244,airplane,airplane,0,0299_rot_s02_0_airplane_20_n02690373_2232.png
subject-02,1,300,0.647467136383057,cat,cat,180,0300_rot_s02_180_cat_20_n02123045_436.png
subject-02,1,301,1.26114392280579,car,truck,0,0301_rot_s02_0_truck_20_n03417042_6838.png
subject-02,1,302,1.14095902442932,elephant,elephant,90,0302_rot_s02_90_elephant_20_n02504013_4379.png
subject-02,1,303,0.988793849945068,oven,oven,270,0303_rot_s02_270_oven_20_n04111531_845.png
subject-02,1,304,0.934735059738159,bicycle,bicycle,270,0304_rot_s02_270_bicycle_20_n02835271_8757.png
subject-02,1,305,0.982387065887451,oven,oven,90,0305_rot_s02_90_oven_20_n04111531_1855.png
subject-02,1,306,0.972123861312866,oven,oven,0,0306_rot_s02_0_oven_20_n04111531_21248.png
subject-02,1,307,0.745977163314819,bottle,bottle,90,0307_rot_s02_90_bottle_20_n03937543_984.png
subject-02,1,308,0.668247938156128,bottle,bottle,0,0308_rot_s02_0_bottle_20_n02823428_4282.png
subject-02,1,309,0.797681093215942,cat,cat,270,0309_rot_s02_270_cat_20_n02123597_2219.png
subject-02,1,310,0.919642925262451,bear,bear,0,0310_rot_s02_0_bear_20_n02133161_2040.png
subject-02,1,311,0.939199924468994,clock,clock,180,0311_rot_s02_180_clock_20_n02708093_170.png
subject-02,1,312,0.771136045455933,bottle,bottle,270,0312_rot_s02_270_bottle_20_n04579145_3729.png
subject-02,1,313,0.836967945098877,bottle,bottle,0,0313_rot_s02_0_bottle_20_n04560804_15562.png
subject-02,1,314,1.14276599884033,knife,knife,90,0314_rot_s02_90_knife_20_n03041632_7448.png
subject-02,1,315,0.856565952301025,bicycle,bicycle,90,0315_rot_s02_90_bicycle_20_n03792782_16117.png
subject-02,1,316,1.1363639831543,bird,bird,270,0316_rot_s02_270_bird_20_n02018207_7930.png
subject-02,1,317,1.18409895896912,bicycle,bicycle,0,0317_rot_s02_0_bicycle_20_n02835271_8137.png
subject-02,1,318,1.01602697372437,knife,knife,90,0318_rot_s02_90_knife_20_n03041632_51339.png
subject-02,1,319,0.843739032745361,elephant,elephant,180,0319_rot_s02_180_elephant_20_n02504458_1504.png
subject-02,1,320,0.989537000656128,bear,bear,90,0320_rot_s02_90_bear_20_n02132136_17349.png
subject-02,1,321,1.11252307891846,cat,cat,270,0321_rot_s02_270_cat_20_n02125311_21290.png
subject-02,1,322,0.780052900314331,bicycle,bicycle,270,0322_rot_s02_270_bicycle_20_n03792782_9782.png
subject-02,1,323,1.50004506111145,dog,dog,0,0323_rot_s02_0_dog_20_n02101006_4807.png
subject-02,1,324,1.48790717124939,elephant,clock,270,0324_rot_s02_270_clock_20_n03196217_2022.png
subject-02,1,325,0.819860935211182,keyboard,keyboard,180,0325_rot_s02_180_keyboard_20_n04505470_3566.png
subject-02,1,326,1.21553897857666,keyboard,chair,180,0326_rot_s02_180_chair_20_n04099969_3485.png
subject-02,1,327,1.27339196205139,car,car,90,0327_rot_s02_90_car_20_n02814533_23979.png
subject-02,1,328,0.713268995285034,bottle,bottle,90,0328_rot_s02_90_bottle_20_n03983396_3315.png
subject-02,1,329,1.13704109191895,oven,clock,270,0329_rot_s02_270_clock_20_n03196217_5433.png
subject-02,1,330,1.01281809806824,knife,knife,270,0330_rot_s02_270_knife_20_n03041632_751.png
subject-02,1,331,0.930733919143677,airplane,airplane,180,0331_rot_s02_180_airplane_20_n02690373_6332.png
subject-02,1,332,0.924530982971191,keyboard,keyboard,0,0332_rot_s02_0_keyboard_20_n03085013_3795.png
subject-02,1,333,1.00023484230042,truck,truck,90,0333_rot_s02_90_truck_20_n04467665_15994.png
subject-02,1,334,0.725838184356689,bear,bear,0,0334_rot_s02_0_bear_20_n02133161_4218.png
subject-02,1,335,0.527921199798584,cat,cat,0,0335_rot_s02_0_cat_20_n02123045_455.png
subject-02,1,336,0.843906164169312,dog,dog,90,0336_rot_s02_90_dog_20_n02090379_13010.png
subject-02,1,337,1.09189414978027,oven,bottle,0,0337_rot_s02_0_bottle_20_n03983396_17262.png
subject-02,1,338,0.679512977600098,boat,boat,90,0338_rot_s02_90_boat_20_n02951358_582.png
subject-02,1,339,1.0032160282135,elephant,elephant,270,0339_rot_s02_270_elephant_20_n02504013_522.png
subject-02,1,340,1.18280696868896,oven,knife,180,0340_rot_s02_180_knife_20_n03041632_101810.png
subject-02,1,341,1.32865500450134,elephant,oven,270,0341_rot_s02_270_oven_20_n04111531_5015.png
subject-02,1,342,1.33850193023682,bicycle,boat,270,0342_rot_s02_270_boat_20_n03662601_20059.png
subject-02,1,343,0.620449066162109,keyboard,keyboard,270,0343_rot_s02_270_keyboard_20_n03085013_1070.png
subject-02,1,344,0.734121084213257,bird,bird,90,0344_rot_s02_90_bird_20_n02002556_5890.png
subject-02,1,345,0.799888134002686,chair,chair,0,0345_rot_s02_0_chair_20_n04099969_6431.png
subject-02,1,346,1.03588795661926,knife,knife,270,0346_rot_s02_270_knife_20_n03041632_14916.png
subject-02,1,347,0.73167896270752,bear,cat,270,0347_rot_s02_270_cat_20_n02123045_8409.png
subject-02,1,348,0.757383108139038,bicycle,bicycle,90,0348_rot_s02_90_bicycle_20_n03792782_26383.png
subject-02,1,349,0.81523585319519,elephant,elephant,180,0349_rot_s02_180_elephant_20_n02504458_2272.png
subject-02,1,350,1.14704608917236,dog,dog,0,0350_rot_s02_0_dog_20_n02097209_1042.png
subject-02,1,351,0.868757009506226,cat,cat,90,0351_rot_s02_90_cat_20_n02124075_14998.png
subject-02,1,352,0.536689043045044,oven,oven,0,0352_rot_s02_0_oven_20_n04111531_18648.png
subject-02,1,353,1.30644798278809,airplane,airplane,0,0353_rot_s02_0_airplane_20_n02690373_7142.png
subject-02,1,354,0.808433055877686,truck,truck,0,0354_rot_s02_0_truck_20_n03417042_11446.png
subject-02,1,355,0.575968980789185,boat,boat,90,0355_rot_s02_90_boat_20_n03662601_3893.png
subject-02,1,356,1.04822301864624,bicycle,bicycle,270,0356_rot_s02_270_bicycle_20_n03792782_40932.png
subject-02,1,357,0.949668169021606,clock,clock,270,0357_rot_s02_270_clock_20_n03196217_8887.png
subject-02,1,358,1.24743700027466,oven,bottle,90,0358_rot_s02_90_bottle_20_n03937543_2469.png
subject-02,1,359,0.767279863357544,knife,knife,270,0359_rot_s02_270_knife_20_n03041632_7205.png
subject-02,1,360,0.6490638256073,bicycle,bicycle,180,0360_rot_s02_180_bicycle_20_n02835271_24.png
subject-02,1,361,1.2007691860199,dog,dog,0,0361_rot_s02_0_dog_20_n02107908_8891.png
subject-02,1,362,0.938668012619019,car,car,270,0362_rot_s02_270_car_20_n03100240_7602.png
subject-02,1,363,0.798846006393433,bicycle,bicycle,270,0363_rot_s02_270_bicycle_20_n03792782_29606.png
subject-02,1,364,0.904427051544189,bottle,oven,0,0364_rot_s02_0_oven_20_n04111531_1230.png
subject-02,1,365,0.884133815765381,boat,boat,90,0365_rot_s02_90_boat_20_n04273569_8951.png
subject-02,1,366,1.10589599609375,elephant,elephant,270,0366_rot_s02_270_elephant_20_n02504013_5173.png
subject-02,1,367,0.608145952224731,keyboard,keyboard,90,0367_rot_s02_90_keyboard_20_n03085013_2853.png
subject-02,1,368,0.791682004928589,dog,dog,0,0368_rot_s02_0_dog_20_n02109525_7478.png
subject-02,1,369,1.18532109260559,boat,boat,90,0369_rot_s02_90_boat_20_n03662601_6832.png
subject-02,1,370,0.639450073242188,clock,clock,180,0370_rot_s02_180_clock_20_n03196217_1271.png
subject-02,1,371,0.933320999145508,boat,airplane,90,0371_rot_s02_90_airplane_20_n02690373_4982.png
subject-02,1,372,0.636837959289551,bicycle,bicycle,180,0372_rot_s02_180_bicycle_20_n02835271_14862.png
subject-02,1,373,1.14869403839111,bottle,bottle,0,0373_rot_s02_0_bottle_20_n04560804_15625.png
subject-02,1,374,1.3007640838623,bear,bear,90,0374_rot_s02_90_bear_20_n02134418_5071.png
subject-02,1,375,0.936259984970093,knife,knife,0,0375_rot_s02_0_knife_20_n03041632_13846.png
subject-02,1,376,0.716008901596069,bottle,bottle,0,0376_rot_s02_0_bottle_20_n04591713_2903.png
subject-02,1,377,0.779948949813843,car,car,180,0377_rot_s02_180_car_20_n02814533_55715.png
subject-02,1,378,0.625916004180908,clock,clock,270,0378_rot_s02_270_clock_20_n04548280_4198.png
subject-02,1,379,1.36545014381409,elephant,elephant,270,0379_rot_s02_270_elephant_20_n02504013_10301.png
subject-02,1,380,0.767444849014282,clock,clock,0,0380_rot_s02_0_clock_20_n02708093_2012.png
subject-02,1,381,0.75499701499939,bicycle,bicycle,180,0381_rot_s02_180_bicycle_20_n03792782_13680.png
subject-02,1,382,1.35112595558167,chair,chair,0,0382_rot_s02_0_chair_20_n02791124_3180.png
subject-02,1,383,1.0568790435791,cat,cat,90,0383_rot_s02_90_cat_20_n02123159_5678.png
subject-02,1,384,0.888699054718018,car,car,180,0384_rot_s02_180_car_20_n04285008_8530.png
subject-02,1,385,0.958403825759888,bear,dog,180,0385_rot_s02_180_dog_20_n02111277_4038.png
subject-02,1,386,0.684218883514404,cat,cat,90,0386_rot_s02_90_cat_20_n02125311_2959.png
subject-02,1,387,0.946125030517578,oven,oven,270,0387_rot_s02_270_oven_20_n04111531_22386.png
subject-02,1,388,0.876145124435425,chair,chair,270,0388_rot_s02_270_chair_20_n03376595_6445.png
subject-02,1,389,1.09972596168518,bird,bird,270,0389_rot_s02_270_bird_20_n02028035_32824.png
subject-02,1,390,0.837478876113892,cat,cat,0,0390_rot_s02_0_cat_20_n02124075_13594.png
subject-02,1,391,1.13128089904785,dog,oven,180,0391_rot_s02_180_oven_20_n04111531_704.png
subject-02,1,392,0.77311110496521,truck,truck,90,0392_rot_s02_90_truck_20_n03796401_16046.png
subject-02,1,393,0.674857139587402,chair,chair,0,0393_rot_s02_0_chair_20_n03376595_19165.png
subject-02,1,394,0.958797216415405,bird,bird,180,0394_rot_s02_180_bird_20_n02009912_18708.png
subject-02,1,395,0.63263201713562,bear,bear,270,0395_rot_s02_270_bear_20_n02134084_147.png
subject-02,1,396,0.892518043518066,bottle,bottle,0,0396_rot_s02_0_bottle_20_n03937543_1197.png
subject-02,1,397,0.91021203994751,truck,truck,90,0397_rot_s02_90_truck_20_n04467665_8303.png
subject-02,1,398,1.24996590614319,bicycle,bicycle,180,0398_rot_s02_180_bicycle_20_n03792782_70555.png
subject-02,1,399,0.783979177474976,clock,clock,90,0399_rot_s02_90_clock_20_n03196217_4578.png
subject-02,1,400,0.889518022537231,truck,truck,180,0400_rot_s02_180_truck_20_n03796401_1150.png
subject-02,1,401,1.05918908119202,elephant,elephant,270,0401_rot_s02_270_elephant_20_n02504013_7724.png
subject-02,1,402,0.977176904678345,clock,truck,0,0402_rot_s02_0_truck_20_n03417042_11000.png
subject-02,1,403,0.938844919204712,bird,bird,180,0403_rot_s02_180_bird_20_n01530575_7990.png
subject-02,1,404,1.30263686180115,car,oven,90,0404_rot_s02_90_oven_20_n04111531_8988.png
subject-02,1,405,0.742396116256714,chair,chair,180,0405_rot_s02_180_chair_20_n04429376_4296.png
subject-02,1,406,0.840087890625,boat,boat,180,0406_rot_s02_180_boat_20_n04273569_15761.png
subject-02,1,407,0.836090087890625,car,car,0,0407_rot_s02_0_car_20_n02814533_52605.png
subject-02,1,408,0.991951942443848,knife,knife,270,0408_rot_s02_270_knife_20_n03041632_17100.png
subject-02,1,409,0.887712001800537,keyboard,keyboard,270,0409_rot_s02_270_keyboard_20_n03085013_7879.png
subject-02,1,410,1.09180617332458,bird,bird,0,0410_rot_s02_0_bird_20_n01592084_2639.png
subject-02,1,411,0.579421043395996,oven,oven,270,0411_rot_s02_270_oven_20_n04111531_9380.png
subject-02,1,412,0.765156030654907,knife,knife,180,0412_rot_s02_180_knife_20_n03041632_24228.png
subject-02,1,413,0.918962955474854,bear,bear,270,0413_rot_s02_270_bear_20_n02134084_17215.png
subject-02,1,414,0.858841180801392,keyboard,keyboard,90,0414_rot_s02_90_keyboard_20_n03085013_7317.png
subject-02,1,415,0.774763107299805,bottle,bottle,270,0415_rot_s02_270_bottle_20_n04591713_7036.png
subject-02,1,416,1.2027440071106,bird,bird,180,0416_rot_s02_180_bird_20_n02017213_4781.png
subject-02,1,417,1.37008714675903,bottle,chair,270,0417_rot_s02_270_chair_20_n03376595_9535.png
subject-02,1,418,0.808143138885498,cat,cat,270,0418_rot_s02_270_cat_20_n02124075_10542.png
subject-02,1,419,0.639721870422363,cat,cat,0,0419_rot_s02_0_cat_20_n02124075_13577.png
subject-02,1,420,0.861712217330933,chair,chair,90,0420_rot_s02_90_chair_20_n04429376_1754.png
subject-02,1,421,0.871815919876099,knife,oven,180,0421_rot_s02_180_oven_20_n04111531_13906.png
subject-02,1,422,0.56927490234375,oven,oven,90,0422_rot_s02_90_oven_20_n04111531_21011.png
subject-02,1,423,0.87933087348938,keyboard,keyboard,270,0423_rot_s02_270_keyboard_20_n03085013_22175.png
subject-02,1,424,1.04308104515076,airplane,airplane,0,0424_rot_s02_0_airplane_20_n02690373_1306.png
subject-02,1,425,0.780704975128174,truck,truck,270,0425_rot_s02_270_truck_20_n04467665_14024.png
subject-02,1,426,0.924561023712158,dog,dog,270,0426_rot_s02_270_dog_20_n02105505_3286.png
subject-02,1,427,0.644476890563965,boat,boat,0,0427_rot_s02_0_boat_20_n03344393_9251.png
subject-02,1,428,0.79620099067688,bottle,bottle,180,0428_rot_s02_180_bottle_20_n03983396_2002.png
subject-02,1,429,0.713805913925171,cat,cat,0,0429_rot_s02_0_cat_20_n02123394_937.png
subject-02,1,430,1.34784293174744,bottle,dog,180,0430_rot_s02_180_dog_20_n02097047_5605.png
subject-02,1,431,0.835743188858032,bird,bird,0,0431_rot_s02_0_bird_20_n02017213_15918.png
subject-02,1,432,1.2295708656311,elephant,elephant,270,0432_rot_s02_270_elephant_20_n02504458_9922.png
subject-02,1,433,0.91147780418396,boat,boat,90,0433_rot_s02_90_boat_20_n03344393_6588.png
subject-02,1,434,1.04918909072876,oven,knife,90,0434_rot_s02_90_knife_20_n03041632_11773.png
subject-02,1,435,0.702798843383789,clock,car,180,0435_rot_s02_180_car_20_n04285008_4834.png
subject-02,1,436,1.23457479476929,dog,dog,180,0436_rot_s02_180_dog_20_n02088094_13379.png
subject-02,1,437,1.49630689620972,airplane,airplane,0,0437_rot_s02_0_airplane_20_n02690373_9829.png
subject-02,1,438,0.538409948348999,cat,cat,0,0438_rot_s02_0_cat_20_n02123159_1008.png
subject-02,1,439,NaN,na,chair,180,0439_rot_s02_180_chair_20_n04429376_6390.png
subject-02,1,440,1.07201814651489,knife,clock,270,0440_rot_s02_270_clock_20_n03196217_1984.png
subject-02,1,441,0.623835802078247,cat,cat,180,0441_rot_s02_180_cat_20_n02123159_630.png
subject-02,1,442,1.26957702636719,car,bear,270,0442_rot_s02_270_bear_20_n02134418_1388.png
subject-02,1,443,1.11321806907654,knife,knife,180,0443_rot_s02_180_knife_20_n03041632_53874.png
subject-02,1,444,0.835046052932739,bicycle,bicycle,180,0444_rot_s02_180_bicycle_20_n02835271_2131.png
subject-02,1,445,0.728918075561523,chair,chair,270,0445_rot_s02_270_chair_20_n04099969_41686.png
subject-02,1,446,1.06261706352234,bear,bear,270,0446_rot_s02_270_bear_20_n02134084_7345.png
subject-02,1,447,1.27663898468018,cat,truck,0,0447_rot_s02_0_truck_20_n03417042_9378.png
subject-02,1,448,0.784384965896606,dog,dog,270,0448_rot_s02_270_dog_20_n02104365_1756.png
subject-02,1,449,0.866116046905518,elephant,elephant,0,0449_rot_s02_0_elephant_20_n02504458_6119.png
subject-02,1,450,0.82433295249939,bird,bird,180,0450_rot_s02_180_bird_20_n02027492_20576.png
subject-02,1,451,0.917776107788086,keyboard,keyboard,90,0451_rot_s02_90_keyboard_20_n04505470_4047.png
subject-02,1,452,0.766146183013916,cat,cat,270,0452_rot_s02_270_cat_20_n02124075_2986.png
subject-02,1,453,0.691352844238281,clock,clock,90,0453_rot_s02_90_clock_20_n04548280_11763.png
subject-02,1,454,1.03326010704041,bear,bear,270,0454_rot_s02_270_bear_20_n02133161_5020.png
subject-02,1,455,0.841001987457275,knife,knife,0,0455_rot_s02_0_knife_20_n03041632_10263.png
subject-02,1,456,0.63519811630249,bird,bird,270,0456_rot_s02_270_bird_20_n01592084_8100.png
subject-02,1,457,0.810677051544189,bird,bird,0,0457_rot_s02_0_bird_20_n02006656_5079.png
subject-02,1,458,1.03240394592285,car,truck,180,0458_rot_s02_180_truck_20_n03417042_5004.png
subject-02,1,459,0.626213073730469,clock,chair,90,0459_rot_s02_90_chair_20_n04429376_13191.png
subject-02,1,460,0.841974020004272,keyboard,keyboard,90,0460_rot_s02_90_keyboard_20_n04505470_816.png
subject-02,1,461,0.673839092254639,bicycle,bicycle,180,0461_rot_s02_180_bicycle_20_n03792782_6030.png
subject-02,1,462,1.15782499313354,bird,bird,180,0462_rot_s02_180_bird_20_n01601694_19236.png
subject-02,1,463,0.783589839935303,boat,boat,0,0463_rot_s02_0_boat_20_n03662601_16495.png
subject-02,1,464,1.22321891784668,bear,dog,0,0464_rot_s02_0_dog_20_n02092339_659.png
subject-02,1,465,0.539571046829224,bear,bear,0,0465_rot_s02_0_bear_20_n02134418_1017.png
subject-02,1,466,1.16489505767822,airplane,airplane,180,0466_rot_s02_180_airplane_20_n02690373_9293.png
subject-02,1,467,1.35878586769104,knife,knife,90,0467_rot_s02_90_knife_20_n03041632_14801.png
subject-02,1,468,0.879029989242554,cat,cat,90,0468_rot_s02_90_cat_20_n02123597_2522.png
subject-02,1,469,0.948647975921631,car,car,90,0469_rot_s02_90_car_20_n02814533_68219.png
subject-02,1,470,0.60027003288269,clock,clock,90,0470_rot_s02_90_clock_20_n02708093_8069.png
subject-02,1,471,0.86189079284668,car,car,90,0471_rot_s02_90_car_20_n04285008_12737.png
subject-02,1,472,0.699898958206177,chair,chair,270,0472_rot_s02_270_chair_20_n04099969_130.png
subject-02,1,473,1.02403903007507,knife,knife,180,0473_rot_s02_180_knife_20_n03041632_15174.png
subject-02,1,474,0.737530946731567,bottle,bottle,180,0474_rot_s02_180_bottle_20_n04579145_579.png
subject-02,1,475,0.66730785369873,cat,dog,90,0475_rot_s02_90_dog_20_n02095570_11263.png
subject-02,1,476,1.10103321075439,bear,elephant,180,0476_rot_s02_180_elephant_20_n02504013_7926.png
subject-02,1,477,0.875295877456665,bear,bear,90,0477_rot_s02_90_bear_20_n02132136_2691.png
subject-02,1,478,0.874605894088745,keyboard,keyboard,180,0478_rot_s02_180_keyboard_20_n04505470_4477.png
subject-02,1,479,1.05062198638916,bear,bear,180,0479_rot_s02_180_bear_20_n02133161_2741.png
subject-02,1,480,0.680608034133911,cat,cat,90,0480_rot_s02_90_cat_20_n02123597_10141.png
subject-02,1,481,0.532793045043945,clock,clock,90,0481_rot_s02_90_clock_20_n04548280_1947.png
subject-02,1,482,0.614451885223389,oven,oven,90,0482_rot_s02_90_oven_20_n04111531_9915.png
subject-02,1,483,1.1962468624115,elephant,elephant,0,0483_rot_s02_0_elephant_20_n02504458_5181.png
subject-02,1,484,0.766212940216064,clock,clock,90,0484_rot_s02_90_clock_20_n04548280_3531.png
subject-02,1,485,0.970046043395996,bicycle,bicycle,90,0485_rot_s02_90_bicycle_20_n02835271_3308.png
subject-02,1,486,1.45373392105103,bottle,chair,180,0486_rot_s02_180_chair_20_n02791124_3186.png
subject-02,1,487,0.831485986709595,dog,dog,90,0487_rot_s02_90_dog_20_n02110806_8971.png
subject-02,1,488,0.875421047210693,car,car,180,0488_rot_s02_180_car_20_n04285008_7155.png
subject-02,1,489,0.847023010253906,truck,truck,180,0489_rot_s02_180_truck_20_n03417042_189.png
subject-02,1,490,1.03076910972595,boat,boat,0,0490_rot_s02_0_boat_20_n03344393_8032.png
subject-02,1,491,1.14280295372009,dog,dog,0,0491_rot_s02_0_dog_20_n02091467_2974.png
subject-02,1,492,0.778429985046387,keyboard,keyboard,270,0492_rot_s02_270_keyboard_20_n03085013_19054.png
subject-02,1,493,0.992183208465576,bottle,bottle,180,0493_rot_s02_180_bottle_20_n04557648_5790.png
subject-02,1,494,0.8020179271698,oven,oven,180,0494_rot_s02_180_oven_20_n04111531_10375.png
subject-02,1,495,1.03397703170776,bear,bear,270,0495_rot_s02_270_bear_20_n02134418_1094.png
subject-02,1,496,0.971670866012573,bicycle,bicycle,270,0496_rot_s02_270_bicycle_20_n03792782_3388.png
subject-02,1,497,0.849418163299561,bicycle,bicycle,0,0497_rot_s02_0_bicycle_20_n02835271_9310.png
subject-02,1,498,0.773444890975952,car,car,180,0498_rot_s02_180_car_20_n03100240_7781.png
subject-02,1,499,0.755248069763184,airplane,airplane,0,0499_rot_s02_0_airplane_20_n02690373_389.png
subject-02,1,500,1.21910405158997,knife,knife,90,0500_rot_s02_90_knife_20_n03041632_32774.png
subject-02,1,501,1.3848340511322,bird,boat,270,0501_rot_s02_270_boat_20_n02951358_9837.png
subject-02,1,502,0.599037885665894,clock,clock,0,0502_rot_s02_0_clock_20_n02708093_2030.png
subject-02,1,503,0.676423788070679,cat,keyboard,180,0503_rot_s02_180_keyboard_20_n03085013_3691.png
subject-02,1,504,1.05228900909424,car,car,270,0504_rot_s02_270_car_20_n02814533_23563.png
subject-02,1,505,NaN,na,chair,90,0505_rot_s02_90_chair_20_n03376595_8064.png
subject-02,1,506,0.761847019195557,airplane,airplane,0,0506_rot_s02_0_airplane_20_n02690373_4979.png
subject-02,1,507,0.649651765823364,boat,boat,0,0507_rot_s02_0_boat_20_n04273569_23800.png
subject-02,1,508,0.739460945129395,cat,cat,0,0508_rot_s02_0_cat_20_n02123159_2137.png
subject-02,1,509,0.929296016693115,dog,dog,90,0509_rot_s02_90_dog_20_n02088364_15877.png
subject-02,1,510,0.78304386138916,boat,boat,180,0510_rot_s02_180_boat_20_n03662601_16627.png
subject-02,1,511,0.63898491859436,bottle,bottle,90,0511_rot_s02_90_bottle_20_n03983396_4115.png
subject-02,1,512,0.680699825286865,chair,chair,0,0512_rot_s02_0_chair_20_n02791124_422.png
subject-02,1,513,0.812458992004395,bicycle,bicycle,0,0513_rot_s02_0_bicycle_20_n02835271_6383.png
subject-02,1,514,0.948653936386108,dog,dog,0,0514_rot_s02_0_dog_20_n02109525_63913.png
subject-02,1,515,1.30451393127441,cat,bear,180,0515_rot_s02_180_bear_20_n02133161_5235.png
subject-02,1,516,0.91992712020874,bird,bird,90,0516_rot_s02_90_bird_20_n01534433_14735.png
subject-02,1,517,1.39383220672607,boat,boat,180,0517_rot_s02_180_boat_20_n03344393_1519.png
subject-02,1,518,0.763527154922485,knife,knife,180,0518_rot_s02_180_knife_20_n03041632_31632.png
subject-02,1,519,1.06180906295776,airplane,airplane,180,0519_rot_s02_180_airplane_20_n02690373_139.png
subject-02,1,520,0.979171991348267,car,truck,270,0520_rot_s02_270_truck_20_n03417042_18745.png
subject-02,1,521,0.79906702041626,cat,cat,0,0521_rot_s02_0_cat_20_n02123597_32226.png
subject-02,1,522,1.03671813011169,oven,oven,0,0522_rot_s02_0_oven_20_n04111531_7134.png
subject-02,1,523,0.830763101577759,knife,knife,180,0523_rot_s02_180_knife_20_n03041632_30821.png
subject-02,1,524,0.700541973114014,bear,bear,180,0524_rot_s02_180_bear_20_n02134418_1825.png
subject-02,1,525,0.952398061752319,bird,bird,0,0525_rot_s02_0_bird_20_n01817953_2043.png
subject-02,1,526,0.768158912658691,boat,boat,180,0526_rot_s02_180_boat_20_n02951358_3511.png
subject-02,1,527,1.21389079093933,chair,chair,0,0527_rot_s02_0_chair_20_n02791124_2898.png
subject-02,1,528,0.98957896232605,airplane,airplane,270,0528_rot_s02_270_airplane_20_n02690373_8740.png
subject-02,1,529,1.0618531703949,knife,knife,90,0529_rot_s02_90_knife_20_n03041632_19620.png
subject-02,1,530,0.717759847640991,bird,bird,270,0530_rot_s02_270_bird_20_n02013706_652.png
subject-02,1,531,0.753197908401489,keyboard,keyboard,90,0531_rot_s02_90_keyboard_20_n03085013_25924.png
subject-02,1,532,0.81148886680603,airplane,airplane,0,0532_rot_s02_0_airplane_20_n02690373_10044.png
subject-02,1,533,1.11668705940247,dog,dog,90,0533_rot_s02_90_dog_20_n02110063_8776.png
subject-02,1,534,1.10473918914795,oven,oven,90,0534_rot_s02_90_oven_20_n04111531_5328.png
subject-02,1,535,0.678436040878296,cat,cat,180,0535_rot_s02_180_cat_20_n02124075_13437.png
subject-02,1,536,1.22428202629089,bear,bear,90,0536_rot_s02_90_bear_20_n02134418_998.png
subject-02,1,537,0.94015097618103,cat,cat,0,0537_rot_s02_0_cat_20_n02123045_10433.png
subject-02,1,538,0.637806177139282,keyboard,keyboard,180,0538_rot_s02_180_keyboard_20_n03085013_22698.png
subject-02,1,539,0.641615867614746,bicycle,bicycle,90,0539_rot_s02_90_bicycle_20_n03792782_1924.png
subject-02,1,540,0.817784786224365,cat,cat,180,0540_rot_s02_180_cat_20_n02123045_11545.png
subject-02,1,541,1.5000581741333,cat,bear,180,0541_rot_s02_180_bear_20_n02134418_2122.png
subject-02,1,542,0.517072916030884,cat,cat,180,0542_rot_s02_180_cat_20_n02123597_6186.png
subject-02,1,543,0.798845052719116,bear,bear,0,0543_rot_s02_0_bear_20_n02133161_62.png
subject-02,1,544,0.794797897338867,cat,cat,270,0544_rot_s02_270_cat_20_n02123045_13025.png
subject-02,1,545,1.42045211791992,boat,truck,0,0545_rot_s02_0_truck_20_n03417042_19355.png
subject-02,1,546,0.658168077468872,keyboard,keyboard,270,0546_rot_s02_270_keyboard_20_n03085013_7382.png
subject-02,1,547,0.924049854278564,chair,clock,180,0547_rot_s02_180_clock_20_n04548280_13750.png
subject-02,1,548,0.558048963546753,chair,chair,90,0548_rot_s02_90_chair_20_n04099969_8642.png
subject-02,1,549,1.09174513816833,dog,dog,90,0549_rot_s02_90_dog_20_n02087394_7707.png
subject-02,1,550,0.513365983963013,cat,cat,270,0550_rot_s02_270_cat_20_n02123597_5927.png
subject-02,1,551,1.13737177848816,car,car,0,0551_rot_s02_0_car_20_n02814533_6233.png
subject-02,1,552,1.33721494674683,elephant,elephant,0,0552_rot_s02_0_elephant_20_n02504013_9299.png
subject-02,1,553,0.847146034240723,elephant,elephant,270,0553_rot_s02_270_elephant_20_n02504458_1971.png
subject-02,1,554,1.35913395881653,oven,chair,270,0554_rot_s02_270_chair_20_n02791124_3710.png
subject-02,1,555,0.858521938323975,airplane,airplane,180,0555_rot_s02_180_airplane_20_n02690373_7046.png
subject-02,1,556,1.33835506439209,car,keyboard,180,0556_rot_s02_180_keyboard_20_n03085013_7009.png
subject-02,1,557,0.740540981292725,car,boat,0,0557_rot_s02_0_boat_20_n04273569_1538.png
subject-02,1,558,1.12594413757324,cat,bird,90,0558_rot_s02_90_bird_20_n01817953_6970.png
subject-02,1,559,0.801908016204834,airplane,airplane,90,0559_rot_s02_90_airplane_20_n02690373_10727.png
subject-02,1,560,1.07196307182312,dog,dog,0,0560_rot_s02_0_dog_20_n02110958_14369.png
subject-02,1,561,0.806280136108398,car,car,0,0561_rot_s02_0_car_20_n03100240_16084.png
subject-02,1,562,0.927959203720093,bird,bird,270,0562_rot_s02_270_bird_20_n01537544_1886.png
subject-02,1,563,0.8419349193573,dog,dog,270,0563_rot_s02_270_dog_20_n02096051_1852.png
subject-02,1,564,1.01771903038025,boat,boat,180,0564_rot_s02_180_boat_20_n04612504_13034.png
subject-02,1,565,0.935524940490723,knife,knife,180,0565_rot_s02_180_knife_20_n03041632_33268.png
subject-02,1,566,0.665373086929321,keyboard,keyboard,270,0566_rot_s02_270_keyboard_20_n04505470_1649.png
subject-02,1,567,0.902937889099121,bottle,bottle,0,0567_rot_s02_0_bottle_20_n03937543_11959.png
subject-02,1,568,0.718957901000977,boat,boat,180,0568_rot_s02_180_boat_20_n03344393_7705.png
subject-02,1,569,0.754741191864014,boat,boat,180,0569_rot_s02_180_boat_20_n04273569_7818.png
subject-02,1,570,1.38846588134766,elephant,elephant,180,0570_rot_s02_180_elephant_20_n02504458_1623.png
subject-02,1,571,1.50002789497375,truck,truck,180,0571_rot_s02_180_truck_20_n03417042_19447.png
subject-02,1,572,0.672616958618164,chair,chair,90,0572_rot_s02_90_chair_20_n04099969_2561.png
subject-02,1,573,1.00395107269287,bird,bird,90,0573_rot_s02_90_bird_20_n02011460_13994.png
subject-02,1,574,0.905838012695312,clock,clock,90,0574_rot_s02_90_clock_20_n04548280_18914.png
subject-02,1,575,0.629795074462891,keyboard,keyboard,0,0575_rot_s02_0_keyboard_20_n04505470_4651.png
subject-02,1,576,0.735483169555664,bottle,bottle,90,0576_rot_s02_90_bottle_20_n03983396_618.png
subject-02,1,577,0.681168079376221,boat,boat,0,0577_rot_s02_0_boat_20_n04273569_11502.png
subject-02,1,578,0.784996032714844,car,car,180,0578_rot_s02_180_car_20_n03100240_6479.png
subject-02,1,579,1.39480686187744,keyboard,bottle,270,0579_rot_s02_270_bottle_20_n03983396_22816.png
subject-02,1,580,0.780932188034058,elephant,elephant,0,0580_rot_s02_0_elephant_20_n02504013_1333.png
subject-02,1,581,1.10473394393921,knife,knife,0,0581_rot_s02_0_knife_20_n03041632_100645.png
subject-02,1,582,1.14026713371277,bottle,bottle,0,0582_rot_s02_0_bottle_20_n04557648_757.png
subject-02,1,583,1.50009202957153,chair,truck,270,0583_rot_s02_270_truck_20_n03796401_6346.png
subject-02,1,584,1.36584687232971,bird,bird,180,0584_rot_s02_180_bird_20_n01531178_17239.png
subject-02,1,585,1.2577919960022,elephant,oven,0,0585_rot_s02_0_oven_20_n04111531_17006.png
subject-02,1,586,0.671612024307251,bear,bear,90,0586_rot_s02_90_bear_20_n02133161_5267.png
subject-02,1,587,1.01128387451172,clock,clock,270,0587_rot_s02_270_clock_20_n03196217_2291.png
subject-02,1,588,0.693218946456909,boat,boat,180,0588_rot_s02_180_boat_20_n03662601_9140.png
subject-02,1,589,0.802871942520142,elephant,elephant,180,0589_rot_s02_180_elephant_20_n02504013_2431.png
subject-02,1,590,0.68060302734375,bear,bear,0,0590_rot_s02_0_bear_20_n02134418_5527.png
subject-02,1,591,0.962488889694214,dog,dog,180,0591_rot_s02_180_dog_20_n02100236_7671.png
subject-02,1,592,1.35237002372742,oven,clock,0,0592_rot_s02_0_clock_20_n04548280_8303.png
subject-02,1,593,1.27812504768372,dog,bear,270,0593_rot_s02_270_bear_20_n02134418_5067.png
subject-02,1,594,0.613909959793091,keyboard,keyboard,180,0594_rot_s02_180_keyboard_20_n04505470_933.png
subject-02,1,595,0.945672035217285,bird,bird,0,0595_rot_s02_0_bird_20_n01530575_3198.png
subject-02,1,596,1.02779006958008,cat,clock,0,0596_rot_s02_0_clock_20_n04548280_253.png
subject-02,1,597,1.13184809684753,dog,dog,0,0597_rot_s02_0_dog_20_n02098105_385.png
subject-02,1,598,0.713228940963745,truck,truck,0,0598_rot_s02_0_truck_20_n03796401_8463.png
subject-02,1,599,1.06101202964783,elephant,cat,270,0599_rot_s02_270_cat_20_n02123394_4700.png
subject-02,1,600,NaN,na,dog,180,0600_rot_s02_180_dog_20_n02100877_3112.png
subject-02,1,601,0.812893152236938,cat,keyboard,180,0601_rot_s02_180_keyboard_20_n03085013_24316.png
subject-02,1,602,1.10643196105957,knife,knife,0,0602_rot_s02_0_knife_20_n03041632_4279.png
subject-02,1,603,0.640455007553101,car,car,0,0603_rot_s02_0_car_20_n02814533_39547.png
subject-02,1,604,0.728124141693115,boat,boat,0,0604_rot_s02_0_boat_20_n03662601_26140.png
subject-02,1,605,1.16844201087952,car,car,270,0605_rot_s02_270_car_20_n04285008_11704.png
subject-02,1,606,0.735802888870239,clock,clock,180,0606_rot_s02_180_clock_20_n03196217_6526.png
subject-02,1,607,1.03367400169373,oven,oven,0,0607_rot_s02_0_oven_20_n04111531_6204.png
subject-02,1,608,1.15330195426941,clock,clock,270,0608_rot_s02_270_clock_20_n04548280_8552.png
subject-02,1,609,1.2790789604187,cat,bear,90,0609_rot_s02_90_bear_20_n02134418_4365.png
subject-02,1,610,0.709271907806396,car,car,270,0610_rot_s02_270_car_20_n04285008_12504.png
subject-02,1,611,0.850741147994995,dog,dog,0,0611_rot_s02_0_dog_20_n02102318_501.png
subject-02,1,612,0.856572151184082,bird,bird,0,0612_rot_s02_0_bird_20_n02006656_2030.png
subject-02,1,613,0.762527942657471,bird,bird,0,0613_rot_s02_0_bird_20_n02009229_492.png
subject-02,1,614,0.944194793701172,car,car,90,0614_rot_s02_90_car_20_n02814533_18148.png
subject-02,1,615,0.948146820068359,cat,cat,0,0615_rot_s02_0_cat_20_n02123597_2341.png
subject-02,1,616,1.17629790306091,knife,knife,180,0616_rot_s02_180_knife_20_n03041632_2630.png
subject-02,1,617,1.17981290817261,car,car,180,0617_rot_s02_180_car_20_n03100240_4288.png
subject-02,1,618,1.00347590446472,bottle,bottle,270,0618_rot_s02_270_bottle_20_n04591713_2123.png
subject-02,1,619,1.33938813209534,elephant,bird,180,0619_rot_s02_180_bird_20_n01843383_6001.png
subject-02,1,620,1.01517295837402,oven,truck,90,0620_rot_s02_90_truck_20_n03796401_7284.png
subject-02,1,621,0.772887945175171,boat,boat,0,0621_rot_s02_0_boat_20_n02951358_14966.png
subject-02,1,622,1.19130992889404,elephant,elephant,180,0622_rot_s02_180_elephant_20_n02504013_828.png
subject-02,1,623,1.40447115898132,cat,elephant,270,0623_rot_s02_270_elephant_20_n02504458_30.png
subject-02,1,624,0.64629602432251,boat,boat,270,0624_rot_s02_270_boat_20_n04273569_1495.png
subject-02,1,625,1.01003813743591,boat,bicycle,90,0625_rot_s02_90_bicycle_20_n03792782_442.png
subject-02,1,626,0.842010974884033,keyboard,keyboard,90,0626_rot_s02_90_keyboard_20_n03085013_24294.png
subject-02,1,627,0.993653059005737,airplane,airplane,90,0627_rot_s02_90_airplane_20_n02690373_4845.png
subject-02,1,628,1.35986495018005,knife,oven,90,0628_rot_s02_90_oven_20_n04111531_1818.png
subject-02,1,629,0.769314050674438,cat,cat,90,0629_rot_s02_90_cat_20_n02125311_41284.png
subject-02,1,630,1.40530204772949,bear,elephant,180,0630_rot_s02_180_elephant_20_n02504013_13283.png
subject-02,1,631,0.609106063842773,bottle,bottle,180,0631_rot_s02_180_bottle_20_n02823428_8077.png
subject-02,1,632,0.518982887268066,clock,clock,0,0632_rot_s02_0_clock_20_n04548280_8278.png
subject-02,1,633,0.936772108078003,cat,bear,180,0633_rot_s02_180_bear_20_n02134084_20605.png
subject-02,1,634,0.820488929748535,car,car,0,0634_rot_s02_0_car_20_n03100240_24420.png
subject-02,1,635,0.754479169845581,car,car,270,0635_rot_s02_270_car_20_n02814533_88566.png
subject-02,1,636,0.769994974136353,bottle,bottle,90,0636_rot_s02_90_bottle_20_n03937543_4399.png
subject-02,1,637,0.953778028488159,bear,elephant,180,0637_rot_s02_180_elephant_20_n02504458_5816.png
subject-02,1,638,0.817637920379639,truck,truck,0,0638_rot_s02_0_truck_20_n04467665_8189.png
subject-02,1,639,0.899586915969849,airplane,airplane,90,0639_rot_s02_90_airplane_20_n02690373_7647.png
subject-02,1,640,0.743685007095337,keyboard,keyboard,90,0640_rot_s02_90_keyboard_20_n03085013_23625.png
subject-02,1,641,0.619163036346436,cat,cat,180,0641_rot_s02_180_cat_20_n02125311_41650.png
subject-02,1,642,1.02714705467224,truck,truck,270,0642_rot_s02_270_truck_20_n03417042_9967.png
subject-02,1,643,0.708868026733398,truck,truck,0,0643_rot_s02_0_truck_20_n03796401_6294.png
subject-02,1,644,0.890533924102783,truck,truck,270,0644_rot_s02_270_truck_20_n03417042_2153.png
subject-02,1,645,1.44058513641357,bottle,bottle,90,0645_rot_s02_90_bottle_20_n03937543_5619.png
subject-02,1,646,0.912302017211914,elephant,elephant,0,0646_rot_s02_0_elephant_20_n02504458_1404.png
subject-02,1,647,0.57611608505249,cat,cat,90,0647_rot_s02_90_cat_20_n02124075_1121.png
subject-02,1,648,0.922019004821777,airplane,airplane,0,0648_rot_s02_0_airplane_20_n02690373_4029.png
subject-02,1,649,0.94990086555481,elephant,elephant,270,0649_rot_s02_270_elephant_20_n02504458_8296.png
subject-02,1,650,0.9756920337677,knife,knife,0,0650_rot_s02_0_knife_20_n03041632_6557.png
subject-02,1,651,0.807354927062988,chair,chair,0,0651_rot_s02_0_chair_20_n04429376_17343.png
subject-02,1,652,0.63142204284668,boat,boat,90,0652_rot_s02_90_boat_20_n03662601_12581.png
subject-02,1,653,0.694951057434082,clock,clock,270,0653_rot_s02_270_clock_20_n02708093_3841.png
subject-02,1,654,1.36076807975769,boat,oven,180,0654_rot_s02_180_oven_20_n04111531_1938.png
subject-02,1,655,0.786878108978271,boat,boat,180,0655_rot_s02_180_boat_20_n04273569_13053.png
subject-02,1,656,0.552273035049438,bicycle,bicycle,90,0656_rot_s02_90_bicycle_20_n02835271_2915.png
subject-02,1,657,1.11218404769897,dog,dog,0,0657_rot_s02_0_dog_20_n02102177_7968.png
subject-02,1,658,0.623923063278198,chair,chair,0,0658_rot_s02_0_chair_20_n04099969_5010.png
subject-02,1,659,1.22590088844299,oven,oven,0,0659_rot_s02_0_oven_20_n04111531_13255.png
subject-02,1,660,0.757805109024048,keyboard,keyboard,0,0660_rot_s02_0_keyboard_20_n03085013_24103.png
subject-02,1,661,1.08151888847351,cat,cat,90,0661_rot_s02_90_cat_20_n02123045_7294.png
subject-02,1,662,1.26558113098145,oven,bottle,180,0662_rot_s02_180_bottle_20_n04560804_15267.png
subject-02,1,663,1.17925405502319,cat,cat,270,0663_rot_s02_270_cat_20_n02123045_6677.png
subject-02,1,664,0.682941913604736,keyboard,keyboard,0,0664_rot_s02_0_keyboard_20_n04505470_1744.png
subject-02,1,665,1.18863201141357,elephant,elephant,180,0665_rot_s02_180_elephant_20_n02504013_10257.png
subject-02,1,666,1.07028388977051,elephant,elephant,0,0666_rot_s02_0_elephant_20_n02504458_3628.png
subject-02,1,667,0.9984130859375,bear,bear,180,0667_rot_s02_180_bear_20_n02132136_5537.png
subject-02,1,668,1.08420085906982,car,car,270,0668_rot_s02_270_car_20_n02814533_89061.png
subject-02,1,669,1.0940089225769,airplane,airplane,90,0669_rot_s02_90_airplane_20_n02690373_8872.png
subject-02,1,670,NaN,na,chair,270,0670_rot_s02_270_chair_20_n02791124_4412.png
subject-02,1,671,0.923527956008911,oven,chair,180,0671_rot_s02_180_chair_20_n02791124_3923.png
subject-02,1,672,1.00164699554443,knife,knife,90,0672_rot_s02_90_knife_20_n03041632_15250.png
subject-02,1,673,1.27324795722961,bear,clock,90,0673_rot_s02_90_clock_20_n03196217_1458.png
subject-02,1,674,1.49311709403992,car,car,90,0674_rot_s02_90_car_20_n02814533_479.png
subject-02,1,675,1.00919604301453,bird,bird,270,0675_rot_s02_270_bird_20_n01843383_6107.png
subject-02,1,676,1.10684299468994,chair,chair,90,0676_rot_s02_90_chair_20_n02791124_1740.png
subject-02,1,677,1.05465602874756,bicycle,bicycle,270,0677_rot_s02_270_bicycle_20_n02835271_7900.png
subject-02,1,678,1.10047507286072,car,car,270,0678_rot_s02_270_car_20_n02814533_31083.png
subject-02,1,679,0.636054992675781,bear,bear,270,0679_rot_s02_270_bear_20_n02132136_3207.png
subject-02,1,680,1.05786895751953,knife,knife,270,0680_rot_s02_270_knife_20_n03041632_7173.png
subject-02,1,681,0.799937963485718,truck,truck,90,0681_rot_s02_90_truck_20_n04467665_9812.png
subject-02,1,682,NaN,na,elephant,0,0682_rot_s02_0_elephant_20_n02504458_151.png
subject-02,1,683,0.691246032714844,car,car,180,0683_rot_s02_180_car_20_n03100240_8489.png
subject-02,1,684,0.809047937393188,car,car,0,0684_rot_s02_0_car_20_n02814533_88986.png
subject-02,1,685,0.748836040496826,boat,boat,270,0685_rot_s02_270_boat_20_n03344393_2961.png
subject-02,1,686,0.784621953964233,cat,cat,90,0686_rot_s02_90_cat_20_n02123394_234.png
subject-02,1,687,1.19856715202332,dog,dog,180,0687_rot_s02_180_dog_20_n02104365_1592.png
subject-02,1,688,0.976637125015259,keyboard,keyboard,270,0688_rot_s02_270_keyboard_20_n04505470_206.png
subject-02,1,689,0.79217004776001,cat,cat,180,0689_rot_s02_180_cat_20_n02123597_4805.png
subject-02,1,690,0.808084011077881,airplane,airplane,270,0690_rot_s02_270_airplane_20_n02690373_1348.png
subject-02,1,691,1.44211196899414,keyboard,airplane,270,0691_rot_s02_270_airplane_20_n02690373_6621.png
subject-02,1,692,0.787429094314575,car,car,90,0692_rot_s02_90_car_20_n04285008_5641.png
subject-02,1,693,0.959291219711304,bear,oven,180,0693_rot_s02_180_oven_20_n04111531_3611.png
subject-02,1,694,0.649128198623657,bottle,bottle,270,0694_rot_s02_270_bottle_20_n04591713_3663.png
subject-02,1,695,0.934874057769775,knife,knife,0,0695_rot_s02_0_knife_20_n03041632_4037.png
subject-02,1,696,0.746948957443237,car,car,0,0696_rot_s02_0_car_20_n03100240_18679.png
subject-02,1,697,0.813019037246704,knife,knife,270,0697_rot_s02_270_knife_20_n03041632_36215.png
subject-02,1,698,1.31437110900879,car,car,90,0698_rot_s02_90_car_20_n03100240_7495.png
subject-02,1,699,0.686320066452026,keyboard,keyboard,90,0699_rot_s02_90_keyboard_20_n04505470_5007.png
subject-02,1,700,0.576030969619751,clock,clock,90,0700_rot_s02_90_clock_20_n04548280_5937.png
subject-02,1,701,1.47578620910645,dog,dog,270,0701_rot_s02_270_dog_20_n02102177_255.png
subject-02,1,702,1.34573411941528,keyboard,chair,180,0702_rot_s02_180_chair_20_n04099969_22118.png
subject-02,1,703,0.997499942779541,oven,oven,270,0703_rot_s02_270_oven_20_n04111531_18430.png
subject-02,1,704,0.79958701133728,car,car,270,0704_rot_s02_270_car_20_n02814533_38596.png
subject-02,1,705,1.00129795074463,bear,bear,0,0705_rot_s02_0_bear_20_n02132136_2799.png
subject-02,1,706,0.75511908531189,elephant,elephant,0,0706_rot_s02_0_elephant_20_n02504013_18792.png
subject-02,1,707,0.752825021743774,truck,truck,270,0707_rot_s02_270_truck_20_n03796401_7455.png
subject-02,1,708,0.934741973876953,clock,clock,0,0708_rot_s02_0_clock_20_n03196217_1255.png
subject-02,1,709,1.03828096389771,elephant,elephant,90,0709_rot_s02_90_elephant_20_n02504013_565.png
subject-02,1,710,0.634245157241821,chair,chair,0,0710_rot_s02_0_chair_20_n04099969_4971.png
subject-02,1,711,0.808027982711792,cat,cat,180,0711_rot_s02_180_cat_20_n02125311_24586.png
subject-02,1,712,0.763866901397705,clock,clock,0,0712_rot_s02_0_clock_20_n02708093_240.png
subject-02,1,713,0.59567403793335,oven,oven,270,0713_rot_s02_270_oven_20_n04111531_6934.png
subject-02,1,714,0.929414033889771,dog,dog,180,0714_rot_s02_180_dog_20_n02099267_4999.png
subject-02,1,715,0.525264978408813,clock,clock,90,0715_rot_s02_90_clock_20_n04548280_1254.png
subject-02,1,716,0.913145065307617,keyboard,keyboard,180,0716_rot_s02_180_keyboard_20_n03085013_20478.png
subject-02,1,717,1.21689319610596,airplane,airplane,180,0717_rot_s02_180_airplane_20_n02690373_1021.png
subject-02,1,718,0.589031219482422,clock,clock,270,0718_rot_s02_270_clock_20_n03196217_368.png
subject-02,1,719,1.08643507957458,elephant,elephant,270,0719_rot_s02_270_elephant_20_n02504458_1893.png
subject-02,1,720,0.546167135238647,oven,oven,270,0720_rot_s02_270_oven_20_n04111531_4332.png
subject-02,1,721,0.737149000167847,truck,truck,270,0721_rot_s02_270_truck_20_n04467665_46263.png
subject-02,1,722,0.71919584274292,knife,knife,270,0722_rot_s02_270_knife_20_n03041632_26236.png
subject-02,1,723,0.922772884368896,bottle,bottle,0,0723_rot_s02_0_bottle_20_n03937543_6698.png
subject-02,1,724,0.716595888137817,oven,oven,180,0724_rot_s02_180_oven_20_n04111531_9712.png
subject-02,1,725,0.786382913589478,bear,bear,0,0725_rot_s02_0_bear_20_n02132136_5175.png
subject-02,1,726,0.978433132171631,knife,knife,0,0726_rot_s02_0_knife_20_n03041632_8666.png
subject-02,1,727,1.50011301040649,oven,boat,90,0727_rot_s02_90_boat_20_n03344393_2790.png
subject-02,1,728,0.83410382270813,bird,bird,90,0728_rot_s02_90_bird_20_n02011460_22646.png
subject-02,1,729,1.29582214355469,elephant,elephant,90,0729_rot_s02_90_elephant_20_n02504458_1567.png
subject-02,1,730,0.775364875793457,car,car,270,0730_rot_s02_270_car_20_n03100240_8898.png
subject-02,1,731,0.767249822616577,truck,truck,180,0731_rot_s02_180_truck_20_n03796401_2258.png
subject-02,1,732,1.3971688747406,chair,boat,90,0732_rot_s02_90_boat_20_n02951358_12532.png
subject-02,1,733,0.839440107345581,bottle,bottle,90,0733_rot_s02_90_bottle_20_n02823428_6252.png
subject-02,1,734,0.826825141906738,clock,clock,90,0734_rot_s02_90_clock_20_n04548280_4841.png
subject-02,1,735,1.13477492332458,dog,dog,90,0735_rot_s02_90_dog_20_n02111277_2994.png
subject-02,1,736,1.46626901626587,bird,bird,90,0736_rot_s02_90_bird_20_n02006656_4486.png
subject-02,1,737,0.78997015953064,keyboard,keyboard,180,0737_rot_s02_180_keyboard_20_n03085013_22069.png
subject-02,1,738,1.5000638961792,chair,keyboard,0,0738_rot_s02_0_keyboard_20_n03085013_22217.png
subject-02,1,739,1.29389786720276,elephant,elephant,90,0739_rot_s02_90_elephant_20_n02504013_318.png
subject-02,1,740,1.03769993782043,bird,bird,0,0740_rot_s02_0_bird_20_n01797886_2045.png
subject-02,1,741,0.811392068862915,bicycle,bicycle,270,0741_rot_s02_270_bicycle_20_n02835271_22206.png
subject-02,1,742,0.949145078659058,bird,bird,270,0742_rot_s02_270_bird_20_n01558993_55.png
subject-02,1,743,1.08487200737,car,car,0,0743_rot_s02_0_car_20_n03100240_2195.png
subject-02,1,744,NaN,na,airplane,180,0744_rot_s02_180_airplane_20_n02690373_9175.png
subject-02,1,745,0.558695077896118,cat,cat,0,0745_rot_s02_0_cat_20_n02123597_13286.png
subject-02,1,746,1.14441609382629,boat,truck,270,0746_rot_s02_270_truck_20_n03417042_5301.png
subject-02,1,747,1.25012588500977,cat,cat,0,0747_rot_s02_0_cat_20_n02123394_5301.png
subject-02,1,748,1.13604497909546,boat,boat,270,0748_rot_s02_270_boat_20_n02951358_4937.png
subject-02,1,749,1.50007700920105,bear,cat,270,0749_rot_s02_270_cat_20_n02125311_1326.png
subject-02,1,750,1.40166711807251,keyboard,oven,180,0750_rot_s02_180_oven_20_n04111531_9779.png
subject-02,1,751,0.857524871826172,elephant,elephant,270,0751_rot_s02_270_elephant_20_n02504013_15219.png
subject-02,1,752,0.869603157043457,knife,knife,90,0752_rot_s02_90_knife_20_n03041632_36834.png
subject-02,1,753,0.729115009307861,bird,bird,270,0753_rot_s02_270_bird_20_n01843383_9985.png
subject-02,1,754,0.620831966400146,bicycle,oven,0,0754_rot_s02_0_oven_20_n04111531_10403.png
subject-02,1,755,1.02279710769653,elephant,elephant,270,0755_rot_s02_270_elephant_20_n02504013_4762.png
subject-02,1,756,0.820383071899414,elephant,elephant,270,0756_rot_s02_270_elephant_20_n02504458_4001.png
subject-02,1,757,1.50002384185791,bottle,car,0,0757_rot_s02_0_car_20_n03100240_17587.png
subject-02,1,758,0.558387994766235,chair,chair,180,0758_rot_s02_180_chair_20_n03376595_9219.png
subject-02,1,759,0.629859924316406,airplane,airplane,180,0759_rot_s02_180_airplane_20_n02690373_2128.png
subject-02,1,760,1.23006892204285,bear,bear,180,0760_rot_s02_180_bear_20_n02132136_545.png
subject-02,1,761,0.567543983459473,car,car,90,0761_rot_s02_90_car_20_n03100240_5044.png
subject-02,1,762,1.3916380405426,bicycle,bottle,90,0762_rot_s02_90_bottle_20_n04560804_570.png
subject-02,1,763,0.551316022872925,bicycle,bicycle,270,0763_rot_s02_270_bicycle_20_n02835271_3956.png
subject-02,1,764,0.711111068725586,keyboard,keyboard,270,0764_rot_s02_270_keyboard_20_n04505470_510.png
subject-02,1,765,1.13673710823059,clock,chair,270,0765_rot_s02_270_chair_20_n04429376_13448.png
subject-02,1,766,1.46646404266357,bottle,knife,180,0766_rot_s02_180_knife_20_n03041632_9580.png
subject-02,1,767,1.02676391601562,bear,oven,90,0767_rot_s02_90_oven_20_n04111531_4327.png
subject-02,1,768,1.00266695022583,truck,truck,180,0768_rot_s02_180_truck_20_n04467665_22637.png
subject-02,1,769,0.740082979202271,bicycle,bicycle,180,0769_rot_s02_180_bicycle_20_n03792782_1173.png
subject-02,1,770,1.08194279670715,dog,dog,90,0770_rot_s02_90_dog_20_n02097047_3817.png
subject-02,1,771,0.749901056289673,car,car,270,0771_rot_s02_270_car_20_n02814533_8042.png
subject-02,1,772,1.02567195892334,elephant,elephant,0,0772_rot_s02_0_elephant_20_n02504013_6999.png
subject-02,1,773,0.575340986251831,clock,clock,90,0773_rot_s02_90_clock_20_n04548280_7354.png
subject-02,1,774,1.05316591262817,dog,dog,270,0774_rot_s02_270_dog_20_n02107683_2450.png
subject-02,1,775,0.704987049102783,clock,clock,0,0775_rot_s02_0_clock_20_n02708093_3535.png
subject-02,1,776,1.24874997138977,dog,dog,90,0776_rot_s02_90_dog_20_n02093428_17633.png
subject-02,1,777,1.0847909450531,dog,knife,90,0777_rot_s02_90_knife_20_n03041632_4975.png
subject-02,1,778,0.916404962539673,bicycle,bicycle,0,0778_rot_s02_0_bicycle_20_n03792782_19083.png
subject-02,1,779,0.834640979766846,chair,chair,90,0779_rot_s02_90_chair_20_n03376595_10266.png
subject-02,1,780,0.748516082763672,bear,bear,270,0780_rot_s02_270_bear_20_n02133161_7939.png
subject-02,1,781,1.22967314720154,keyboard,keyboard,180,0781_rot_s02_180_keyboard_20_n04505470_807.png
subject-02,1,782,0.737622022628784,bicycle,bicycle,180,0782_rot_s02_180_bicycle_20_n02835271_5861.png
subject-02,1,783,1.2033998966217,oven,chair,90,0783_rot_s02_90_chair_20_n04429376_14729.png
subject-02,1,784,0.81758189201355,bird,bird,180,0784_rot_s02_180_bird_20_n02018795_16942.png
subject-02,1,785,0.599272012710571,cat,cat,0,0785_rot_s02_0_cat_20_n02125311_18366.png
subject-02,1,786,0.962874889373779,oven,oven,270,0786_rot_s02_270_oven_20_n04111531_8421.png
subject-02,1,787,1.26682496070862,knife,chair,180,0787_rot_s02_180_chair_20_n02791124_2938.png
subject-02,1,788,0.864491939544678,cat,dog,270,0788_rot_s02_270_dog_20_n02105251_1092.png
subject-02,1,789,1.16645693778992,knife,knife,180,0789_rot_s02_180_knife_20_n03041632_39883.png
subject-02,1,790,0.872457027435303,oven,oven,180,0790_rot_s02_180_oven_20_n04111531_2795.png
subject-02,1,791,0.753996849060059,bottle,bottle,0,0791_rot_s02_0_bottle_20_n03983396_1881.png
subject-02,1,792,0.666009902954102,keyboard,keyboard,90,0792_rot_s02_90_keyboard_20_n04505470_4173.png
subject-02,1,793,0.599819898605347,oven,oven,180,0793_rot_s02_180_oven_20_n04111531_4939.png
subject-02,1,794,0.829641819000244,truck,truck,270,0794_rot_s02_270_truck_20_n04467665_70509.png
subject-02,1,795,1.17717695236206,knife,chair,90,0795_rot_s02_90_chair_20_n02791124_8775.png
subject-02,1,796,1.11915016174316,bear,chair,270,0796_rot_s02_270_chair_20_n03376595_209.png
subject-02,1,797,1.14869904518127,oven,oven,0,0797_rot_s02_0_oven_20_n04111531_4817.png
subject-02,1,798,1.27665686607361,knife,knife,270,0798_rot_s02_270_knife_20_n03041632_31367.png
subject-02,1,799,1.10638499259949,truck,truck,90,0799_rot_s02_90_truck_20_n03417042_28078.png
subject-02,1,800,1.22235202789307,bear,bird,180,0800_rot_s02_180_bird_20_n01532829_37796.png
subject-02,1,801,0.689421892166138,oven,oven,270,0801_rot_s02_270_oven_20_n04111531_13560.png
subject-02,1,802,0.591197967529297,oven,oven,0,0802_rot_s02_0_oven_20_n04111531_73.png
subject-02,1,803,1.02703189849854,chair,chair,180,0803_rot_s02_180_chair_20_n03376595_15468.png
subject-02,1,804,0.986835956573486,cat,dog,90,0804_rot_s02_90_dog_20_n02107683_3120.png
subject-02,1,805,1.05058002471924,bird,bird,90,0805_rot_s02_90_bird_20_n01820546_2568.png
subject-02,1,806,0.91482400894165,bird,bird,0,0806_rot_s02_0_bird_20_n02007558_1068.png
subject-02,1,807,0.760190963745117,car,car,90,0807_rot_s02_90_car_20_n04285008_15503.png
subject-02,1,808,0.982110977172852,car,car,0,0808_rot_s02_0_car_20_n02814533_40531.png
subject-02,1,809,0.859905004501343,elephant,elephant,90,0809_rot_s02_90_elephant_20_n02504458_6470.png
subject-02,1,810,0.793780088424683,truck,truck,90,0810_rot_s02_90_truck_20_n03417042_11166.png
subject-02,1,811,0.741750001907349,chair,chair,0,0811_rot_s02_0_chair_20_n03376595_5909.png
subject-02,1,812,0.909289121627808,bear,bear,180,0812_rot_s02_180_bear_20_n02133161_15427.png
subject-02,1,813,0.733153104782104,keyboard,keyboard,180,0813_rot_s02_180_keyboard_20_n03085013_20960.png
subject-02,1,814,1.12932801246643,elephant,elephant,0,0814_rot_s02_0_elephant_20_n02504458_3458.png
subject-02,1,815,0.780669212341309,elephant,elephant,90,0815_rot_s02_90_elephant_20_n02504013_1500.png
subject-02,1,816,1.40832090377808,airplane,airplane,270,0816_rot_s02_270_airplane_20_n02690373_2629.png
subject-02,1,817,0.808258056640625,airplane,airplane,180,0817_rot_s02_180_airplane_20_n02690373_9441.png
subject-02,1,818,0.661983966827393,bottle,bottle,0,0818_rot_s02_0_bottle_20_n04591713_1717.png
subject-02,1,819,0.694237947463989,keyboard,keyboard,90,0819_rot_s02_90_keyboard_20_n03085013_8334.png
subject-02,1,820,1.47967004776001,bicycle,bicycle,90,0820_rot_s02_90_bicycle_20_n03792782_66159.png
subject-02,1,821,1.36794114112854,elephant,bird,90,0821_rot_s02_90_bird_20_n02006656_10849.png
subject-02,1,822,0.925351142883301,chair,chair,270,0822_rot_s02_270_chair_20_n03376595_497.png
subject-02,1,823,0.60107684135437,truck,truck,0,0823_rot_s02_0_truck_20_n03796401_8176.png
subject-02,1,824,0.8313889503479,chair,chair,270,0824_rot_s02_270_chair_20_n04099969_16.png
subject-02,1,825,0.882859230041504,bottle,bottle,180,0825_rot_s02_180_bottle_20_n02823428_3.png
subject-02,1,826,0.716570854187012,bear,bear,270,0826_rot_s02_270_bear_20_n02132136_18303.png
subject-02,1,827,1.25644588470459,bottle,bottle,270,0827_rot_s02_270_bottle_20_n04560804_14111.png
subject-02,1,828,0.476428031921387,clock,clock,90,0828_rot_s02_90_clock_20_n02708093_2740.png
subject-02,1,829,0.815944194793701,airplane,airplane,270,0829_rot_s02_270_airplane_20_n02690373_10769.png
subject-02,1,830,0.965823173522949,bear,dog,90,0830_rot_s02_90_dog_20_n02108551_7945.png
subject-02,1,831,0.96581506729126,bird,bird,270,0831_rot_s02_270_bird_20_n02028035_10744.png
subject-02,1,832,1.18177914619446,bear,truck,270,0832_rot_s02_270_truck_20_n03417042_7755.png
subject-02,1,833,0.86329197883606,bear,bear,270,0833_rot_s02_270_bear_20_n02132136_9358.png
subject-02,1,834,0.907235860824585,bottle,bottle,180,0834_rot_s02_180_bottle_20_n04560804_15941.png
subject-02,1,835,0.657073974609375,boat,boat,0,0835_rot_s02_0_boat_20_n02951358_18762.png
subject-02,1,836,1.10664701461792,oven,oven,90,0836_rot_s02_90_oven_20_n04111531_4375.png
subject-02,1,837,0.618508815765381,bear,bear,90,0837_rot_s02_90_bear_20_n02133161_15177.png
subject-02,1,838,0.956357002258301,elephant,elephant,0,0838_rot_s02_0_elephant_20_n02504458_493.png
subject-02,1,839,0.944505929946899,boat,boat,270,0839_rot_s02_270_boat_20_n03662601_12969.png
subject-02,1,840,1.0801990032196,bear,dog,180,0840_rot_s02_180_dog_20_n02090721_1449.png
subject-02,1,841,0.567663908004761,bottle,bottle,270,0841_rot_s02_270_bottle_20_n03983396_11236.png
subject-02,1,842,1.14600896835327,truck,truck,180,0842_rot_s02_180_truck_20_n03796401_22323.png
subject-02,1,843,0.813422918319702,knife,knife,0,0843_rot_s02_0_knife_20_n03041632_26053.png
subject-02,1,844,0.583181858062744,clock,clock,180,0844_rot_s02_180_clock_20_n03196217_571.png
subject-02,1,845,1.11105608940125,chair,chair,90,0845_rot_s02_90_chair_20_n04099969_48945.png
subject-02,1,846,0.818840980529785,bottle,bottle,90,0846_rot_s02_90_bottle_20_n02823428_10417.png
subject-02,1,847,0.892368078231812,bicycle,bicycle,270,0847_rot_s02_270_bicycle_20_n03792782_18308.png
subject-02,1,848,1.49999809265137,elephant,elephant,180,0848_rot_s02_180_elephant_20_n02504458_5641.png
subject-02,1,849,1.30043983459473,dog,bird,180,0849_rot_s02_180_bird_20_n01616318_1164.png
subject-02,1,850,0.948196887969971,truck,truck,270,0850_rot_s02_270_truck_20_n03417042_27780.png
subject-02,1,851,1.1799259185791,oven,keyboard,0,0851_rot_s02_0_keyboard_20_n03085013_7613.png
subject-02,1,852,1.37195706367493,bottle,bottle,270,0852_rot_s02_270_bottle_20_n04560804_6329.png
subject-02,1,853,0.765615940093994,car,car,0,0853_rot_s02_0_car_20_n02814533_486.png
subject-02,1,854,0.985507011413574,dog,dog,0,0854_rot_s02_0_dog_20_n02112018_7786.png
subject-02,1,855,0.7153000831604,car,car,90,0855_rot_s02_90_car_20_n02814533_34149.png
subject-02,1,856,1.45293998718262,oven,truck,90,0856_rot_s02_90_truck_20_n03417042_1344.png
subject-02,1,857,1.0407018661499,knife,knife,0,0857_rot_s02_0_knife_20_n03041632_24376.png
subject-02,1,858,0.910477161407471,truck,truck,270,0858_rot_s02_270_truck_20_n04467665_44390.png
subject-02,1,859,1.23642897605896,bottle,bottle,0,0859_rot_s02_0_bottle_20_n04557648_3959.png
subject-02,1,860,0.644392967224121,bear,bear,180,0860_rot_s02_180_bear_20_n02133161_1962.png
subject-02,1,861,0.671917915344238,bottle,bottle,270,0861_rot_s02_270_bottle_20_n04560804_11386.png
subject-02,1,862,0.905807971954346,boat,boat,90,0862_rot_s02_90_boat_20_n04273569_7097.png
subject-02,1,863,0.64557409286499,boat,boat,270,0863_rot_s02_270_boat_20_n04273569_10980.png
subject-02,1,864,1.05543112754822,clock,clock,0,0864_rot_s02_0_clock_20_n04548280_5798.png
subject-02,1,865,1.15324687957764,chair,chair,180,0865_rot_s02_180_chair_20_n02791124_1287.png
subject-02,1,866,0.787031888961792,keyboard,keyboard,90,0866_rot_s02_90_keyboard_20_n04505470_4584.png
subject-02,1,867,0.963016986846924,car,car,180,0867_rot_s02_180_car_20_n03100240_1750.png
subject-02,1,868,1.43257999420166,bottle,knife,180,0868_rot_s02_180_knife_20_n03041632_22330.png
subject-02,1,869,0.68257999420166,keyboard,keyboard,90,0869_rot_s02_90_keyboard_20_n04505470_961.png
subject-02,1,870,1.09240293502808,keyboard,car,270,0870_rot_s02_270_car_20_n03100240_7085.png
subject-02,1,871,0.75819206237793,keyboard,keyboard,270,0871_rot_s02_270_keyboard_20_n04505470_1929.png
subject-02,1,872,0.813860893249512,bear,bear,180,0872_rot_s02_180_bear_20_n02132136_4512.png
subject-02,1,873,0.559731006622314,car,car,0,0873_rot_s02_0_car_20_n04285008_8281.png
subject-02,1,874,0.64764404296875,truck,truck,270,0874_rot_s02_270_truck_20_n03417042_9552.png
subject-02,1,875,1.5000331401825,chair,bottle,180,0875_rot_s02_180_bottle_20_n04557648_4242.png
subject-02,1,876,0.759271144866943,clock,bottle,0,0876_rot_s02_0_bottle_20_n04591713_7476.png
subject-02,1,877,0.883017063140869,oven,oven,90,0877_rot_s02_90_oven_20_n04111531_21055.png
subject-02,1,878,1.23872303962708,keyboard,clock,180,0878_rot_s02_180_clock_20_n04548280_1190.png
subject-02,1,879,0.916474103927612,bear,bear,180,0879_rot_s02_180_bear_20_n02134418_5260.png
subject-02,1,880,0.948356866836548,bottle,chair,0,0880_rot_s02_0_chair_20_n04429376_10994.png
subject-02,1,881,0.547355175018311,clock,clock,90,0881_rot_s02_90_clock_20_n03196217_6707.png
subject-02,1,882,0.661141157150269,boat,boat,90,0882_rot_s02_90_boat_20_n04612504_30766.png
subject-02,1,883,0.896841049194336,bicycle,bicycle,270,0883_rot_s02_270_bicycle_20_n03792782_50904.png
subject-02,1,884,0.802695989608765,bird,bird,0,0884_rot_s02_0_bird_20_n01582220_8827.png
subject-02,1,885,0.908540010452271,bottle,bottle,0,0885_rot_s02_0_bottle_20_n02823428_3694.png
subject-02,1,886,0.850304841995239,chair,chair,270,0886_rot_s02_270_chair_20_n04099969_18678.png
subject-02,1,887,0.760125875473022,bicycle,bicycle,270,0887_rot_s02_270_bicycle_20_n02835271_21640.png
subject-02,1,888,0.754152059555054,boat,boat,270,0888_rot_s02_270_boat_20_n04612504_17610.png
subject-02,1,889,0.799812078475952,chair,chair,0,0889_rot_s02_0_chair_20_n04099969_5854.png
subject-02,1,890,0.853589057922363,airplane,airplane,0,0890_rot_s02_0_airplane_20_n02690373_8163.png
subject-02,1,891,0.701644897460938,clock,clock,90,0891_rot_s02_90_clock_20_n03196217_421.png
subject-02,1,892,0.633573055267334,bottle,bottle,0,0892_rot_s02_0_bottle_20_n03983396_9823.png
subject-02,1,893,0.826964855194092,bottle,knife,180,0893_rot_s02_180_knife_20_n03041632_80317.png
subject-02,1,894,1.0710620880127,elephant,elephant,90,0894_rot_s02_90_elephant_20_n02504013_344.png
subject-02,1,895,0.738744020462036,airplane,airplane,180,0895_rot_s02_180_airplane_20_n02690373_2038.png
subject-02,1,896,0.852444887161255,chair,chair,270,0896_rot_s02_270_chair_20_n03376595_14240.png
subject-02,1,897,1.06217002868652,truck,truck,180,0897_rot_s02_180_truck_20_n03796401_6315.png
subject-02,1,898,0.940253019332886,oven,oven,270,0898_rot_s02_270_oven_20_n04111531_46651.png
subject-02,1,899,1.46996784210205,bear,bird,270,0899_rot_s02_270_bird_20_n01582220_6459.png
subject-02,1,900,0.489742994308472,boat,boat,90,0900_rot_s02_90_boat_20_n04612504_3286.png
subject-02,1,901,0.847396850585938,airplane,airplane,180,0901_rot_s02_180_airplane_20_n02690373_4588.png
subject-02,1,902,1.03333687782288,bicycle,bicycle,0,0902_rot_s02_0_bicycle_20_n02835271_10265.png
subject-02,1,903,0.9511559009552,knife,knife,90,0903_rot_s02_90_knife_20_n03041632_4806.png
subject-02,1,904,0.746899843215942,car,car,180,0904_rot_s02_180_car_20_n04285008_8396.png
subject-02,1,905,0.780674934387207,keyboard,keyboard,0,0905_rot_s02_0_keyboard_20_n04505470_763.png
subject-02,1,906,1.07068800926208,dog,dog,90,0906_rot_s02_90_dog_20_n02090622_7692.png
subject-02,1,907,0.76432204246521,bicycle,bicycle,180,0907_rot_s02_180_bicycle_20_n03792782_26168.png
subject-02,1,908,0.800534963607788,knife,knife,270,0908_rot_s02_270_knife_20_n03041632_29940.png
subject-02,1,909,0.90410590171814,dog,dog,90,0909_rot_s02_90_dog_20_n02095570_7633.png
subject-02,1,910,0.616047143936157,bicycle,bicycle,0,0910_rot_s02_0_bicycle_20_n03792782_5517.png
subject-02,1,911,1.04198718070984,bear,bear,180,0911_rot_s02_180_bear_20_n02134084_3696.png
subject-02,1,912,1.16546583175659,clock,keyboard,90,0912_rot_s02_90_keyboard_20_n04505470_4159.png
subject-02,1,913,0.877399921417236,bear,dog,270,0913_rot_s02_270_dog_20_n02108551_1207.png
subject-02,1,914,0.975158929824829,cat,cat,90,0914_rot_s02_90_cat_20_n02123394_2269.png
subject-02,1,915,0.678810834884644,elephant,elephant,270,0915_rot_s02_270_elephant_20_n02504013_13512.png
subject-02,1,916,0.79105806350708,bear,bear,90,0916_rot_s02_90_bear_20_n02132136_19248.png
subject-02,1,917,1.20649003982544,elephant,elephant,180,0917_rot_s02_180_elephant_20_n02504013_5035.png
subject-02,1,918,NaN,na,car,270,0918_rot_s02_270_car_20_n02814533_45480.png
subject-02,1,919,0.874132871627808,boat,boat,90,0919_rot_s02_90_boat_20_n04273569_19314.png
subject-02,1,920,0.621912956237793,bottle,bottle,90,0920_rot_s02_90_bottle_20_n03983396_5514.png
subject-02,1,921,0.537629842758179,boat,boat,270,0921_rot_s02_270_boat_20_n03344393_11886.png
subject-02,1,922,0.697903156280518,bottle,bottle,270,0922_rot_s02_270_bottle_20_n04579145_631.png
subject-02,1,923,0.885277986526489,chair,chair,0,0923_rot_s02_0_chair_20_n02791124_4956.png
subject-02,1,924,0.833214998245239,bicycle,bicycle,270,0924_rot_s02_270_bicycle_20_n02835271_4440.png
subject-02,1,925,1.03905510902405,boat,boat,0,0925_rot_s02_0_boat_20_n04273569_30203.png
subject-02,1,926,0.601089000701904,bicycle,bicycle,270,0926_rot_s02_270_bicycle_20_n03792782_28970.png
subject-02,1,927,0.654582977294922,bear,oven,90,0927_rot_s02_90_oven_20_n04111531_2618.png
subject-02,1,928,0.554564952850342,bottle,bottle,270,0928_rot_s02_270_bottle_20_n03983396_5497.png
subject-02,1,929,1.04245615005493,bottle,bottle,270,0929_rot_s02_270_bottle_20_n02823428_1495.png
subject-02,1,930,0.612205028533936,oven,oven,270,0930_rot_s02_270_oven_20_n04111531_6533.png
subject-02,1,931,0.612024068832397,bicycle,bicycle,0,0931_rot_s02_0_bicycle_20_n02835271_6873.png
subject-02,1,932,0.755722045898438,boat,boat,0,0932_rot_s02_0_boat_20_n03344393_6297.png
subject-02,1,933,1.21952319145203,bird,bird,90,0933_rot_s02_90_bird_20_n01582220_7400.png
subject-02,1,934,1.50005078315735,bear,oven,270,0934_rot_s02_270_oven_20_n04111531_4671.png
subject-02,1,935,0.50926399230957,clock,clock,90,0935_rot_s02_90_clock_20_n02708093_3623.png
subject-02,1,936,0.66325306892395,cat,cat,180,0936_rot_s02_180_cat_20_n02123159_2285.png
subject-02,1,937,1.38701701164246,elephant,elephant,90,0937_rot_s02_90_elephant_20_n02504013_5636.png
subject-02,1,938,0.688456773757935,bottle,oven,180,0938_rot_s02_180_oven_20_n04111531_7067.png
subject-02,1,939,0.702761888504028,oven,oven,270,0939_rot_s02_270_oven_20_n04111531_12952.png
subject-02,1,940,1.5,bicycle,bird,180,0940_rot_s02_180_bird_20_n01855672_15421.png
subject-02,1,941,0.618127822875977,cat,cat,0,0941_rot_s02_0_cat_20_n02125311_14054.png
subject-02,1,942,0.559748888015747,oven,oven,180,0942_rot_s02_180_oven_20_n04111531_16708.png
subject-02,1,943,0.673930168151855,keyboard,keyboard,90,0943_rot_s02_90_keyboard_20_n03085013_22704.png
subject-02,1,944,0.839702129364014,knife,knife,180,0944_rot_s02_180_knife_20_n03041632_43634.png
subject-02,1,945,0.655426025390625,cat,cat,270,0945_rot_s02_270_cat_20_n02123159_5939.png
subject-02,1,946,0.892999887466431,boat,boat,0,0946_rot_s02_0_boat_20_n03344393_2866.png
subject-02,1,947,1.3508620262146,chair,car,180,0947_rot_s02_180_car_20_n02814533_85971.png
subject-02,1,948,1.47060799598694,clock,clock,0,0948_rot_s02_0_clock_20_n04548280_6126.png
subject-02,1,949,0.716690063476562,bird,bird,270,0949_rot_s02_270_bird_20_n02025239_13707.png
subject-02,1,950,0.778350114822388,car,car,90,0950_rot_s02_90_car_20_n04285008_8677.png
subject-02,1,951,0.586548089981079,keyboard,keyboard,180,0951_rot_s02_180_keyboard_20_n03085013_6405.png
subject-02,1,952,0.8399498462677,airplane,airplane,90,0952_rot_s02_90_airplane_20_n02690373_19345.png
subject-02,1,953,0.522102832794189,clock,clock,0,0953_rot_s02_0_clock_20_n04548280_3038.png
subject-02,1,954,0.979557037353516,oven,bottle,180,0954_rot_s02_180_bottle_20_n03983396_9667.png
subject-02,1,955,0.761399030685425,clock,clock,0,0955_rot_s02_0_clock_20_n04548280_7211.png
subject-02,1,956,0.703593015670776,clock,clock,0,0956_rot_s02_0_clock_20_n04548280_4582.png
subject-02,1,957,0.738846778869629,clock,clock,180,0957_rot_s02_180_clock_20_n04548280_3305.png
subject-02,1,958,0.6089768409729,clock,clock,180,0958_rot_s02_180_clock_20_n04548280_5286.png
subject-02,1,959,0.794585943222046,truck,truck,0,0959_rot_s02_0_truck_20_n03417042_21047.png
subject-02,1,960,0.672334909439087,airplane,airplane,90,0960_rot_s02_90_airplane_20_n02690373_3050.png
subject-02,1,961,0.640232801437378,keyboard,keyboard,0,0961_rot_s02_0_keyboard_20_n04505470_1903.png
subject-02,1,962,0.868045806884766,bicycle,bicycle,90,0962_rot_s02_90_bicycle_20_n03792782_47774.png
subject-02,1,963,0.915670156478882,truck,truck,270,0963_rot_s02_270_truck_20_n03796401_19845.png
subject-02,1,964,0.833276033401489,car,car,90,0964_rot_s02_90_car_20_n02814533_71641.png
subject-02,1,965,1.07923698425293,airplane,airplane,0,0965_rot_s02_0_airplane_20_n02690373_4310.png
subject-02,1,966,NaN,na,dog,0,0966_rot_s02_0_dog_20_n02110806_749.png
subject-02,1,967,1.26512503623962,oven,chair,0,0967_rot_s02_0_chair_20_n04429376_1137.png
subject-02,1,968,1.05483484268188,bird,bird,180,0968_rot_s02_180_bird_20_n01560419_19599.png
subject-02,1,969,0.632601022720337,boat,boat,90,0969_rot_s02_90_boat_20_n04273569_17340.png
subject-02,1,970,0.904245138168335,bird,bird,0,0970_rot_s02_0_bird_20_n01797886_6169.png
subject-02,1,971,0.861954927444458,bear,elephant,90,0971_rot_s02_90_elephant_20_n02504013_673.png
subject-02,1,972,1.17638611793518,dog,dog,270,0972_rot_s02_270_dog_20_n02109047_13710.png
subject-02,1,973,0.681709051132202,bicycle,bicycle,180,0973_rot_s02_180_bicycle_20_n02835271_3643.png
subject-02,1,974,0.803903818130493,boat,boat,270,0974_rot_s02_270_boat_20_n03662601_21408.png
subject-02,1,975,0.617511987686157,bicycle,bicycle,0,0975_rot_s02_0_bicycle_20_n03792782_4895.png
subject-02,1,976,0.845273017883301,bear,dog,90,0976_rot_s02_90_dog_20_n02090721_1002.png
subject-02,1,977,0.985080003738403,bottle,chair,180,0977_rot_s02_180_chair_20_n02791124_880.png
subject-02,1,978,0.898936033248901,elephant,elephant,0,0978_rot_s02_0_elephant_20_n02504458_4482.png
subject-02,1,979,1.20496082305908,elephant,elephant,180,0979_rot_s02_180_elephant_20_n02504458_259.png
subject-02,1,980,0.814547061920166,truck,truck,90,0980_rot_s02_90_truck_20_n03417042_28886.png
subject-02,1,981,0.868066072463989,bicycle,bicycle,90,0981_rot_s02_90_bicycle_20_n03792782_12010.png
subject-02,1,982,1.32193207740784,bear,bear,270,0982_rot_s02_270_bear_20_n02132136_239.png
subject-02,1,983,1.31786489486694,elephant,elephant,270,0983_rot_s02_270_elephant_20_n02504013_4339.png
subject-02,1,984,0.927783966064453,truck,truck,0,0984_rot_s02_0_truck_20_n04467665_7093.png
subject-02,1,985,0.641517877578735,chair,chair,0,0985_rot_s02_0_chair_20_n04099969_12707.png
subject-02,1,986,0.999397993087769,bird,bird,90,0986_rot_s02_90_bird_20_n02009912_12219.png
subject-02,1,987,0.671097993850708,airplane,airplane,0,0987_rot_s02_0_airplane_20_n02690373_2070.png
subject-02,1,988,1.18689799308777,chair,chair,90,0988_rot_s02_90_chair_20_n04429376_29223.png
subject-02,1,989,1.29266691207886,elephant,elephant,180,0989_rot_s02_180_elephant_20_n02504013_1078.png
subject-02,1,990,0.760458946228027,car,car,270,0990_rot_s02_270_car_20_n03100240_5946.png
subject-02,1,991,1.31235504150391,oven,bottle,180,0991_rot_s02_180_bottle_20_n02823428_4530.png
subject-02,1,992,1.41261696815491,truck,truck,0,0992_rot_s02_0_truck_20_n03417042_22196.png
subject-02,1,993,0.594034910202026,bottle,bottle,180,0993_rot_s02_180_bottle_20_n02823428_3298.png
subject-02,1,994,0.835739135742188,airplane,airplane,90,0994_rot_s02_90_airplane_20_n02690373_2856.png
subject-02,1,995,1.25969791412354,car,boat,270,0995_rot_s02_270_boat_20_n03662601_22973.png
subject-02,1,996,0.759535074234009,keyboard,keyboard,180,0996_rot_s02_180_keyboard_20_n04505470_4473.png
subject-02,1,997,1.47360301017761,cat,elephant,90,0997_rot_s02_90_elephant_20_n02504458_113.png
subject-02,1,998,0.722928047180176,clock,clock,0,0998_rot_s02_0_clock_20_n02708093_1897.png
subject-02,1,999,0.568766117095947,airplane,airplane,0,0999_rot_s02_0_airplane_20_n02690373_764.png
subject-02,1,1000,0.694634199142456,keyboard,keyboard,0,1000_rot_s02_0_keyboard_20_n03085013_22744.png
subject-02,1,1001,1.18853497505188,dog,dog,180,1001_rot_s02_180_dog_20_n02093754_918.png
subject-02,1,1002,0.668373107910156,boat,boat,180,1002_rot_s02_180_boat_20_n03344393_8749.png
subject-02,1,1003,0.908028841018677,boat,boat,270,1003_rot_s02_270_boat_20_n03344393_3877.png
subject-02,1,1004,1.43202686309814,boat,cat,90,1004_rot_s02_90_cat_20_n02125311_1896.png
subject-02,1,1005,0.6598219871521,bicycle,bicycle,180,1005_rot_s02_180_bicycle_20_n02835271_6742.png
subject-02,1,1006,0.697582006454468,airplane,airplane,180,1006_rot_s02_180_airplane_20_n02690373_15097.png
subject-02,1,1007,1.07738399505615,elephant,elephant,90,1007_rot_s02_90_elephant_20_n02504013_3861.png
subject-02,1,1008,0.669053077697754,airplane,airplane,270,1008_rot_s02_270_airplane_20_n02690373_8746.png
subject-02,1,1009,1.32078886032104,cat,airplane,180,1009_rot_s02_180_airplane_20_n02690373_3588.png
subject-02,1,1010,0.896722078323364,truck,truck,0,1010_rot_s02_0_truck_20_n03417042_889.png
subject-02,1,1011,0.794811010360718,bear,bear,0,1011_rot_s02_0_bear_20_n02134418_2398.png
subject-02,1,1012,0.874518871307373,knife,knife,0,1012_rot_s02_0_knife_20_n03041632_43289.png
subject-02,1,1013,0.908166885375977,airplane,airplane,270,1013_rot_s02_270_airplane_20_n02690373_6459.png
subject-02,1,1014,0.758086204528809,cat,cat,0,1014_rot_s02_0_cat_20_n02123597_19872.png
subject-02,1,1015,0.765958070755005,oven,oven,90,1015_rot_s02_90_oven_20_n04111531_1556.png
subject-02,1,1016,0.962006092071533,dog,dog,0,1016_rot_s02_0_dog_20_n02087394_9061.png
subject-02,1,1017,0.475629806518555,clock,clock,90,1017_rot_s02_90_clock_20_n04548280_6865.png
subject-02,1,1018,1.14524388313293,airplane,airplane,270,1018_rot_s02_270_airplane_20_n02690373_1946.png
subject-02,1,1019,1.07716083526611,car,car,0,1019_rot_s02_0_car_20_n03100240_19550.png
subject-02,1,1020,1.13285303115845,car,car,270,1020_rot_s02_270_car_20_n03100240_17226.png
subject-02,1,1021,1.22285103797913,truck,truck,270,1021_rot_s02_270_truck_20_n04467665_5275.png
subject-02,1,1022,0.608654975891113,chair,chair,180,1022_rot_s02_180_chair_20_n03376595_6799.png
subject-02,1,1023,0.792299032211304,knife,knife,270,1023_rot_s02_270_knife_20_n03041632_424.png
subject-02,1,1024,0.838263034820557,keyboard,keyboard,0,1024_rot_s02_0_keyboard_20_n03085013_10463.png
subject-02,1,1025,0.755948066711426,bottle,bottle,0,1025_rot_s02_0_bottle_20_n03937543_7357.png
subject-02,1,1026,0.759727954864502,truck,truck,90,1026_rot_s02_90_truck_20_n03417042_21946.png
subject-02,1,1027,0.837942123413086,keyboard,oven,270,1027_rot_s02_270_oven_20_n04111531_22041.png
subject-02,1,1028,0.723522186279297,truck,truck,0,1028_rot_s02_0_truck_20_n03796401_5058.png
subject-02,1,1029,1.28755807876587,bicycle,bicycle,180,1029_rot_s02_180_bicycle_20_n03792782_42626.png
subject-02,1,1030,0.749346971511841,boat,boat,90,1030_rot_s02_90_boat_20_n02951358_4343.png
subject-02,1,1031,1.32691597938538,dog,oven,0,1031_rot_s02_0_oven_20_n04111531_24065.png
subject-02,1,1032,1.39298987388611,bicycle,clock,270,1032_rot_s02_270_clock_20_n02708093_1981.png
subject-02,1,1033,0.748440980911255,bird,bird,0,1033_rot_s02_0_bird_20_n02006656_5757.png
subject-02,1,1034,0.878476858139038,keyboard,keyboard,0,1034_rot_s02_0_keyboard_20_n03085013_23566.png
subject-02,1,1035,1.12247705459595,keyboard,keyboard,0,1035_rot_s02_0_keyboard_20_n04505470_4619.png
subject-02,1,1036,1.35800004005432,airplane,airplane,270,1036_rot_s02_270_airplane_20_n02690373_4434.png
subject-02,1,1037,0.92168402671814,chair,chair,90,1037_rot_s02_90_chair_20_n04099969_1941.png
subject-02,1,1038,0.943482160568237,bird,bottle,90,1038_rot_s02_90_bottle_20_n04560804_13583.png
subject-02,1,1039,0.895751953125,clock,clock,270,1039_rot_s02_270_clock_20_n03196217_6198.png
subject-02,1,1040,NaN,na,bear,90,1040_rot_s02_90_bear_20_n02132136_18953.png
subject-02,1,1041,0.488706827163696,clock,clock,270,1041_rot_s02_270_clock_20_n03196217_1829.png
subject-02,1,1042,0.864603996276855,bear,bear,270,1042_rot_s02_270_bear_20_n02132136_15174.png
subject-02,1,1043,0.67823314666748,truck,truck,180,1043_rot_s02_180_truck_20_n03796401_26894.png
subject-02,1,1044,1.05399799346924,dog,dog,270,1044_rot_s02_270_dog_20_n02094433_1289.png
subject-02,1,1045,1.08996295928955,bicycle,bicycle,0,1045_rot_s02_0_bicycle_20_n03792782_892.png
subject-02,1,1046,1.28776979446411,chair,knife,0,1046_rot_s02_0_knife_20_n03041632_33225.png
subject-02,1,1047,0.849370002746582,knife,knife,90,1047_rot_s02_90_knife_20_n03041632_19571.png
subject-02,1,1048,1.26928997039795,keyboard,keyboard,0,1048_rot_s02_0_keyboard_20_n03085013_2073.png
subject-02,1,1049,0.835168838500977,bear,dog,180,1049_rot_s02_180_dog_20_n02096051_892.png
subject-02,1,1050,0.678898096084595,keyboard,keyboard,0,1050_rot_s02_0_keyboard_20_n03085013_15249.png
subject-02,1,1051,0.644654989242554,chair,chair,0,1051_rot_s02_0_chair_20_n03376595_2368.png
subject-02,1,1052,1.18862009048462,airplane,airplane,0,1052_rot_s02_0_airplane_20_n02690373_2598.png
subject-02,1,1053,0.796477794647217,bottle,bottle,0,1053_rot_s02_0_bottle_20_n03983396_4313.png
subject-02,1,1054,0.842073917388916,knife,knife,90,1054_rot_s02_90_knife_20_n03041632_50648.png
subject-02,1,1055,1.20207595825195,dog,dog,90,1055_rot_s02_90_dog_20_n02087394_2278.png
subject-02,1,1056,0.915733814239502,truck,truck,180,1056_rot_s02_180_truck_20_n03417042_29384.png
subject-02,1,1057,0.585407972335815,bicycle,bicycle,90,1057_rot_s02_90_bicycle_20_n03792782_15016.png
subject-02,1,1058,0.949666023254395,elephant,elephant,180,1058_rot_s02_180_elephant_20_n02504458_6805.png
