subj,Session,trial,rt,object_response,category,condition,imagename
subject-03,1,1,0.857604026794434,airplane,airplane,180,0001_rot_s03_180_airplane_20_n02690373_4588.png
subject-03,1,2,1.09150791168213,car,car,180,0002_rot_s03_180_car_20_n03100240_7781.png
subject-03,1,3,0.687394857406616,cat,cat,90,0003_rot_s03_90_cat_20_n02124075_20.png
subject-03,1,4,1.10900187492371,knife,knife,180,0004_rot_s03_180_knife_20_n03041632_22330.png
subject-03,1,5,0.81876802444458,oven,oven,270,0005_rot_s03_270_oven_20_n04111531_4332.png
subject-03,1,6,1.23100686073303,bear,dog,180,0006_rot_s03_180_dog_20_n02096051_892.png
subject-03,1,7,0.768375873565674,oven,oven,90,0007_rot_s03_90_oven_20_n04111531_1556.png
subject-03,1,8,0.866488933563232,elephant,elephant,90,0008_rot_s03_90_elephant_20_n02504458_585.png
subject-03,1,9,1.05624914169312,clock,chair,270,0009_rot_s03_270_chair_20_n04429376_13448.png
subject-03,1,10,0.884099960327148,cat,cat,180,0010_rot_s03_180_cat_20_n02125311_43726.png
subject-03,1,11,0.777854919433594,bird,bird,0,0011_rot_s03_0_bird_20_n02006656_2030.png
subject-03,1,12,1.15179204940796,car,bird,270,0012_rot_s03_270_bird_20_n01558993_7871.png
subject-03,1,13,0.743274927139282,oven,oven,0,0013_rot_s03_0_oven_20_n04111531_8077.png
subject-03,1,14,0.825299978256226,boat,boat,270,0014_rot_s03_270_boat_20_n04273569_29866.png
subject-03,1,15,0.757305860519409,bear,bear,0,0015_rot_s03_0_bear_20_n02134084_572.png
subject-03,1,16,0.654875993728638,cat,cat,0,0016_rot_s03_0_cat_20_n02124075_13594.png
subject-03,1,17,0.892683029174805,chair,chair,270,0017_rot_s03_270_chair_20_n03376595_6445.png
subject-03,1,18,0.730525016784668,car,car,0,0018_rot_s03_0_car_20_n02814533_27327.png
subject-03,1,19,0.822298049926758,keyboard,keyboard,90,0019_rot_s03_90_keyboard_20_n04505470_4047.png
subject-03,1,20,0.918159008026123,dog,dog,0,0020_rot_s03_0_dog_20_n02112018_7786.png
subject-03,1,21,1.50011801719666,knife,chair,90,0021_rot_s03_90_chair_20_n03376595_8064.png
subject-03,1,22,0.753638982772827,airplane,airplane,0,0022_rot_s03_0_airplane_20_n02690373_2598.png
subject-03,1,23,0.735651969909668,keyboard,keyboard,90,0023_rot_s03_90_keyboard_20_n03085013_2853.png
subject-03,1,24,0.741485834121704,bird,bird,0,0024_rot_s03_0_bird_20_n02013706_7808.png
subject-03,1,25,1.1312460899353,dog,dog,0,0025_rot_s03_0_dog_20_n02087394_3354.png
subject-03,1,26,0.776949882507324,bear,bear,270,0026_rot_s03_270_bear_20_n02134084_3903.png
subject-03,1,27,0.818607807159424,elephant,elephant,180,0027_rot_s03_180_elephant_20_n02504458_259.png
subject-03,1,28,1.10644888877869,dog,dog,0,0028_rot_s03_0_dog_20_n02110958_14369.png
subject-03,1,29,0.780256986618042,chair,chair,90,0029_rot_s03_90_chair_20_n03376595_10266.png
subject-03,1,30,1.44429111480713,knife,knife,270,0030_rot_s03_270_knife_20_n03041632_29886.png
subject-03,1,31,0.840513944625854,bicycle,bicycle,90,0031_rot_s03_90_bicycle_20_n03792782_66159.png
subject-03,1,32,1.02183198928833,elephant,elephant,90,0032_rot_s03_90_elephant_20_n02504013_256.png
subject-03,1,33,0.943490982055664,elephant,elephant,90,0033_rot_s03_90_elephant_20_n02504458_3608.png
subject-03,1,34,1.12354397773743,dog,dog,90,0034_rot_s03_90_dog_20_n02095570_7633.png
subject-03,1,35,1.191321849823,bicycle,car,180,0035_rot_s03_180_car_20_n02814533_55715.png
subject-03,1,36,1.27105212211609,clock,bottle,180,0036_rot_s03_180_bottle_20_n04591713_6169.png
subject-03,1,37,0.785002946853638,keyboard,keyboard,90,0037_rot_s03_90_keyboard_20_n03085013_9209.png
subject-03,1,38,1.05679702758789,boat,boat,0,0038_rot_s03_0_boat_20_n02951358_30117.png
subject-03,1,39,1.14040493965149,truck,truck,270,0039_rot_s03_270_truck_20_n03796401_19845.png
subject-03,1,40,0.826421976089478,keyboard,keyboard,0,0040_rot_s03_0_keyboard_20_n03085013_22744.png
subject-03,1,41,1.00401616096497,elephant,elephant,90,0041_rot_s03_90_elephant_20_n02504013_1500.png
subject-03,1,42,1.35185885429382,clock,clock,0,0042_rot_s03_0_clock_20_n03196217_5103.png
subject-03,1,43,0.843993902206421,bear,bear,270,0043_rot_s03_270_bear_20_n02132136_239.png
subject-03,1,44,0.793587923049927,keyboard,keyboard,90,0044_rot_s03_90_keyboard_20_n03085013_25924.png
subject-03,1,45,0.869478940963745,boat,boat,90,0045_rot_s03_90_boat_20_n04273569_1050.png
subject-03,1,46,0.605246067047119,clock,clock,90,0046_rot_s03_90_clock_20_n04548280_6865.png
subject-03,1,47,0.92286491394043,bicycle,bicycle,0,0047_rot_s03_0_bicycle_20_n02835271_6383.png
subject-03,1,48,0.710822105407715,keyboard,keyboard,270,0048_rot_s03_270_keyboard_20_n03085013_7879.png
subject-03,1,49,0.754542112350464,bear,bear,0,0049_rot_s03_0_bear_20_n02133161_62.png
subject-03,1,50,0.866450071334839,car,car,270,0050_rot_s03_270_car_20_n02814533_46458.png
subject-03,1,51,0.740180969238281,boat,boat,270,0051_rot_s03_270_boat_20_n04273569_17522.png
subject-03,1,52,1.13006901741028,bear,bear,270,0052_rot_s03_270_bear_20_n02134418_5827.png
subject-03,1,53,1.42578601837158,dog,bird,90,0053_rot_s03_90_bird_20_n02006656_10849.png
subject-03,1,54,0.787736892700195,car,car,0,0054_rot_s03_0_car_20_n03100240_2195.png
subject-03,1,55,0.817868947982788,keyboard,keyboard,90,0055_rot_s03_90_keyboard_20_n04505470_816.png
subject-03,1,56,0.835686206817627,knife,knife,270,0056_rot_s03_270_knife_20_n03041632_17820.png
subject-03,1,57,0.642982959747314,boat,boat,90,0057_rot_s03_90_boat_20_n02951358_4343.png
subject-03,1,58,1.01318502426147,truck,truck,90,0058_rot_s03_90_truck_20_n03417042_12560.png
subject-03,1,59,0.895107984542847,elephant,elephant,180,0059_rot_s03_180_elephant_20_n02504458_193.png
subject-03,1,60,1.08838200569153,knife,knife,270,0060_rot_s03_270_knife_20_n03041632_29940.png
subject-03,1,61,1.15053081512451,car,airplane,90,0061_rot_s03_90_airplane_20_n02690373_3492.png
subject-03,1,62,1.28454303741455,oven,oven,180,0062_rot_s03_180_oven_20_n04111531_1938.png
subject-03,1,63,0.880140066146851,bear,bear,90,0063_rot_s03_90_bear_20_n02134418_5219.png
subject-03,1,64,0.729641914367676,knife,knife,0,0064_rot_s03_0_knife_20_n03041632_24376.png
subject-03,1,65,0.811723947525024,knife,knife,90,0065_rot_s03_90_knife_20_n03041632_30248.png
subject-03,1,66,0.675204992294312,airplane,airplane,270,0066_rot_s03_270_airplane_20_n02690373_10769.png
subject-03,1,67,1.05732488632202,dog,dog,90,0067_rot_s03_90_dog_20_n02110806_8971.png
subject-03,1,68,0.907146215438843,bird,bird,180,0068_rot_s03_180_bird_20_n02027492_6213.png
subject-03,1,69,1.0088210105896,bird,bird,90,0069_rot_s03_90_bird_20_n02011460_22646.png
subject-03,1,70,1.08473014831543,dog,dog,0,0070_rot_s03_0_dog_20_n02097209_1042.png
subject-03,1,71,0.738440990447998,keyboard,keyboard,0,0071_rot_s03_0_keyboard_20_n03085013_15249.png
subject-03,1,72,1.0565071105957,bear,elephant,0,0072_rot_s03_0_elephant_20_n02504013_6645.png
subject-03,1,73,1.11821603775024,dog,dog,90,0073_rot_s03_90_dog_20_n02087394_7707.png
subject-03,1,74,0.902111053466797,boat,boat,180,0074_rot_s03_180_boat_20_n03344393_7967.png
subject-03,1,75,1.03381109237671,truck,truck,180,0075_rot_s03_180_truck_20_n03796401_6315.png
subject-03,1,76,1.08744192123413,car,car,0,0076_rot_s03_0_car_20_n02814533_6233.png
subject-03,1,77,0.871462106704712,dog,dog,270,0077_rot_s03_270_dog_20_n02107683_7183.png
subject-03,1,78,0.709215879440308,cat,cat,270,0078_rot_s03_270_cat_20_n02125311_21290.png
subject-03,1,79,0.699123859405518,clock,clock,0,0079_rot_s03_0_clock_20_n03196217_11724.png
subject-03,1,80,0.94492506980896,truck,truck,0,0080_rot_s03_0_truck_20_n04467665_7093.png
subject-03,1,81,1.0042450428009,boat,boat,180,0081_rot_s03_180_boat_20_n04273569_15761.png
subject-03,1,82,1.07402396202087,bird,bird,90,0082_rot_s03_90_bird_20_n01534433_14735.png
subject-03,1,83,0.905887842178345,knife,knife,90,0083_rot_s03_90_knife_20_n03041632_15250.png
subject-03,1,84,0.901733875274658,keyboard,keyboard,90,0084_rot_s03_90_keyboard_20_n04505470_4173.png
subject-03,1,85,0.79963493347168,car,car,90,0085_rot_s03_90_car_20_n04285008_8519.png
subject-03,1,86,0.891737937927246,airplane,airplane,90,0086_rot_s03_90_airplane_20_n02690373_4695.png
subject-03,1,87,0.757160902023315,truck,truck,180,0087_rot_s03_180_truck_20_n03417042_19447.png
subject-03,1,88,1.24889802932739,bicycle,elephant,0,0088_rot_s03_0_elephant_20_n02504013_1636.png
subject-03,1,89,1.50012803077698,chair,chair,270,0089_rot_s03_270_chair_20_n03376595_14240.png
subject-03,1,90,1.21088910102844,boat,knife,90,0090_rot_s03_90_knife_20_n03041632_14801.png
subject-03,1,91,0.842394113540649,knife,knife,0,0091_rot_s03_0_knife_20_n03041632_49570.png
subject-03,1,92,0.722137928009033,keyboard,keyboard,0,0092_rot_s03_0_keyboard_20_n03085013_10463.png
subject-03,1,93,0.752081871032715,bird,bird,180,0093_rot_s03_180_bird_20_n01531178_17239.png
subject-03,1,94,0.867776870727539,car,car,180,0094_rot_s03_180_car_20_n03100240_5752.png
subject-03,1,95,1.03179287910461,cat,cat,270,0095_rot_s03_270_cat_20_n02123045_8409.png
subject-03,1,96,1.09376406669617,bottle,bottle,270,0096_rot_s03_270_bottle_20_n03983396_11236.png
subject-03,1,97,0.631253957748413,clock,clock,90,0097_rot_s03_90_clock_20_n04548280_7354.png
subject-03,1,98,1.04936790466309,chair,chair,0,0098_rot_s03_0_chair_20_n02791124_3220.png
subject-03,1,99,1.12899303436279,bottle,bottle,270,0099_rot_s03_270_bottle_20_n02823428_12190.png
subject-03,1,100,0.729045152664185,bird,bird,270,0100_rot_s03_270_bird_20_n01855032_5358.png
subject-03,1,101,0.644814968109131,cat,cat,270,0101_rot_s03_270_cat_20_n02124075_14662.png
subject-03,1,102,0.616473913192749,clock,clock,180,0102_rot_s03_180_clock_20_n03196217_946.png
subject-03,1,103,1.17006492614746,chair,knife,180,0103_rot_s03_180_knife_20_n03041632_15174.png
subject-03,1,104,1.44034504890442,chair,oven,180,0104_rot_s03_180_oven_20_n04111531_2937.png
subject-03,1,105,0.913635969161987,truck,truck,180,0105_rot_s03_180_truck_20_n03796401_4582.png
subject-03,1,106,0.919541120529175,chair,chair,0,0106_rot_s03_0_chair_20_n02791124_422.png
subject-03,1,107,1.14938282966614,chair,chair,270,0107_rot_s03_270_chair_20_n03376595_9535.png
subject-03,1,108,0.913068056106567,elephant,elephant,90,0108_rot_s03_90_elephant_20_n02504458_2417.png
subject-03,1,109,1.19711494445801,car,car,0,0109_rot_s03_0_car_20_n03100240_17587.png
subject-03,1,110,1.11719799041748,clock,clock,0,0110_rot_s03_0_clock_20_n04548280_6126.png
subject-03,1,111,0.794721841812134,bicycle,bicycle,180,0111_rot_s03_180_bicycle_20_n03792782_6058.png
subject-03,1,112,0.900297164916992,bottle,bottle,270,0112_rot_s03_270_bottle_20_n04557648_4727.png
subject-03,1,113,0.604717016220093,clock,clock,90,0113_rot_s03_90_clock_20_n04548280_11763.png
subject-03,1,114,0.842212915420532,keyboard,keyboard,90,0114_rot_s03_90_keyboard_20_n03085013_24294.png
subject-03,1,115,0.761920928955078,bear,bear,90,0115_rot_s03_90_bear_20_n02132136_17349.png
subject-03,1,116,0.995913982391357,bicycle,bicycle,0,0116_rot_s03_0_bicycle_20_n02835271_8137.png
subject-03,1,117,1.23556709289551,keyboard,chair,180,0117_rot_s03_180_chair_20_n04429376_6390.png
subject-03,1,118,0.899365186691284,bear,bear,270,0118_rot_s03_270_bear_20_n02132136_15168.png
subject-03,1,119,0.625054121017456,clock,clock,0,0119_rot_s03_0_clock_20_n02708093_240.png
subject-03,1,120,1.17078018188477,car,oven,180,0120_rot_s03_180_oven_20_n04111531_11026.png
subject-03,1,121,1.36077809333801,car,truck,90,0121_rot_s03_90_truck_20_n03417042_1344.png
subject-03,1,122,0.780488014221191,bird,bird,90,0122_rot_s03_90_bird_20_n01534433_14389.png
subject-03,1,123,1.32625389099121,airplane,airplane,0,0123_rot_s03_0_airplane_20_n02690373_7142.png
subject-03,1,124,0.592175006866455,boat,boat,90,0124_rot_s03_90_boat_20_n04273569_8951.png
subject-03,1,125,0.684123992919922,keyboard,keyboard,180,0125_rot_s03_180_keyboard_20_n03085013_6405.png
subject-03,1,126,0.791880130767822,airplane,airplane,90,0126_rot_s03_90_airplane_20_n02690373_3050.png
subject-03,1,127,1.36163401603699,bird,knife,270,0127_rot_s03_270_knife_20_n03041632_9759.png
subject-03,1,128,0.601364850997925,boat,boat,270,0128_rot_s03_270_boat_20_n03662601_22973.png
subject-03,1,129,0.705099105834961,oven,oven,90,0129_rot_s03_90_oven_20_n04111531_4375.png
subject-03,1,130,0.702972888946533,bird,bird,270,0130_rot_s03_270_bird_20_n02028035_20411.png
subject-03,1,131,1.15501999855042,elephant,elephant,90,0131_rot_s03_90_elephant_20_n02504458_2613.png
subject-03,1,132,0.680885076522827,airplane,airplane,0,0132_rot_s03_0_airplane_20_n02690373_10044.png
subject-03,1,133,0.71039080619812,car,car,270,0133_rot_s03_270_car_20_n04285008_17151.png
subject-03,1,134,1.49632501602173,truck,truck,90,0134_rot_s03_90_truck_20_n03796401_4571.png
subject-03,1,135,0.726014852523804,clock,clock,270,0135_rot_s03_270_clock_20_n02708093_1981.png
subject-03,1,136,0.705826997756958,airplane,airplane,0,0136_rot_s03_0_airplane_20_n02690373_6753.png
subject-03,1,137,1.24362683296204,bird,knife,180,0137_rot_s03_180_knife_20_n03041632_19971.png
subject-03,1,138,0.921618938446045,dog,dog,0,0138_rot_s03_0_dog_20_n02102318_501.png
subject-03,1,139,0.753303050994873,bird,bird,0,0139_rot_s03_0_bird_20_n02006656_5079.png
subject-03,1,140,0.719003915786743,bottle,bottle,270,0140_rot_s03_270_bottle_20_n02823428_1495.png
subject-03,1,141,1.11506295204163,knife,knife,270,0141_rot_s03_270_knife_20_n03041632_15099.png
subject-03,1,142,0.834752082824707,knife,knife,90,0142_rot_s03_90_knife_20_n03041632_19571.png
subject-03,1,143,0.974547147750854,bottle,chair,90,0143_rot_s03_90_chair_20_n02791124_8775.png
subject-03,1,144,0.828369140625,truck,truck,0,0144_rot_s03_0_truck_20_n03417042_11446.png
subject-03,1,145,1.02211499214172,boat,boat,0,0145_rot_s03_0_boat_20_n03662601_26140.png
subject-03,1,146,0.684000015258789,airplane,airplane,180,0146_rot_s03_180_airplane_20_n02690373_2038.png
subject-03,1,147,0.737908840179443,bottle,bottle,270,0147_rot_s03_270_bottle_20_n04579145_3729.png
subject-03,1,148,0.717742204666138,boat,truck,180,0148_rot_s03_180_truck_20_n03417042_6539.png
subject-03,1,149,1.02182483673096,bird,bird,180,0149_rot_s03_180_bird_20_n02002724_6462.png
subject-03,1,150,0.969336986541748,bicycle,oven,0,0150_rot_s03_0_oven_20_n04111531_10403.png
subject-03,1,151,1.31512212753296,bicycle,bicycle,0,0151_rot_s03_0_bicycle_20_n03792782_30530.png
subject-03,1,152,NaN,na,bear,270,0152_rot_s03_270_bear_20_n02134418_5067.png
subject-03,1,153,0.732855081558228,elephant,elephant,270,0153_rot_s03_270_elephant_20_n02504013_15219.png
subject-03,1,154,0.728760004043579,bottle,bottle,270,0154_rot_s03_270_bottle_20_n04591713_6111.png
subject-03,1,155,1.2762279510498,dog,cat,180,0155_rot_s03_180_cat_20_n02123597_1901.png
subject-03,1,156,0.7862389087677,bear,bear,0,0156_rot_s03_0_bear_20_n02132136_10412.png
subject-03,1,157,0.905992031097412,dog,dog,270,0157_rot_s03_270_dog_20_n02102177_255.png
subject-03,1,158,1.02965807914734,keyboard,keyboard,270,0158_rot_s03_270_keyboard_20_n04505470_1649.png
subject-03,1,159,1.0895881652832,bird,bird,90,0159_rot_s03_90_bird_20_n02006656_4486.png
subject-03,1,160,0.841785907745361,bottle,bottle,90,0160_rot_s03_90_bottle_20_n04579145_6509.png
subject-03,1,161,0.988839149475098,bicycle,bicycle,90,0161_rot_s03_90_bicycle_20_n03792782_442.png
subject-03,1,162,0.822721004486084,boat,boat,90,0162_rot_s03_90_boat_20_n03344393_6588.png
subject-03,1,163,0.950608015060425,elephant,elephant,90,0163_rot_s03_90_elephant_20_n02504013_7316.png
subject-03,1,164,0.612328052520752,bear,bear,0,0164_rot_s03_0_bear_20_n02134084_2598.png
subject-03,1,165,0.603966236114502,clock,clock,0,0165_rot_s03_0_clock_20_n04548280_7792.png
subject-03,1,166,0.978003025054932,bottle,oven,0,0166_rot_s03_0_oven_20_n04111531_27.png
subject-03,1,167,1.09184694290161,elephant,elephant,180,0167_rot_s03_180_elephant_20_n02504013_13283.png
subject-03,1,168,0.915558099746704,bear,elephant,180,0168_rot_s03_180_elephant_20_n02504458_5816.png
subject-03,1,169,0.919538974761963,truck,truck,90,0169_rot_s03_90_truck_20_n04467665_9812.png
subject-03,1,170,0.511359930038452,clock,clock,270,0170_rot_s03_270_clock_20_n02708093_3674.png
subject-03,1,171,0.899169921875,truck,truck,180,0171_rot_s03_180_truck_20_n03417042_29384.png
subject-03,1,172,0.661178112030029,bottle,bottle,0,0172_rot_s03_0_bottle_20_n02823428_4282.png
subject-03,1,173,0.679051876068115,boat,boat,0,0173_rot_s03_0_boat_20_n02951358_18762.png
subject-03,1,174,1.09246492385864,dog,dog,90,0174_rot_s03_90_dog_20_n02111500_8796.png
subject-03,1,175,0.722208023071289,bottle,bottle,0,0175_rot_s03_0_bottle_20_n03937543_1197.png
subject-03,1,176,0.784240007400513,chair,chair,0,0176_rot_s03_0_chair_20_n02791124_3180.png
subject-03,1,177,0.962211847305298,chair,chair,90,0177_rot_s03_90_chair_20_n04099969_1941.png
subject-03,1,178,0.665816068649292,keyboard,keyboard,270,0178_rot_s03_270_keyboard_20_n03085013_1129.png
subject-03,1,179,0.719703912734985,clock,clock,270,0179_rot_s03_270_clock_20_n04548280_4035.png
subject-03,1,180,0.843315124511719,knife,knife,0,0180_rot_s03_0_knife_20_n03041632_24113.png
subject-03,1,181,1.10330200195312,knife,knife,90,0181_rot_s03_90_knife_20_n03041632_33255.png
subject-03,1,182,0.703037023544312,car,car,270,0182_rot_s03_270_car_20_n02814533_89061.png
subject-03,1,183,0.744787931442261,truck,truck,0,0183_rot_s03_0_truck_20_n03796401_5058.png
subject-03,1,184,0.536629915237427,boat,boat,0,0184_rot_s03_0_boat_20_n04273569_30203.png
subject-03,1,185,0.70430588722229,keyboard,keyboard,180,0185_rot_s03_180_keyboard_20_n04505470_807.png
subject-03,1,186,0.984402894973755,bird,oven,180,0186_rot_s03_180_oven_20_n04111531_1439.png
subject-03,1,187,0.558043956756592,boat,boat,90,0187_rot_s03_90_boat_20_n02951358_582.png
subject-03,1,188,0.759958982467651,truck,truck,180,0188_rot_s03_180_truck_20_n04467665_23691.png
subject-03,1,189,0.937771081924438,bottle,bottle,90,0189_rot_s03_90_bottle_20_n03937543_2469.png
subject-03,1,190,0.861505031585693,car,car,270,0190_rot_s03_270_car_20_n02814533_23563.png
subject-03,1,191,0.915327072143555,airplane,airplane,0,0191_rot_s03_0_airplane_20_n02690373_1972.png
subject-03,1,192,0.723039865493774,keyboard,keyboard,90,0192_rot_s03_90_keyboard_20_n04505470_4520.png
subject-03,1,193,0.646914005279541,keyboard,keyboard,270,0193_rot_s03_270_keyboard_20_n04505470_2055.png
subject-03,1,194,0.90692400932312,truck,truck,270,0194_rot_s03_270_truck_20_n03417042_10744.png
subject-03,1,195,0.726469993591309,clock,clock,180,0195_rot_s03_180_clock_20_n03196217_4776.png
subject-03,1,196,0.716264009475708,car,car,90,0196_rot_s03_90_car_20_n03100240_1153.png
subject-03,1,197,1.04220199584961,oven,oven,270,0197_rot_s03_270_oven_20_n04111531_5015.png
subject-03,1,198,0.87991189956665,car,car,90,0198_rot_s03_90_car_20_n03100240_5044.png
subject-03,1,199,0.847957134246826,airplane,airplane,180,0199_rot_s03_180_airplane_20_n02690373_7046.png
subject-03,1,200,0.915446996688843,bear,bear,90,0200_rot_s03_90_bear_20_n02133161_12349.png
subject-03,1,201,0.777611970901489,elephant,elephant,90,0201_rot_s03_90_elephant_20_n02504013_318.png
subject-03,1,202,0.767141103744507,keyboard,keyboard,90,0202_rot_s03_90_keyboard_20_n04505470_961.png
subject-03,1,203,1.23489093780518,truck,truck,270,0203_rot_s03_270_truck_20_n03417042_27780.png
subject-03,1,204,0.776631116867065,bird,bird,270,0204_rot_s03_270_bird_20_n01558993_55.png
subject-03,1,205,0.840746164321899,bear,bear,90,0205_rot_s03_90_bear_20_n02132136_11339.png
subject-03,1,206,0.666340112686157,oven,oven,0,0206_rot_s03_0_oven_20_n04111531_18648.png
subject-03,1,207,0.904562950134277,boat,boat,180,0207_rot_s03_180_boat_20_n02951358_3511.png
subject-03,1,208,0.718096017837524,bear,bear,90,0208_rot_s03_90_bear_20_n02132136_18953.png
subject-03,1,209,1.03824090957642,truck,truck,180,0209_rot_s03_180_truck_20_n04467665_49826.png
subject-03,1,210,1.223717212677,chair,bottle,270,0210_rot_s03_270_bottle_20_n04560804_14111.png
subject-03,1,211,0.893352031707764,bicycle,bicycle,90,0211_rot_s03_90_bicycle_20_n02835271_11697.png
subject-03,1,212,0.649263143539429,boat,boat,270,0212_rot_s03_270_boat_20_n03662601_10090.png
subject-03,1,213,0.581146001815796,clock,clock,90,0213_rot_s03_90_clock_20_n04548280_1254.png
subject-03,1,214,0.937021017074585,dog,dog,270,0214_rot_s03_270_dog_20_n02111500_6559.png
subject-03,1,215,0.62096905708313,boat,bird,90,0215_rot_s03_90_bird_20_n02037110_8716.png
subject-03,1,216,0.720955848693848,airplane,airplane,270,0216_rot_s03_270_airplane_20_n02690373_8214.png
subject-03,1,217,1.04028797149658,elephant,elephant,0,0217_rot_s03_0_elephant_20_n02504458_493.png
subject-03,1,218,0.974476099014282,bear,bear,90,0218_rot_s03_90_bear_20_n02134418_10879.png
subject-03,1,219,0.928028106689453,cat,cat,0,0219_rot_s03_0_cat_20_n02123394_937.png
subject-03,1,220,0.843800067901611,boat,boat,180,0220_rot_s03_180_boat_20_n02951358_3819.png
subject-03,1,221,1.05769515037537,elephant,elephant,180,0221_rot_s03_180_elephant_20_n02504013_10719.png
subject-03,1,222,0.539545059204102,cat,cat,180,0222_rot_s03_180_cat_20_n02123045_436.png
subject-03,1,223,0.643347024917603,boat,boat,270,0223_rot_s03_270_boat_20_n03344393_2961.png
subject-03,1,224,0.987020015716553,bird,bird,270,0224_rot_s03_270_bird_20_n02028035_32824.png
subject-03,1,225,0.842802047729492,keyboard,keyboard,90,0225_rot_s03_90_keyboard_20_n03085013_23625.png
subject-03,1,226,0.794672012329102,boat,boat,270,0226_rot_s03_270_boat_20_n03344393_1533.png
subject-03,1,227,1.14249205589294,chair,knife,90,0227_rot_s03_90_knife_20_n03041632_84012.png
subject-03,1,228,0.974488973617554,airplane,airplane,270,0228_rot_s03_270_airplane_20_n02690373_1348.png
subject-03,1,229,0.800184011459351,bottle,bottle,0,0229_rot_s03_0_bottle_20_n03937543_1929.png
subject-03,1,230,1.32571196556091,bear,oven,270,0230_rot_s03_270_oven_20_n04111531_4671.png
subject-03,1,231,0.726164817810059,bird,bird,270,0231_rot_s03_270_bird_20_n02013706_652.png
subject-03,1,232,0.819649934768677,knife,knife,180,0232_rot_s03_180_knife_20_n03041632_20413.png
subject-03,1,233,1.05781698226929,dog,dog,270,0233_rot_s03_270_dog_20_n02087394_1428.png
subject-03,1,234,0.797605991363525,keyboard,keyboard,270,0234_rot_s03_270_keyboard_20_n03085013_22417.png
subject-03,1,235,0.754865169525146,truck,truck,270,0235_rot_s03_270_truck_20_n04467665_44390.png
subject-03,1,236,0.618798017501831,oven,oven,0,0236_rot_s03_0_oven_20_n04111531_17006.png
subject-03,1,237,0.912781953811646,knife,knife,180,0237_rot_s03_180_knife_20_n03041632_80317.png
subject-03,1,238,0.762431859970093,bicycle,bicycle,90,0238_rot_s03_90_bicycle_20_n03792782_47774.png
subject-03,1,239,1.07430505752563,truck,truck,90,0239_rot_s03_90_truck_20_n03796401_16046.png
subject-03,1,240,0.750462055206299,bicycle,bicycle,90,0240_rot_s03_90_bicycle_20_n03792782_15016.png
subject-03,1,241,0.871577024459839,dog,dog,90,0241_rot_s03_90_dog_20_n02100236_1662.png
subject-03,1,242,0.703464984893799,airplane,airplane,180,0242_rot_s03_180_airplane_20_n02690373_15097.png
subject-03,1,243,1.06119012832642,keyboard,keyboard,270,0243_rot_s03_270_keyboard_20_n04505470_6662.png
subject-03,1,244,0.833032846450806,bird,bird,0,0244_rot_s03_0_bird_20_n02017213_15918.png
subject-03,1,245,0.696977138519287,oven,oven,90,0245_rot_s03_90_oven_20_n04111531_10727.png
subject-03,1,246,1.04674792289734,dog,dog,270,0246_rot_s03_270_dog_20_n02109961_4280.png
subject-03,1,247,0.842602968215942,bottle,bottle,0,0247_rot_s03_0_bottle_20_n04560804_9710.png
subject-03,1,248,0.702261924743652,bear,bear,0,0248_rot_s03_0_bear_20_n02134418_1017.png
subject-03,1,249,0.896086931228638,keyboard,clock,270,0249_rot_s03_270_clock_20_n03196217_5433.png
subject-03,1,250,0.791920900344849,bicycle,bicycle,90,0250_rot_s03_90_bicycle_20_n02835271_8747.png
subject-03,1,251,0.868218183517456,dog,dog,0,0251_rot_s03_0_dog_20_n02089973_9526.png
subject-03,1,252,0.893502950668335,elephant,bear,180,0252_rot_s03_180_bear_20_n02133161_5235.png
subject-03,1,253,0.609377861022949,boat,boat,0,0253_rot_s03_0_boat_20_n03662601_8410.png
subject-03,1,254,0.613145112991333,clock,clock,180,0254_rot_s03_180_clock_20_n04548280_2313.png
subject-03,1,255,0.815181970596313,elephant,elephant,180,0255_rot_s03_180_elephant_20_n02504458_1623.png
subject-03,1,256,1.00078988075256,car,truck,0,0256_rot_s03_0_truck_20_n03417042_11000.png
subject-03,1,257,0.768613815307617,bird,bird,270,0257_rot_s03_270_bird_20_n01614925_1860.png
subject-03,1,258,0.876441955566406,boat,boat,270,0258_rot_s03_270_boat_20_n02951358_9837.png
subject-03,1,259,0.694187879562378,oven,oven,0,0259_rot_s03_0_oven_20_n04111531_7045.png
subject-03,1,260,0.570080041885376,cat,cat,180,0260_rot_s03_180_cat_20_n02123394_6853.png
subject-03,1,261,0.755808115005493,bird,bird,270,0261_rot_s03_270_bird_20_n02028035_8327.png
subject-03,1,262,0.653612852096558,oven,oven,0,0262_rot_s03_0_oven_20_n04111531_73.png
subject-03,1,263,0.823384046554565,car,car,180,0263_rot_s03_180_car_20_n03100240_16210.png
subject-03,1,264,0.757354021072388,oven,oven,90,0264_rot_s03_90_oven_20_n04111531_7728.png
subject-03,1,265,0.715289831161499,airplane,airplane,90,0265_rot_s03_90_airplane_20_n02690373_7293.png
subject-03,1,266,0.827122211456299,bear,bear,90,0266_rot_s03_90_bear_20_n02133161_5267.png
subject-03,1,267,1.35659694671631,cat,bird,180,0267_rot_s03_180_bird_20_n01843383_6001.png
subject-03,1,268,0.666595220565796,bear,bear,180,0268_rot_s03_180_bear_20_n02134084_41588.png
subject-03,1,269,0.680198907852173,bear,bear,180,0269_rot_s03_180_bear_20_n02132136_5537.png
subject-03,1,270,0.716310024261475,cat,cat,0,0270_rot_s03_0_cat_20_n02123597_13286.png
subject-03,1,271,0.753901958465576,keyboard,keyboard,180,0271_rot_s03_180_keyboard_20_n04505470_10746.png
subject-03,1,272,0.833765029907227,knife,knife,0,0272_rot_s03_0_knife_20_n03041632_99912.png
subject-03,1,273,0.863558053970337,keyboard,keyboard,180,0273_rot_s03_180_keyboard_20_n03085013_7009.png
subject-03,1,274,0.727283954620361,boat,boat,0,0274_rot_s03_0_boat_20_n03344393_9127.png
subject-03,1,275,0.961349010467529,bottle,bottle,0,0275_rot_s03_0_bottle_20_n04557648_3959.png
subject-03,1,276,0.868983030319214,car,car,90,0276_rot_s03_90_car_20_n02814533_18148.png
subject-03,1,277,1.07090592384338,clock,truck,90,0277_rot_s03_90_truck_20_n04467665_15994.png
subject-03,1,278,0.738528966903687,keyboard,keyboard,90,0278_rot_s03_90_keyboard_20_n03085013_8334.png
subject-03,1,279,0.886743783950806,bird,bird,0,0279_rot_s03_0_bird_20_n02006656_5757.png
subject-03,1,280,0.748183012008667,bicycle,bicycle,0,0280_rot_s03_0_bicycle_20_n02835271_8521.png
subject-03,1,281,0.794564962387085,bicycle,bicycle,180,0281_rot_s03_180_bicycle_20_n02835271_10933.png
subject-03,1,282,0.619836091995239,bottle,bottle,270,0282_rot_s03_270_bottle_20_n04591713_3663.png
subject-03,1,283,0.602057933807373,boat,airplane,270,0283_rot_s03_270_airplane_20_n02690373_2629.png
subject-03,1,284,0.845491886138916,bottle,bottle,0,0284_rot_s03_0_bottle_20_n03983396_1881.png
subject-03,1,285,1.21131706237793,knife,oven,90,0285_rot_s03_90_oven_20_n04111531_3099.png
subject-03,1,286,0.863070964813232,chair,chair,90,0286_rot_s03_90_chair_20_n02791124_5199.png
subject-03,1,287,1.16691493988037,elephant,bear,270,0287_rot_s03_270_bear_20_n02133161_5020.png
subject-03,1,288,0.812637090682983,chair,chair,270,0288_rot_s03_270_chair_20_n04099969_18678.png
subject-03,1,289,0.542720079421997,clock,clock,90,0289_rot_s03_90_clock_20_n04548280_5631.png
subject-03,1,290,0.634368896484375,bird,bird,270,0290_rot_s03_270_bird_20_n01592084_8100.png
subject-03,1,291,0.828266143798828,truck,truck,0,0291_rot_s03_0_truck_20_n03796401_6294.png
subject-03,1,292,0.888151168823242,cat,cat,270,0292_rot_s03_270_cat_20_n02123394_6969.png
subject-03,1,293,0.659748792648315,cat,cat,270,0293_rot_s03_270_cat_20_n02123394_686.png
subject-03,1,294,0.871618986129761,bear,bear,0,0294_rot_s03_0_bear_20_n02132136_13975.png
subject-03,1,295,0.745502948760986,clock,clock,180,0295_rot_s03_180_clock_20_n04548280_3305.png
subject-03,1,296,1.0635769367218,dog,bear,0,0296_rot_s03_0_bear_20_n02134418_132.png
subject-03,1,297,0.823202848434448,bicycle,bicycle,90,0297_rot_s03_90_bicycle_20_n03792782_1475.png
subject-03,1,298,0.843330860137939,oven,oven,0,0298_rot_s03_0_oven_20_n04111531_4845.png
subject-03,1,299,1.23067402839661,dog,dog,180,0299_rot_s03_180_dog_20_n02107142_4461.png
subject-03,1,300,0.794919967651367,elephant,elephant,0,0300_rot_s03_0_elephant_20_n02504013_9299.png
subject-03,1,301,1.05044293403625,bear,bear,180,0301_rot_s03_180_bear_20_n02134084_20605.png
subject-03,1,302,1.18233895301819,dog,bear,180,0302_rot_s03_180_bear_20_n02134418_5260.png
subject-03,1,303,0.865906953811646,knife,knife,0,0303_rot_s03_0_knife_20_n03041632_6557.png
subject-03,1,304,0.715717077255249,chair,chair,180,0304_rot_s03_180_chair_20_n04429376_4296.png
subject-03,1,305,0.955561876296997,truck,truck,0,0305_rot_s03_0_truck_20_n03417042_889.png
subject-03,1,306,0.855316162109375,cat,cat,180,0306_rot_s03_180_cat_20_n02125311_41650.png
subject-03,1,307,0.751245021820068,bicycle,bicycle,0,0307_rot_s03_0_bicycle_20_n02835271_6873.png
subject-03,1,308,0.875190019607544,car,car,180,0308_rot_s03_180_car_20_n04285008_8396.png
subject-03,1,309,1.14300394058228,elephant,elephant,270,0309_rot_s03_270_elephant_20_n02504458_9922.png
subject-03,1,310,1.00664210319519,knife,knife,90,0310_rot_s03_90_knife_20_n03041632_17859.png
subject-03,1,311,1.05674004554749,truck,truck,0,0311_rot_s03_0_truck_20_n03796401_1791.png
subject-03,1,312,0.838180065155029,airplane,airplane,90,0312_rot_s03_90_airplane_20_n02690373_4845.png
subject-03,1,313,1.02800107002258,chair,chair,180,0313_rot_s03_180_chair_20_n03376595_2103.png
subject-03,1,314,1.19801092147827,airplane,airplane,180,0314_rot_s03_180_airplane_20_n02690373_852.png
subject-03,1,315,1.0856499671936,bear,bear,0,0315_rot_s03_0_bear_20_n02132136_2791.png
subject-03,1,316,0.715440988540649,keyboard,keyboard,180,0316_rot_s03_180_keyboard_20_n03085013_25419.png
subject-03,1,317,1.36347603797913,car,boat,180,0317_rot_s03_180_boat_20_n03344393_1519.png
subject-03,1,318,1.413241147995,car,car,90,0318_rot_s03_90_car_20_n02814533_92229.png
subject-03,1,319,1.05080699920654,bird,bird,180,0319_rot_s03_180_bird_20_n01532829_37796.png
subject-03,1,320,1.40283203125,oven,keyboard,0,0320_rot_s03_0_keyboard_20_n03085013_7613.png
subject-03,1,321,0.763427019119263,bird,bird,180,0321_rot_s03_180_bird_20_n02009912_18708.png
subject-03,1,322,0.80525279045105,car,car,180,0322_rot_s03_180_car_20_n02814533_33360.png
subject-03,1,323,0.841444969177246,bottle,bottle,0,0323_rot_s03_0_bottle_20_n03983396_4313.png
subject-03,1,324,1.02684617042542,chair,chair,270,0324_rot_s03_270_chair_20_n04429376_44914.png
subject-03,1,325,1.08490014076233,dog,dog,0,0325_rot_s03_0_dog_20_n02107908_8891.png
subject-03,1,326,0.80268406867981,bicycle,bicycle,270,0326_rot_s03_270_bicycle_20_n03792782_29606.png
subject-03,1,327,0.784530878067017,boat,boat,270,0327_rot_s03_270_boat_20_n04273569_1495.png
subject-03,1,328,0.912606954574585,elephant,elephant,0,0328_rot_s03_0_elephant_20_n02504013_1333.png
subject-03,1,329,0.971946954727173,dog,dog,90,0329_rot_s03_90_dog_20_n02111277_2994.png
subject-03,1,330,0.806296825408936,bicycle,bicycle,0,0330_rot_s03_0_bicycle_20_n03792782_7105.png
subject-03,1,331,1.5001208782196,cat,truck,270,0331_rot_s03_270_truck_20_n04467665_3720.png
subject-03,1,332,0.827481985092163,keyboard,keyboard,90,0332_rot_s03_90_keyboard_20_n04505470_4943.png
subject-03,1,333,1.06127095222473,boat,boat,180,0333_rot_s03_180_boat_20_n03662601_1197.png
subject-03,1,334,0.984952926635742,dog,dog,0,0334_rot_s03_0_dog_20_n02101006_4807.png
subject-03,1,335,0.889056921005249,bird,bird,270,0335_rot_s03_270_bird_20_n01582220_6459.png
subject-03,1,336,0.828691959381104,knife,knife,180,0336_rot_s03_180_knife_20_n03041632_34505.png
subject-03,1,337,0.74850606918335,bear,bear,0,0337_rot_s03_0_bear_20_n02134418_517.png
subject-03,1,338,0.630635976791382,bicycle,bicycle,0,0338_rot_s03_0_bicycle_20_n02835271_10265.png
subject-03,1,339,0.932255029678345,bicycle,bicycle,270,0339_rot_s03_270_bicycle_20_n03792782_50904.png
subject-03,1,340,0.739851951599121,cat,cat,90,0340_rot_s03_90_cat_20_n02125311_2959.png
subject-03,1,341,0.793678998947144,car,car,0,0341_rot_s03_0_car_20_n02814533_79974.png
subject-03,1,342,1.01948595046997,bicycle,bicycle,270,0342_rot_s03_270_bicycle_20_n03792782_10129.png
subject-03,1,343,0.953307151794434,bottle,bottle,90,0343_rot_s03_90_bottle_20_n04560804_2693.png
subject-03,1,344,0.927206039428711,bird,bird,0,0344_rot_s03_0_bird_20_n01797886_2045.png
subject-03,1,345,0.947005033493042,elephant,elephant,180,0345_rot_s03_180_elephant_20_n02504013_10257.png
subject-03,1,346,0.930701017379761,bottle,bottle,270,0346_rot_s03_270_bottle_20_n04557648_581.png
subject-03,1,347,0.78466796875,oven,oven,90,0347_rot_s03_90_oven_20_n04111531_22291.png
subject-03,1,348,1.11845517158508,truck,truck,90,0348_rot_s03_90_truck_20_n04467665_64792.png
subject-03,1,349,1.01436591148376,airplane,airplane,90,0349_rot_s03_90_airplane_20_n02690373_7647.png
subject-03,1,350,0.720062971115112,chair,chair,0,0350_rot_s03_0_chair_20_n04099969_12707.png
subject-03,1,351,0.789972066879272,bottle,bottle,270,0351_rot_s03_270_bottle_20_n03983396_5497.png
subject-03,1,352,0.825659036636353,elephant,elephant,0,0352_rot_s03_0_elephant_20_n02504458_8621.png
subject-03,1,353,1.22346305847168,knife,cat,270,0353_rot_s03_270_cat_20_n02123394_4700.png
subject-03,1,354,0.767472982406616,airplane,airplane,270,0354_rot_s03_270_airplane_20_n02690373_9247.png
subject-03,1,355,0.641139984130859,boat,boat,180,0355_rot_s03_180_boat_20_n03662601_9140.png
subject-03,1,356,1.01128196716309,bird,bird,180,0356_rot_s03_180_bird_20_n01560419_19599.png
subject-03,1,357,1.09503293037415,bottle,bottle,180,0357_rot_s03_180_bottle_20_n04560804_15941.png
subject-03,1,358,0.936431169509888,truck,truck,270,0358_rot_s03_270_truck_20_n04467665_69882.png
subject-03,1,359,0.920447111129761,car,car,0,0359_rot_s03_0_car_20_n02814533_88986.png
subject-03,1,360,0.792192220687866,airplane,airplane,180,0360_rot_s03_180_airplane_20_n02690373_9441.png
subject-03,1,361,0.961987972259521,elephant,elephant,270,0361_rot_s03_270_elephant_20_n02504013_522.png
subject-03,1,362,0.766142129898071,cat,cat,270,0362_rot_s03_270_cat_20_n02123045_13025.png
subject-03,1,363,1.04174518585205,bird,bird,180,0363_rot_s03_180_bird_20_n01530575_7990.png
subject-03,1,364,0.977513074874878,airplane,airplane,90,0364_rot_s03_90_airplane_20_n02690373_10727.png
subject-03,1,365,1.16323614120483,dog,dog,0,0365_rot_s03_0_dog_20_n02102177_7968.png
subject-03,1,366,0.887162923812866,car,car,0,0366_rot_s03_0_car_20_n04285008_8281.png
subject-03,1,367,1.03324103355408,bird,bird,270,0367_rot_s03_270_bird_20_n01531178_4324.png
subject-03,1,368,0.982764005661011,knife,knife,0,0368_rot_s03_0_knife_20_n03041632_26314.png
subject-03,1,369,1.24658703804016,oven,chair,0,0369_rot_s03_0_chair_20_n04429376_1137.png
subject-03,1,370,0.650422096252441,boat,boat,90,0370_rot_s03_90_boat_20_n04612504_3286.png
subject-03,1,371,0.850090026855469,bottle,bottle,0,0371_rot_s03_0_bottle_20_n03937543_7357.png
subject-03,1,372,0.957921028137207,oven,oven,0,0372_rot_s03_0_oven_20_n04111531_11287.png
subject-03,1,373,0.89768385887146,airplane,airplane,0,0373_rot_s03_0_airplane_20_n02690373_8163.png
subject-03,1,374,0.911592960357666,bird,bird,0,0374_rot_s03_0_bird_20_n01817953_2043.png
subject-03,1,375,0.797464847564697,oven,oven,90,0375_rot_s03_90_oven_20_n04111531_9915.png
subject-03,1,376,1.24115180969238,oven,bottle,90,0376_rot_s03_90_bottle_20_n02823428_6252.png
subject-03,1,377,0.762892007827759,bicycle,bicycle,0,0377_rot_s03_0_bicycle_20_n02835271_12743.png
subject-03,1,378,1.19108486175537,bear,bear,180,0378_rot_s03_180_bear_20_n02132136_545.png
subject-03,1,379,1.22077894210815,knife,bottle,90,0379_rot_s03_90_bottle_20_n03937543_5619.png
subject-03,1,380,NaN,na,knife,0,0380_rot_s03_0_knife_20_n03041632_33225.png
subject-03,1,381,1.03416800498962,elephant,elephant,270,0381_rot_s03_270_elephant_20_n02504458_1893.png
subject-03,1,382,1.47824096679688,elephant,elephant,180,0382_rot_s03_180_elephant_20_n02504013_1078.png
subject-03,1,383,0.973901033401489,cat,cat,0,0383_rot_s03_0_cat_20_n02123159_2137.png
subject-03,1,384,0.807772159576416,cat,cat,90,0384_rot_s03_90_cat_20_n02123045_7294.png
subject-03,1,385,0.963551044464111,airplane,airplane,0,0385_rot_s03_0_airplane_20_n02690373_1306.png
subject-03,1,386,0.959257125854492,elephant,elephant,180,0386_rot_s03_180_elephant_20_n02504013_828.png
subject-03,1,387,0.981198072433472,knife,knife,90,0387_rot_s03_90_knife_20_n03041632_14817.png
subject-03,1,388,0.8128981590271,elephant,elephant,90,0388_rot_s03_90_elephant_20_n02504013_5636.png
subject-03,1,389,0.690609216690063,boat,boat,0,0389_rot_s03_0_boat_20_n02951358_13996.png
subject-03,1,390,0.744539022445679,clock,clock,90,0390_rot_s03_90_clock_20_n03196217_4578.png
subject-03,1,391,0.914312839508057,keyboard,keyboard,0,0391_rot_s03_0_keyboard_20_n04505470_7312.png
subject-03,1,392,1.23619914054871,cat,dog,180,0392_rot_s03_180_dog_20_n02109961_36163.png
subject-03,1,393,0.631941080093384,cat,cat,180,0393_rot_s03_180_cat_20_n02123045_5999.png
subject-03,1,394,1.24178194999695,cat,dog,90,0394_rot_s03_90_dog_20_n02090721_1002.png
subject-03,1,395,0.69591498374939,bicycle,bicycle,0,0395_rot_s03_0_bicycle_20_n02835271_30318.png
subject-03,1,396,0.725520133972168,car,car,90,0396_rot_s03_90_car_20_n02814533_34149.png
subject-03,1,397,0.817574977874756,oven,oven,180,0397_rot_s03_180_oven_20_n04111531_9712.png
subject-03,1,398,0.706975936889648,bicycle,bicycle,90,0398_rot_s03_90_bicycle_20_n02835271_1621.png
subject-03,1,399,1.12090086936951,oven,oven,180,0399_rot_s03_180_oven_20_n04111531_2795.png
subject-03,1,400,1.42268800735474,chair,clock,270,0400_rot_s03_270_clock_20_n03196217_2022.png
subject-03,1,401,1.03579998016357,knife,knife,90,0401_rot_s03_90_knife_20_n03041632_32774.png
subject-03,1,402,0.997674942016602,truck,truck,180,0402_rot_s03_180_truck_20_n03796401_4149.png
subject-03,1,403,0.71128511428833,keyboard,keyboard,270,0403_rot_s03_270_keyboard_20_n03085013_21444.png
subject-03,1,404,0.779173851013184,airplane,airplane,90,0404_rot_s03_90_airplane_20_n02690373_5534.png
subject-03,1,405,1.23942899703979,cat,dog,90,0405_rot_s03_90_dog_20_n02107683_3120.png
subject-03,1,406,0.741063117980957,knife,knife,270,0406_rot_s03_270_knife_20_n03041632_46112.png
subject-03,1,407,0.592755794525146,boat,boat,180,0407_rot_s03_180_boat_20_n03344393_7705.png
subject-03,1,408,0.812433958053589,knife,knife,0,0408_rot_s03_0_knife_20_n03041632_4279.png
subject-03,1,409,1.1045560836792,oven,oven,270,0409_rot_s03_270_oven_20_n04111531_13560.png
subject-03,1,410,0.564142942428589,cat,cat,180,0410_rot_s03_180_cat_20_n02123159_2285.png
subject-03,1,411,0.865870952606201,knife,knife,180,0411_rot_s03_180_knife_20_n03041632_33268.png
subject-03,1,412,0.975604772567749,car,car,270,0412_rot_s03_270_car_20_n02814533_38596.png
subject-03,1,413,0.62156081199646,boat,boat,0,0413_rot_s03_0_boat_20_n03662601_16495.png
subject-03,1,414,0.75157904624939,keyboard,keyboard,180,0414_rot_s03_180_keyboard_20_n03085013_20330.png
subject-03,1,415,1.00519800186157,cat,dog,180,0415_rot_s03_180_dog_20_n02097047_5605.png
subject-03,1,416,0.784958124160767,airplane,airplane,0,0416_rot_s03_0_airplane_20_n02690373_2070.png
subject-03,1,417,0.55718994140625,cat,cat,180,0417_rot_s03_180_cat_20_n02123045_3168.png
subject-03,1,418,1.13864088058472,cat,dog,90,0418_rot_s03_90_dog_20_n02108551_7945.png
subject-03,1,419,0.744758129119873,car,car,180,0419_rot_s03_180_car_20_n03100240_574.png
subject-03,1,420,0.610255002975464,clock,clock,270,0420_rot_s03_270_clock_20_n02708093_5577.png
subject-03,1,421,0.936497926712036,bear,bear,270,0421_rot_s03_270_bear_20_n02132136_15174.png
subject-03,1,422,1.04385304450989,bear,bear,90,0422_rot_s03_90_bear_20_n02133161_15177.png
subject-03,1,423,0.719549179077148,elephant,elephant,270,0423_rot_s03_270_elephant_20_n02504458_485.png
subject-03,1,424,0.717405080795288,cat,cat,180,0424_rot_s03_180_cat_20_n02125311_24586.png
subject-03,1,425,0.787156105041504,keyboard,keyboard,0,0425_rot_s03_0_keyboard_20_n04505470_4651.png
subject-03,1,426,0.997274160385132,oven,chair,180,0426_rot_s03_180_chair_20_n02791124_4369.png
subject-03,1,427,0.89308500289917,chair,chair,270,0427_rot_s03_270_chair_20_n04099969_42125.png
subject-03,1,428,0.586813926696777,cat,cat,90,0428_rot_s03_90_cat_20_n02123159_5678.png
subject-03,1,429,0.972714900970459,truck,truck,0,0429_rot_s03_0_truck_20_n03417042_6838.png
subject-03,1,430,0.758733034133911,bird,bird,270,0430_rot_s03_270_bird_20_n02028035_10744.png
subject-03,1,431,0.726298093795776,clock,clock,270,0431_rot_s03_270_clock_20_n04548280_4198.png
subject-03,1,432,0.918214082717896,bicycle,bicycle,90,0432_rot_s03_90_bicycle_20_n03792782_26383.png
subject-03,1,433,1.46948385238647,bird,oven,90,0433_rot_s03_90_oven_20_n04111531_6933.png
subject-03,1,434,0.889440059661865,bird,bird,0,0434_rot_s03_0_bird_20_n01797886_6169.png
subject-03,1,435,0.90339994430542,bird,bird,270,0435_rot_s03_270_bird_20_n01819313_17231.png
subject-03,1,436,0.653127908706665,boat,boat,90,0436_rot_s03_90_boat_20_n04273569_17255.png
subject-03,1,437,0.901108980178833,bird,bird,180,0437_rot_s03_180_bird_20_n01855672_15421.png
subject-03,1,438,0.966737031936646,knife,knife,270,0438_rot_s03_270_knife_20_n03041632_14916.png
subject-03,1,439,0.668539047241211,boat,boat,270,0439_rot_s03_270_boat_20_n03344393_11886.png
subject-03,1,440,0.806416988372803,bottle,bottle,0,0440_rot_s03_0_bottle_20_n02823428_3570.png
subject-03,1,441,1.50014185905457,cat,cat,0,0441_rot_s03_0_cat_20_n02123045_455.png
subject-03,1,442,0.620229005813599,clock,clock,90,0442_rot_s03_90_clock_20_n02708093_3394.png
subject-03,1,443,0.67791485786438,bicycle,bicycle,270,0443_rot_s03_270_bicycle_20_n03792782_9782.png
subject-03,1,444,1.01377487182617,bicycle,bicycle,0,0444_rot_s03_0_bicycle_20_n02835271_12984.png
subject-03,1,445,0.629476070404053,clock,clock,90,0445_rot_s03_90_clock_20_n02708093_2740.png
subject-03,1,446,1.04941296577454,elephant,elephant,0,0446_rot_s03_0_elephant_20_n02504458_1302.png
subject-03,1,447,1.17120790481567,clock,chair,90,0447_rot_s03_90_chair_20_n04429376_1754.png
subject-03,1,448,1.42123794555664,knife,knife,270,0448_rot_s03_270_knife_20_n03041632_7173.png
subject-03,1,449,0.78703498840332,bicycle,bicycle,180,0449_rot_s03_180_bicycle_20_n03792782_26168.png
subject-03,1,450,0.924654960632324,elephant,elephant,90,0450_rot_s03_90_elephant_20_n02504013_3861.png
subject-03,1,451,0.728405952453613,oven,oven,90,0451_rot_s03_90_oven_20_n04111531_4327.png
subject-03,1,452,0.860304117202759,truck,truck,90,0452_rot_s03_90_truck_20_n03417042_21946.png
subject-03,1,453,0.734208106994629,airplane,airplane,0,0453_rot_s03_0_airplane_20_n02690373_4029.png
subject-03,1,454,0.825885057449341,elephant,elephant,0,0454_rot_s03_0_elephant_20_n02504458_3628.png
subject-03,1,455,0.649646997451782,clock,clock,90,0455_rot_s03_90_clock_20_n04548280_5937.png
subject-03,1,456,0.779336929321289,elephant,elephant,270,0456_rot_s03_270_elephant_20_n02504013_4062.png
subject-03,1,457,0.897621870040894,truck,truck,90,0457_rot_s03_90_truck_20_n04467665_90715.png
subject-03,1,458,0.72689414024353,keyboard,keyboard,270,0458_rot_s03_270_keyboard_20_n03085013_22175.png
subject-03,1,459,0.856734991073608,knife,knife,90,0459_rot_s03_90_knife_20_n03041632_51339.png
subject-03,1,460,0.650747060775757,boat,boat,270,0460_rot_s03_270_boat_20_n03344393_9390.png
subject-03,1,461,1.05434894561768,knife,clock,180,0461_rot_s03_180_clock_20_n04548280_13750.png
subject-03,1,462,1.06241703033447,bicycle,bicycle,0,0462_rot_s03_0_bicycle_20_n03792782_3456.png
subject-03,1,463,0.776004791259766,cat,cat,0,0463_rot_s03_0_cat_20_n02123394_5301.png
subject-03,1,464,0.910017013549805,car,car,0,0464_rot_s03_0_car_20_n03100240_18679.png
subject-03,1,465,1.01772594451904,cat,cat,0,0465_rot_s03_0_cat_20_n02124075_7835.png
subject-03,1,466,0.891592025756836,bear,bear,180,0466_rot_s03_180_bear_20_n02132136_9703.png
subject-03,1,467,0.983273029327393,car,car,0,0467_rot_s03_0_car_20_n03100240_16084.png
subject-03,1,468,0.68127703666687,boat,boat,270,0468_rot_s03_270_boat_20_n04612504_17610.png
subject-03,1,469,0.734984874725342,keyboard,keyboard,90,0469_rot_s03_90_keyboard_20_n03085013_7317.png
subject-03,1,470,0.835003852844238,bottle,bottle,180,0470_rot_s03_180_bottle_20_n04557648_5790.png
subject-03,1,471,0.722885847091675,clock,clock,90,0471_rot_s03_90_clock_20_n04548280_4841.png
subject-03,1,472,0.596747159957886,cat,cat,90,0472_rot_s03_90_cat_20_n02123394_234.png
subject-03,1,473,0.766385078430176,car,car,270,0473_rot_s03_270_car_20_n03100240_7602.png
subject-03,1,474,0.726055860519409,car,car,0,0474_rot_s03_0_car_20_n02814533_70448.png
subject-03,1,475,1.09983205795288,dog,dog,270,0475_rot_s03_270_dog_20_n02113624_393.png
subject-03,1,476,0.839591026306152,keyboard,keyboard,0,0476_rot_s03_0_keyboard_20_n03085013_23834.png
subject-03,1,477,0.807363986968994,car,car,0,0477_rot_s03_0_car_20_n02814533_486.png
subject-03,1,478,1.14969301223755,clock,bottle,180,0478_rot_s03_180_bottle_20_n04560804_15267.png
subject-03,1,479,0.851155996322632,airplane,airplane,270,0479_rot_s03_270_airplane_20_n02690373_4434.png
subject-03,1,480,0.943114995956421,chair,chair,0,0480_rot_s03_0_chair_20_n03376595_3070.png
subject-03,1,481,0.684399127960205,cat,cat,90,0481_rot_s03_90_cat_20_n02123394_2964.png
subject-03,1,482,0.806277990341187,keyboard,keyboard,180,0482_rot_s03_180_keyboard_20_n03085013_22698.png
subject-03,1,483,0.812072038650513,keyboard,keyboard,270,0483_rot_s03_270_keyboard_20_n04505470_1416.png
subject-03,1,484,0.786026000976562,car,car,0,0484_rot_s03_0_car_20_n03100240_19550.png
subject-03,1,485,0.783782005310059,keyboard,keyboard,0,0485_rot_s03_0_keyboard_20_n04505470_1903.png
subject-03,1,486,1.03944611549377,knife,knife,0,0486_rot_s03_0_knife_20_n03041632_3781.png
subject-03,1,487,1.09139084815979,bear,airplane,180,0487_rot_s03_180_airplane_20_n02690373_5838.png
subject-03,1,488,0.995119094848633,dog,dog,0,0488_rot_s03_0_dog_20_n02106550_1763.png
subject-03,1,489,0.624955892562866,cat,cat,0,0489_rot_s03_0_cat_20_n02123597_2341.png
subject-03,1,490,1.01477599143982,elephant,elephant,180,0490_rot_s03_180_elephant_20_n02504013_2431.png
subject-03,1,491,0.86871600151062,bear,bear,270,0491_rot_s03_270_bear_20_n02133161_1247.png
subject-03,1,492,0.822474956512451,knife,knife,0,0492_rot_s03_0_knife_20_n03041632_25656.png
subject-03,1,493,1.00262689590454,boat,airplane,180,0493_rot_s03_180_airplane_20_n02690373_3588.png
subject-03,1,494,0.984185934066772,chair,chair,90,0494_rot_s03_90_chair_20_n02791124_1740.png
subject-03,1,495,0.675756216049194,airplane,airplane,90,0495_rot_s03_90_airplane_20_n02690373_8872.png
subject-03,1,496,1.15951895713806,dog,dog,270,0496_rot_s03_270_dog_20_n02092002_5845.png
subject-03,1,497,0.771299839019775,cat,cat,0,0497_rot_s03_0_cat_20_n02123394_3695.png
subject-03,1,498,0.871387004852295,chair,chair,270,0498_rot_s03_270_chair_20_n04099969_9243.png
subject-03,1,499,1.05939793586731,elephant,elephant,0,0499_rot_s03_0_elephant_20_n02504013_1370.png
subject-03,1,500,0.937251091003418,bicycle,bicycle,270,0500_rot_s03_270_bicycle_20_n02835271_4440.png
subject-03,1,501,1.38064694404602,knife,keyboard,0,0501_rot_s03_0_keyboard_20_n04505470_5046.png
subject-03,1,502,0.910794973373413,bottle,bottle,270,0502_rot_s03_270_bottle_20_n03983396_22816.png
subject-03,1,503,0.788487911224365,car,car,270,0503_rot_s03_270_car_20_n02814533_8042.png
subject-03,1,504,1.01826977729797,knife,oven,90,0504_rot_s03_90_oven_20_n04111531_1818.png
subject-03,1,505,0.741824150085449,keyboard,keyboard,180,0505_rot_s03_180_keyboard_20_n04505470_4473.png
subject-03,1,506,0.877878904342651,boat,boat,90,0506_rot_s03_90_boat_20_n04273569_12725.png
subject-03,1,507,0.939466953277588,bicycle,bicycle,270,0507_rot_s03_270_bicycle_20_n02835271_24104.png
subject-03,1,508,0.841817140579224,bottle,bottle,270,0508_rot_s03_270_bottle_20_n02823428_12656.png
subject-03,1,509,0.713212013244629,cat,cat,270,0509_rot_s03_270_cat_20_n02123597_2549.png
subject-03,1,510,1.10296702384949,dog,dog,180,0510_rot_s03_180_dog_20_n02101006_6694.png
subject-03,1,511,0.952903985977173,airplane,airplane,270,0511_rot_s03_270_airplane_20_n02690373_8746.png
subject-03,1,512,0.598580121994019,clock,clock,90,0512_rot_s03_90_clock_20_n02708093_3623.png
subject-03,1,513,1.34087109565735,oven,bird,270,0513_rot_s03_270_bird_20_n02006656_6435.png
subject-03,1,514,1.24428796768188,truck,truck,180,0514_rot_s03_180_truck_20_n04467665_9589.png
subject-03,1,515,0.847975015640259,dog,dog,0,0515_rot_s03_0_dog_20_n02104029_4770.png
subject-03,1,516,0.761971950531006,bottle,bottle,0,0516_rot_s03_0_bottle_20_n03983396_9823.png
subject-03,1,517,0.649806022644043,cat,cat,180,0517_rot_s03_180_cat_20_n02123159_5548.png
subject-03,1,518,0.755488872528076,chair,chair,0,0518_rot_s03_0_chair_20_n04099969_6431.png
subject-03,1,519,0.643527984619141,oven,oven,270,0519_rot_s03_270_oven_20_n04111531_6934.png
subject-03,1,520,0.981121063232422,boat,boat,270,0520_rot_s03_270_boat_20_n03662601_20059.png
subject-03,1,521,1.04087710380554,dog,dog,270,0521_rot_s03_270_dog_20_n02108551_1207.png
subject-03,1,522,0.825028896331787,bear,bear,90,0522_rot_s03_90_bear_20_n02132136_2691.png
subject-03,1,523,0.838414907455444,cat,cat,180,0523_rot_s03_180_cat_20_n02123159_630.png
subject-03,1,524,0.850291967391968,cat,cat,90,0524_rot_s03_90_cat_20_n02123394_2948.png
subject-03,1,525,0.620171070098877,clock,clock,180,0525_rot_s03_180_clock_20_n04548280_15154.png
subject-03,1,526,0.901937007904053,knife,knife,270,0526_rot_s03_270_knife_20_n03041632_18995.png
subject-03,1,527,0.74394702911377,oven,oven,180,0527_rot_s03_180_oven_20_n04111531_7067.png
subject-03,1,528,0.909653902053833,truck,truck,90,0528_rot_s03_90_truck_20_n04467665_8303.png
subject-03,1,529,0.729462146759033,cat,cat,180,0529_rot_s03_180_cat_20_n02123045_11787.png
subject-03,1,530,0.653224945068359,oven,oven,270,0530_rot_s03_270_oven_20_n04111531_6533.png
subject-03,1,531,0.906971216201782,bottle,dog,180,0531_rot_s03_180_dog_20_n02097658_3358.png
subject-03,1,532,0.930804014205933,elephant,elephant,270,0532_rot_s03_270_elephant_20_n02504013_6139.png
subject-03,1,533,0.795082092285156,bear,bear,180,0533_rot_s03_180_bear_20_n02134418_4458.png
subject-03,1,534,0.836392879486084,truck,truck,180,0534_rot_s03_180_truck_20_n04467665_69063.png
subject-03,1,535,0.67810583114624,cat,cat,270,0535_rot_s03_270_cat_20_n02124075_8889.png
subject-03,1,536,1.1060938835144,chair,chair,90,0536_rot_s03_90_chair_20_n02791124_2034.png
subject-03,1,537,0.948156118392944,cat,cat,180,0537_rot_s03_180_cat_20_n02123597_4805.png
subject-03,1,538,0.69190502166748,bicycle,bicycle,180,0538_rot_s03_180_bicycle_20_n03792782_70555.png
subject-03,1,539,0.799781084060669,bottle,bottle,90,0539_rot_s03_90_bottle_20_n04557648_15053.png
subject-03,1,540,0.7274329662323,clock,clock,270,0540_rot_s03_270_clock_20_n03196217_3600.png
subject-03,1,541,1.0230860710144,keyboard,keyboard,0,0541_rot_s03_0_keyboard_20_n03085013_23566.png
subject-03,1,542,0.926901817321777,oven,oven,180,0542_rot_s03_180_oven_20_n04111531_114.png
subject-03,1,543,0.680745840072632,bottle,bottle,180,0543_rot_s03_180_bottle_20_n03983396_10896.png
subject-03,1,544,0.688560962677002,bottle,bottle,90,0544_rot_s03_90_bottle_20_n03937543_4399.png
subject-03,1,545,0.944491863250732,bottle,bicycle,180,0545_rot_s03_180_bicycle_20_n02835271_24630.png
subject-03,1,546,0.934323072433472,dog,dog,90,0546_rot_s03_90_dog_20_n02088364_15877.png
subject-03,1,547,1.23016095161438,chair,bicycle,180,0547_rot_s03_180_bicycle_20_n03792782_15282.png
subject-03,1,548,1.50004506111145,clock,chair,270,0548_rot_s03_270_chair_20_n02791124_5561.png
subject-03,1,549,1.13397002220154,knife,knife,270,0549_rot_s03_270_knife_20_n03041632_50034.png
subject-03,1,550,0.963517189025879,bird,bird,180,0550_rot_s03_180_bird_20_n01616318_1164.png
subject-03,1,551,0.835614919662476,knife,knife,0,0551_rot_s03_0_knife_20_n03041632_9488.png
subject-03,1,552,0.623334884643555,oven,oven,90,0552_rot_s03_90_oven_20_n04111531_12980.png
subject-03,1,553,1.40483117103577,bottle,oven,270,0553_rot_s03_270_oven_20_n04111531_8421.png
subject-03,1,554,0.67463207244873,boat,boat,0,0554_rot_s03_0_boat_20_n03344393_9251.png
subject-03,1,555,0.786699056625366,knife,knife,180,0555_rot_s03_180_knife_20_n03041632_2630.png
subject-03,1,556,0.566339015960693,clock,clock,180,0556_rot_s03_180_clock_20_n02708093_906.png
subject-03,1,557,0.816129922866821,airplane,airplane,180,0557_rot_s03_180_airplane_20_n02690373_6602.png
subject-03,1,558,0.977851152420044,keyboard,keyboard,270,0558_rot_s03_270_keyboard_20_n03085013_13083.png
subject-03,1,559,0.753743171691895,keyboard,keyboard,0,0559_rot_s03_0_keyboard_20_n04505470_10055.png
subject-03,1,560,0.901476144790649,chair,chair,0,0560_rot_s03_0_chair_20_n03376595_19165.png
subject-03,1,561,0.621855974197388,boat,boat,90,0561_rot_s03_90_boat_20_n03344393_4773.png
subject-03,1,562,1.08522820472717,cat,bird,0,0562_rot_s03_0_bird_20_n01817953_141.png
subject-03,1,563,0.60501503944397,clock,clock,0,0563_rot_s03_0_clock_20_n02708093_1897.png
subject-03,1,564,0.711206912994385,keyboard,keyboard,0,0564_rot_s03_0_keyboard_20_n04505470_1067.png
subject-03,1,565,0.869046926498413,cat,cat,90,0565_rot_s03_90_cat_20_n02125311_59332.png
subject-03,1,566,1.01660799980164,keyboard,keyboard,180,0566_rot_s03_180_keyboard_20_n03085013_20960.png
subject-03,1,567,0.772563219070435,bottle,bottle,180,0567_rot_s03_180_bottle_20_n03983396_704.png
subject-03,1,568,0.914237976074219,bird,bird,0,0568_rot_s03_0_bird_20_n01592084_2639.png
subject-03,1,569,1.08188986778259,car,car,90,0569_rot_s03_90_car_20_n02814533_31743.png
subject-03,1,570,0.721730947494507,bear,bear,90,0570_rot_s03_90_bear_20_n02132136_14056.png
subject-03,1,571,0.767751932144165,knife,knife,270,0571_rot_s03_270_knife_20_n03041632_7205.png
subject-03,1,572,0.993571996688843,boat,boat,270,0572_rot_s03_270_boat_20_n03662601_12969.png
subject-03,1,573,0.623233079910278,boat,boat,180,0573_rot_s03_180_boat_20_n04273569_7818.png
subject-03,1,574,1.18102693557739,bicycle,oven,90,0574_rot_s03_90_oven_20_n04111531_8988.png
subject-03,1,575,1.26681900024414,chair,chair,180,0575_rot_s03_180_chair_20_n04099969_3485.png
subject-03,1,576,0.818952083587646,car,car,180,0576_rot_s03_180_car_20_n03100240_1703.png
subject-03,1,577,0.712570905685425,cat,cat,270,0577_rot_s03_270_cat_20_n02124075_11727.png
subject-03,1,578,0.890398025512695,bottle,bottle,270,0578_rot_s03_270_bottle_20_n04557648_16525.png
subject-03,1,579,0.912029027938843,elephant,elephant,0,0579_rot_s03_0_elephant_20_n02504458_3458.png
subject-03,1,580,0.940261840820312,bear,bear,180,0580_rot_s03_180_bear_20_n02134418_200.png
subject-03,1,581,0.681870937347412,chair,chair,180,0581_rot_s03_180_chair_20_n03376595_4937.png
subject-03,1,582,0.835517168045044,car,car,270,0582_rot_s03_270_car_20_n04285008_12504.png
subject-03,1,583,0.88932204246521,elephant,elephant,90,0583_rot_s03_90_elephant_20_n02504013_565.png
subject-03,1,584,0.881510972976685,knife,knife,90,0584_rot_s03_90_knife_20_n03041632_7448.png
subject-03,1,585,0.88294792175293,bottle,bottle,270,0585_rot_s03_270_bottle_20_n04560804_6329.png
subject-03,1,586,0.856719017028809,elephant,elephant,180,0586_rot_s03_180_elephant_20_n02504013_5035.png
subject-03,1,587,0.84853196144104,dog,dog,270,0587_rot_s03_270_dog_20_n02104365_1756.png
subject-03,1,588,0.80029296875,bottle,bottle,270,0588_rot_s03_270_bottle_20_n04579145_631.png
subject-03,1,589,1.50015902519226,bear,bird,0,0589_rot_s03_0_bird_20_n02027492_7653.png
subject-03,1,590,0.697951078414917,boat,airplane,270,0590_rot_s03_270_airplane_20_n02690373_9346.png
subject-03,1,591,0.961802959442139,clock,clock,90,0591_rot_s03_90_clock_20_n02708093_2676.png
subject-03,1,592,1.23603987693787,bird,bird,90,0592_rot_s03_90_bird_20_n01817953_6970.png
subject-03,1,593,1.48360586166382,bird,bottle,90,0593_rot_s03_90_bottle_20_n04560804_13583.png
subject-03,1,594,0.793370962142944,elephant,elephant,90,0594_rot_s03_90_elephant_20_n02504013_4379.png
subject-03,1,595,1.06319189071655,airplane,airplane,90,0595_rot_s03_90_airplane_20_n02690373_4714.png
subject-03,1,596,0.596951007843018,boat,boat,90,0596_rot_s03_90_boat_20_n04273569_7097.png
subject-03,1,597,0.906703948974609,car,car,90,0597_rot_s03_90_car_20_n02814533_5916.png
subject-03,1,598,0.78053092956543,bicycle,bicycle,180,0598_rot_s03_180_bicycle_20_n02835271_6742.png
subject-03,1,599,1.17030596733093,dog,dog,0,0599_rot_s03_0_dog_20_n02087394_9061.png
subject-03,1,600,1.05218315124512,oven,oven,90,0600_rot_s03_90_oven_20_n04111531_9611.png
subject-03,1,601,0.854120016098022,bottle,bottle,90,0601_rot_s03_90_bottle_20_n02823428_10417.png
subject-03,1,602,0.889930009841919,clock,clock,180,0602_rot_s03_180_clock_20_n03196217_1271.png
subject-03,1,603,0.583699941635132,clock,clock,270,0603_rot_s03_270_clock_20_n02708093_3841.png
subject-03,1,604,0.801452159881592,bicycle,bicycle,90,0604_rot_s03_90_bicycle_20_n03792782_42978.png
subject-03,1,605,1.44118499755859,chair,knife,270,0605_rot_s03_270_knife_20_n03041632_17100.png
subject-03,1,606,1.01701903343201,knife,knife,270,0606_rot_s03_270_knife_20_n03041632_737.png
subject-03,1,607,0.902712106704712,bear,bear,0,0607_rot_s03_0_bear_20_n02133161_4218.png
subject-03,1,608,1.07275915145874,keyboard,keyboard,270,0608_rot_s03_270_keyboard_20_n03085013_7382.png
subject-03,1,609,0.92251181602478,car,car,90,0609_rot_s03_90_car_20_n04285008_8641.png
subject-03,1,610,0.826359033584595,bird,bird,0,0610_rot_s03_0_bird_20_n01534433_1227.png
subject-03,1,611,1.37410187721252,oven,chair,180,0611_rot_s03_180_chair_20_n02791124_3923.png
subject-03,1,612,0.738489151000977,boat,boat,0,0612_rot_s03_0_boat_20_n02951358_14966.png
subject-03,1,613,0.585927963256836,clock,clock,0,0613_rot_s03_0_clock_20_n03196217_4254.png
subject-03,1,614,0.913404941558838,car,car,90,0614_rot_s03_90_car_20_n02814533_71641.png
subject-03,1,615,1.01329183578491,truck,truck,270,0615_rot_s03_270_truck_20_n03796401_7455.png
subject-03,1,616,0.867393016815186,keyboard,keyboard,270,0616_rot_s03_270_keyboard_20_n03085013_24385.png
subject-03,1,617,0.919023990631104,truck,truck,180,0617_rot_s03_180_truck_20_n04467665_22637.png
subject-03,1,618,0.878881931304932,cat,cat,180,0618_rot_s03_180_cat_20_n02123045_909.png
subject-03,1,619,0.845080137252808,elephant,elephant,90,0619_rot_s03_90_elephant_20_n02504458_12090.png
subject-03,1,620,0.656586885452271,bear,bear,180,0620_rot_s03_180_bear_20_n02133161_4393.png
subject-03,1,621,0.998316049575806,truck,truck,270,0621_rot_s03_270_truck_20_n04467665_70509.png
subject-03,1,622,1.21397805213928,knife,knife,270,0622_rot_s03_270_knife_20_n03041632_31367.png
subject-03,1,623,1.16377711296082,chair,chair,270,0623_rot_s03_270_chair_20_n04099969_16.png
subject-03,1,624,0.897641897201538,bird,bird,0,0624_rot_s03_0_bird_20_n02033041_3924.png
subject-03,1,625,0.943516969680786,bird,bird,0,0625_rot_s03_0_bird_20_n01855672_8191.png
subject-03,1,626,0.977478981018066,elephant,elephant,90,0626_rot_s03_90_elephant_20_n02504458_5759.png
subject-03,1,627,1.50000691413879,bear,elephant,270,0627_rot_s03_270_elephant_20_n02504013_4762.png
subject-03,1,628,0.998778104782104,dog,dog,0,0628_rot_s03_0_dog_20_n02109525_7478.png
subject-03,1,629,0.756710052490234,bicycle,bicycle,0,0629_rot_s03_0_bicycle_20_n02835271_9310.png
subject-03,1,630,1.09096503257751,bicycle,bicycle,180,0630_rot_s03_180_bicycle_20_n03792782_6030.png
subject-03,1,631,0.736238956451416,boat,boat,0,0631_rot_s03_0_boat_20_n03662601_28640.png
subject-03,1,632,0.860181093215942,keyboard,keyboard,180,0632_rot_s03_180_keyboard_20_n04505470_3566.png
subject-03,1,633,0.959916114807129,bear,bear,0,0633_rot_s03_0_bear_20_n02134418_2398.png
subject-03,1,634,0.761754035949707,bottle,bottle,90,0634_rot_s03_90_bottle_20_n03937543_5257.png
subject-03,1,635,0.827512979507446,chair,chair,0,0635_rot_s03_0_chair_20_n04099969_17087.png
subject-03,1,636,1.35948610305786,bicycle,elephant,180,0636_rot_s03_180_elephant_20_n02504458_5641.png
subject-03,1,637,1.05925011634827,chair,chair,180,0637_rot_s03_180_chair_20_n03376595_6799.png
subject-03,1,638,0.775047063827515,bear,bear,0,0638_rot_s03_0_bear_20_n02132136_10385.png
subject-03,1,639,0.743021011352539,bear,bear,180,0639_rot_s03_180_bear_20_n02133161_3896.png
subject-03,1,640,1.01679921150208,bicycle,bicycle,270,0640_rot_s03_270_bicycle_20_n03792782_52601.png
subject-03,1,641,0.759828090667725,clock,clock,0,0641_rot_s03_0_clock_20_n02708093_2012.png
subject-03,1,642,0.893598079681396,bicycle,bicycle,180,0642_rot_s03_180_bicycle_20_n03792782_1173.png
subject-03,1,643,0.781435012817383,airplane,airplane,180,0643_rot_s03_180_airplane_20_n02690373_6332.png
subject-03,1,644,0.835247993469238,bicycle,bicycle,180,0644_rot_s03_180_bicycle_20_n02835271_18706.png
subject-03,1,645,1.11315608024597,elephant,elephant,270,0645_rot_s03_270_elephant_20_n02504013_5173.png
subject-03,1,646,0.672758102416992,boat,boat,90,0646_rot_s03_90_boat_20_n03662601_3893.png
subject-03,1,647,0.842644929885864,car,car,0,0647_rot_s03_0_car_20_n03100240_24420.png
subject-03,1,648,1.01452684402466,bird,bird,180,0648_rot_s03_180_bird_20_n01514859_18430.png
subject-03,1,649,0.856210947036743,knife,knife,180,0649_rot_s03_180_knife_20_n03041632_43634.png
subject-03,1,650,0.808052062988281,bird,bird,0,0650_rot_s03_0_bird_20_n01531178_3183.png
subject-03,1,651,0.878007888793945,airplane,airplane,0,0651_rot_s03_0_airplane_20_n02690373_9829.png
subject-03,1,652,1.00167894363403,elephant,bear,180,0652_rot_s03_180_bear_20_n02132136_4512.png
subject-03,1,653,1.01563501358032,truck,truck,270,0653_rot_s03_270_truck_20_n03417042_2153.png
subject-03,1,654,0.879305124282837,bottle,bottle,180,0654_rot_s03_180_bottle_20_n03983396_5883.png
subject-03,1,655,1.00917601585388,cat,cat,90,0655_rot_s03_90_cat_20_n02125311_41284.png
subject-03,1,656,0.779114007949829,oven,oven,180,0656_rot_s03_180_oven_20_n04111531_4939.png
subject-03,1,657,0.964826822280884,truck,truck,270,0657_rot_s03_270_truck_20_n04467665_5275.png
subject-03,1,658,0.866631984710693,bicycle,bicycle,270,0658_rot_s03_270_bicycle_20_n03792782_28970.png
subject-03,1,659,1.13670516014099,oven,oven,0,0659_rot_s03_0_oven_20_n04111531_6204.png
subject-03,1,660,0.950222969055176,bear,bear,180,0660_rot_s03_180_bear_20_n02133161_2741.png
subject-03,1,661,0.863913774490356,keyboard,keyboard,270,0661_rot_s03_270_keyboard_20_n03085013_19054.png
subject-03,1,662,1.28383302688599,truck,truck,270,0662_rot_s03_270_truck_20_n03417042_18745.png
subject-03,1,663,1.00187301635742,bear,bear,90,0663_rot_s03_90_bear_20_n02134418_2661.png
subject-03,1,664,0.65563702583313,clock,clock,90,0664_rot_s03_90_clock_20_n03196217_6707.png
subject-03,1,665,0.803209066390991,oven,oven,90,0665_rot_s03_90_oven_20_n04111531_5216.png
subject-03,1,666,1.50006008148193,clock,knife,180,0666_rot_s03_180_knife_20_n03041632_101810.png
subject-03,1,667,0.686942100524902,cat,cat,270,0667_rot_s03_270_cat_20_n02124075_10542.png
subject-03,1,668,0.990648984909058,bicycle,bicycle,270,0668_rot_s03_270_bicycle_20_n03792782_12844.png
subject-03,1,669,0.966638088226318,oven,bottle,180,0669_rot_s03_180_bottle_20_n03983396_9667.png
subject-03,1,670,1.37217903137207,clock,clock,0,0670_rot_s03_0_clock_20_n04548280_4582.png
subject-03,1,671,0.940099000930786,bear,bear,180,0671_rot_s03_180_bear_20_n02132136_8650.png
subject-03,1,672,0.924268007278442,bicycle,bicycle,270,0672_rot_s03_270_bicycle_20_n03792782_18308.png
subject-03,1,673,1.28177404403687,dog,dog,270,0673_rot_s03_270_dog_20_n02109047_66167.png
subject-03,1,674,0.975790023803711,bottle,bottle,180,0674_rot_s03_180_bottle_20_n03983396_2002.png
subject-03,1,675,1.04154014587402,bicycle,bicycle,270,0675_rot_s03_270_bicycle_20_n03792782_40932.png
subject-03,1,676,1.21923899650574,bear,bird,90,0676_rot_s03_90_bird_20_n02025239_17065.png
subject-03,1,677,NaN,na,boat,270,0677_rot_s03_270_boat_20_n02951358_11442.png
subject-03,1,678,0.832647085189819,knife,knife,180,0678_rot_s03_180_knife_20_n03041632_41310.png
subject-03,1,679,0.978777885437012,clock,clock,90,0679_rot_s03_90_clock_20_n04548280_1947.png
subject-03,1,680,1.11050796508789,keyboard,keyboard,90,0680_rot_s03_90_keyboard_20_n03085013_22665.png
subject-03,1,681,0.904352188110352,airplane,airplane,90,0681_rot_s03_90_airplane_20_n02690373_4024.png
subject-03,1,682,1.20015501976013,bear,dog,180,0682_rot_s03_180_dog_20_n02107908_2754.png
subject-03,1,683,0.93776798248291,dog,dog,180,0683_rot_s03_180_dog_20_n02087394_9693.png
subject-03,1,684,1.26968908309937,truck,truck,270,0684_rot_s03_270_truck_20_n03417042_9967.png
subject-03,1,685,1.31388401985168,truck,truck,90,0685_rot_s03_90_truck_20_n04467665_71055.png
subject-03,1,686,1.13783693313599,oven,oven,0,0686_rot_s03_0_oven_20_n04111531_22517.png
subject-03,1,687,0.745144844055176,cat,cat,270,0687_rot_s03_270_cat_20_n02124075_2986.png
subject-03,1,688,0.852940082550049,clock,clock,0,0688_rot_s03_0_clock_20_n04548280_1305.png
subject-03,1,689,0.952669858932495,oven,oven,90,0689_rot_s03_90_oven_20_n04111531_2618.png
subject-03,1,690,0.732980012893677,boat,boat,270,0690_rot_s03_270_boat_20_n02951358_4937.png
subject-03,1,691,0.846423149108887,knife,knife,270,0691_rot_s03_270_knife_20_n03041632_424.png
subject-03,1,692,1.32825112342834,truck,truck,90,0692_rot_s03_90_truck_20_n03796401_13226.png
subject-03,1,693,0.896136999130249,cat,cat,90,0693_rot_s03_90_cat_20_n02125311_18552.png
subject-03,1,694,0.817936897277832,cat,cat,180,0694_rot_s03_180_cat_20_n02123394_2059.png
subject-03,1,695,0.917764902114868,truck,truck,0,0695_rot_s03_0_truck_20_n03417042_22196.png
subject-03,1,696,0.891193151473999,bicycle,bicycle,180,0696_rot_s03_180_bicycle_20_n02835271_2131.png
subject-03,1,697,0.937178134918213,car,car,180,0697_rot_s03_180_car_20_n03100240_8489.png
subject-03,1,698,1.06903505325317,bear,bear,0,0698_rot_s03_0_bear_20_n02132136_1386.png
subject-03,1,699,1.15500497817993,bicycle,bicycle,0,0699_rot_s03_0_bicycle_20_n02835271_18188.png
subject-03,1,700,0.722548007965088,boat,boat,90,0700_rot_s03_90_boat_20_n04273569_17340.png
subject-03,1,701,0.846513032913208,bird,bird,180,0701_rot_s03_180_bird_20_n02018795_16942.png
subject-03,1,702,0.798275947570801,car,car,0,0702_rot_s03_0_car_20_n02814533_52605.png
subject-03,1,703,1.20807290077209,knife,bottle,180,0703_rot_s03_180_bottle_20_n04557648_1871.png
subject-03,1,704,1.04188108444214,truck,truck,90,0704_rot_s03_90_truck_20_n03417042_28078.png
subject-03,1,705,1.00983190536499,boat,boat,90,0705_rot_s03_90_boat_20_n04612504_30766.png
subject-03,1,706,1.13372588157654,dog,dog,180,0706_rot_s03_180_dog_20_n02093754_918.png
subject-03,1,707,1.05328893661499,chair,chair,270,0707_rot_s03_270_chair_20_n02791124_4412.png
subject-03,1,708,0.943157911300659,bicycle,bicycle,270,0708_rot_s03_270_bicycle_20_n02835271_7900.png
subject-03,1,709,0.972986936569214,elephant,elephant,270,0709_rot_s03_270_elephant_20_n02504013_13512.png
subject-03,1,710,0.990794897079468,elephant,elephant,0,0710_rot_s03_0_elephant_20_n02504013_6999.png
subject-03,1,711,0.668495893478394,boat,boat,180,0711_rot_s03_180_boat_20_n04612504_14176.png
subject-03,1,712,0.784478902816772,car,car,90,0712_rot_s03_90_car_20_n04285008_12737.png
subject-03,1,713,0.916200160980225,clock,clock,0,0713_rot_s03_0_clock_20_n03196217_1255.png
subject-03,1,714,0.985985994338989,elephant,elephant,180,0714_rot_s03_180_elephant_20_n02504013_1644.png
subject-03,1,715,1.31420803070068,keyboard,keyboard,0,0715_rot_s03_0_keyboard_20_n03085013_3795.png
subject-03,1,716,0.647637844085693,clock,clock,90,0716_rot_s03_90_clock_20_n04548280_3531.png
subject-03,1,717,0.853819847106934,bicycle,bicycle,90,0717_rot_s03_90_bicycle_20_n02835271_3308.png
subject-03,1,718,1.00358104705811,car,car,180,0718_rot_s03_180_car_20_n03100240_4288.png
subject-03,1,719,1.20515489578247,chair,cat,0,0719_rot_s03_0_cat_20_n02123159_3420.png
subject-03,1,720,1.49310111999512,keyboard,truck,270,0720_rot_s03_270_truck_20_n03796401_6346.png
subject-03,1,721,1.13365793228149,truck,truck,180,0721_rot_s03_180_truck_20_n03796401_22323.png
subject-03,1,722,1.28560495376587,clock,car,270,0722_rot_s03_270_car_20_n03100240_7085.png
subject-03,1,723,0.675267934799194,boat,boat,90,0723_rot_s03_90_boat_20_n04273569_19314.png
subject-03,1,724,0.627049207687378,boat,boat,270,0724_rot_s03_270_boat_20_n02951358_1362.png
subject-03,1,725,1.04108309745789,bird,bird,180,0725_rot_s03_180_bird_20_n01560419_17392.png
subject-03,1,726,0.690965890884399,airplane,airplane,90,0726_rot_s03_90_airplane_20_n02690373_5748.png
subject-03,1,727,0.830598831176758,airplane,airplane,90,0727_rot_s03_90_airplane_20_n02690373_2675.png
subject-03,1,728,0.752388000488281,airplane,airplane,90,0728_rot_s03_90_airplane_20_n02690373_2856.png
subject-03,1,729,0.718229055404663,boat,boat,180,0729_rot_s03_180_boat_20_n04273569_29113.png
subject-03,1,730,1.34397602081299,dog,bear,90,0730_rot_s03_90_bear_20_n02134418_5071.png
subject-03,1,731,0.829872131347656,truck,truck,180,0731_rot_s03_180_truck_20_n03796401_26894.png
subject-03,1,732,1.10951280593872,bear,bear,270,0732_rot_s03_270_bear_20_n02132136_3207.png
subject-03,1,733,0.823495864868164,car,car,0,0733_rot_s03_0_car_20_n02814533_40531.png
subject-03,1,734,0.995210886001587,oven,oven,180,0734_rot_s03_180_oven_20_n04111531_13906.png
subject-03,1,735,0.805015087127686,bottle,bottle,270,0735_rot_s03_270_bottle_20_n04591713_2123.png
subject-03,1,736,1.05683398246765,bottle,bottle,270,0736_rot_s03_270_bottle_20_n04560804_11386.png
subject-03,1,737,0.795030117034912,bear,bear,180,0737_rot_s03_180_bear_20_n02132136_7468.png
subject-03,1,738,1.08873987197876,keyboard,keyboard,270,0738_rot_s03_270_keyboard_20_n03085013_23109.png
subject-03,1,739,0.848160028457642,bird,bird,90,0739_rot_s03_90_bird_20_n02002556_5890.png
subject-03,1,740,1.22403311729431,bird,bird,270,0740_rot_s03_270_bird_20_n02018207_7930.png
subject-03,1,741,0.891975164413452,airplane,airplane,270,0741_rot_s03_270_airplane_20_n02690373_8876.png
subject-03,1,742,1.10603809356689,elephant,elephant,0,0742_rot_s03_0_elephant_20_n02504458_6119.png
subject-03,1,743,1.03965878486633,oven,oven,270,0743_rot_s03_270_oven_20_n04111531_10722.png
subject-03,1,744,0.9792640209198,truck,truck,0,0744_rot_s03_0_truck_20_n03417042_15196.png
subject-03,1,745,1.07309103012085,elephant,elephant,0,0745_rot_s03_0_elephant_20_n02504458_151.png
subject-03,1,746,1.04087805747986,bottle,bottle,180,0746_rot_s03_180_bottle_20_n04557648_4242.png
subject-03,1,747,0.820727109909058,bear,bear,90,0747_rot_s03_90_bear_20_n02134418_4365.png
subject-03,1,748,0.784690141677856,bottle,bottle,90,0748_rot_s03_90_bottle_20_n03983396_5452.png
subject-03,1,749,1.17270803451538,clock,chair,0,0749_rot_s03_0_chair_20_n04429376_17343.png
subject-03,1,750,1.21026992797852,cat,cat,90,0750_rot_s03_90_cat_20_n02125311_1896.png
subject-03,1,751,0.871860027313232,chair,chair,90,0751_rot_s03_90_chair_20_n04099969_2561.png
subject-03,1,752,0.597919940948486,clock,clock,90,0752_rot_s03_90_clock_20_n04548280_18914.png
subject-03,1,753,0.939555883407593,keyboard,keyboard,0,0753_rot_s03_0_keyboard_20_n03085013_24103.png
subject-03,1,754,1.19553804397583,cat,oven,90,0754_rot_s03_90_oven_20_n04111531_11157.png
subject-03,1,755,0.569189071655273,clock,clock,90,0755_rot_s03_90_clock_20_n02708093_1986.png
subject-03,1,756,0.897073984146118,bird,bird,180,0756_rot_s03_180_bird_20_n01601694_19236.png
subject-03,1,757,0.94501805305481,bicycle,bicycle,180,0757_rot_s03_180_bicycle_20_n02835271_24.png
subject-03,1,758,1.02915096282959,knife,knife,0,0758_rot_s03_0_knife_20_n03041632_54191.png
subject-03,1,759,1.23078012466431,keyboard,keyboard,0,0759_rot_s03_0_keyboard_20_n04505470_4619.png
subject-03,1,760,1.06839394569397,dog,dog,90,0760_rot_s03_90_dog_20_n02100877_7302.png
subject-03,1,761,0.806457042694092,bicycle,bicycle,270,0761_rot_s03_270_bicycle_20_n02835271_22206.png
subject-03,1,762,0.788141965866089,boat,boat,0,0762_rot_s03_0_boat_20_n03344393_6297.png
subject-03,1,763,1.13167214393616,bird,cat,270,0763_rot_s03_270_cat_20_n02123159_7369.png
subject-03,1,764,0.847529172897339,boat,dog,270,0764_rot_s03_270_dog_20_n02097658_722.png
subject-03,1,765,0.801261901855469,keyboard,keyboard,90,0765_rot_s03_90_keyboard_20_n03085013_22704.png
subject-03,1,766,1.50013709068298,knife,bear,180,0766_rot_s03_180_bear_20_n02134418_2122.png
subject-03,1,767,1.21884703636169,oven,truck,0,0767_rot_s03_0_truck_20_n04467665_84527.png
subject-03,1,768,1.07692909240723,chair,chair,270,0768_rot_s03_270_chair_20_n02791124_3710.png
subject-03,1,769,0.798637866973877,cat,cat,90,0769_rot_s03_90_cat_20_n02124075_14998.png
subject-03,1,770,0.854628086090088,bird,bird,270,0770_rot_s03_270_bird_20_n01843383_9985.png
subject-03,1,771,0.858298063278198,cat,cat,270,0771_rot_s03_270_cat_20_n02123597_2219.png
subject-03,1,772,1.01806306838989,bird,bird,180,0772_rot_s03_180_bird_20_n02017213_4781.png
subject-03,1,773,1.19018912315369,truck,truck,90,0773_rot_s03_90_truck_20_n03417042_11166.png
subject-03,1,774,1.03205513954163,truck,oven,180,0774_rot_s03_180_oven_20_n04111531_9779.png
subject-03,1,775,1.09352612495422,boat,bicycle,180,0775_rot_s03_180_bicycle_20_n03792782_14413.png
subject-03,1,776,0.647301197052002,cat,cat,270,0776_rot_s03_270_cat_20_n02123597_5927.png
subject-03,1,777,1.15918588638306,dog,dog,270,0777_rot_s03_270_dog_20_n02105251_1092.png
subject-03,1,778,1.22104382514954,bird,oven,0,0778_rot_s03_0_oven_20_n04111531_21248.png
subject-03,1,779,0.688942909240723,clock,clock,270,0779_rot_s03_270_clock_20_n03196217_8887.png
subject-03,1,780,0.662448883056641,oven,oven,270,0780_rot_s03_270_oven_20_n04111531_9429.png
subject-03,1,781,1.23441505432129,dog,dog,90,0781_rot_s03_90_dog_20_n02095570_11263.png
subject-03,1,782,0.648305892944336,oven,oven,180,0782_rot_s03_180_oven_20_n04111531_13644.png
subject-03,1,783,0.625934839248657,cat,cat,270,0783_rot_s03_270_cat_20_n02123159_5939.png
subject-03,1,784,1.28591918945312,clock,keyboard,0,0784_rot_s03_0_keyboard_20_n03085013_22217.png
subject-03,1,785,0.76954197883606,oven,oven,180,0785_rot_s03_180_oven_20_n04111531_14488.png
subject-03,1,786,0.749308109283447,oven,chair,90,0786_rot_s03_90_chair_20_n04429376_19916.png
subject-03,1,787,0.893159151077271,car,car,270,0787_rot_s03_270_car_20_n03100240_5946.png
subject-03,1,788,0.965097904205322,car,car,90,0788_rot_s03_90_car_20_n04285008_8102.png
subject-03,1,789,0.688977956771851,clock,clock,270,0789_rot_s03_270_clock_20_n04548280_8552.png
subject-03,1,790,0.850762128829956,bottle,bottle,0,0790_rot_s03_0_bottle_20_n04591713_2903.png
subject-03,1,791,0.922601938247681,keyboard,keyboard,270,0791_rot_s03_270_keyboard_20_n03085013_24228.png
subject-03,1,792,1.12438893318176,chair,chair,0,0792_rot_s03_0_chair_20_n04099969_5010.png
subject-03,1,793,0.886170864105225,knife,knife,90,0793_rot_s03_90_knife_20_n03041632_26710.png
subject-03,1,794,0.659883975982666,boat,bear,270,0794_rot_s03_270_bear_20_n02134418_1388.png
subject-03,1,795,1.23571801185608,car,car,90,0795_rot_s03_90_car_20_n02814533_479.png
subject-03,1,796,1.33351802825928,bear,bear,90,0796_rot_s03_90_bear_20_n02134418_998.png
subject-03,1,797,0.79941987991333,airplane,airplane,90,0797_rot_s03_90_airplane_20_n02690373_19345.png
subject-03,1,798,1.08521890640259,bear,bear,90,0798_rot_s03_90_bear_20_n02134418_5783.png
subject-03,1,799,0.733067035675049,oven,oven,90,0799_rot_s03_90_oven_20_n04111531_21055.png
subject-03,1,800,1.0528199672699,bottle,bottle,0,0800_rot_s03_0_bottle_20_n03937543_11959.png
subject-03,1,801,0.800493001937866,car,car,0,0801_rot_s03_0_car_20_n02814533_37256.png
subject-03,1,802,1.05798006057739,oven,oven,0,0802_rot_s03_0_oven_20_n04111531_1230.png
subject-03,1,803,1.07977819442749,chair,truck,0,0803_rot_s03_0_truck_20_n03417042_9378.png
subject-03,1,804,1.32955098152161,bear,elephant,180,0804_rot_s03_180_elephant_20_n02504013_7926.png
subject-03,1,805,0.839804887771606,car,car,270,0805_rot_s03_270_car_20_n03100240_7741.png
subject-03,1,806,0.963545083999634,bicycle,bicycle,0,0806_rot_s03_0_bicycle_20_n03792782_19083.png
subject-03,1,807,0.837360143661499,bear,bear,90,0807_rot_s03_90_bear_20_n02132136_19248.png
subject-03,1,808,0.844831943511963,car,car,0,0808_rot_s03_0_car_20_n03100240_3927.png
subject-03,1,809,0.876529932022095,car,car,180,0809_rot_s03_180_car_20_n04285008_4834.png
subject-03,1,810,0.874557018280029,chair,chair,180,0810_rot_s03_180_chair_20_n04099969_10825.png
subject-03,1,811,1.03060793876648,bottle,bottle,0,0811_rot_s03_0_bottle_20_n04591713_1717.png
subject-03,1,812,0.784178972244263,airplane,airplane,180,0812_rot_s03_180_airplane_20_n02690373_3669.png
subject-03,1,813,1.20601511001587,truck,truck,180,0813_rot_s03_180_truck_20_n03417042_8867.png
subject-03,1,814,0.837585926055908,keyboard,keyboard,90,0814_rot_s03_90_keyboard_20_n04505470_4584.png
subject-03,1,815,1.05940103530884,elephant,elephant,270,0815_rot_s03_270_elephant_20_n02504013_10301.png
subject-03,1,816,1.15525507926941,dog,dog,180,0816_rot_s03_180_dog_20_n02111277_4038.png
subject-03,1,817,0.899219036102295,bear,bear,270,0817_rot_s03_270_bear_20_n02132136_18303.png
subject-03,1,818,1.21681499481201,car,clock,180,0818_rot_s03_180_clock_20_n04548280_3701.png
subject-03,1,819,0.722733020782471,bird,bird,270,0819_rot_s03_270_bird_20_n02025239_13707.png
subject-03,1,820,1.50007700920105,dog,truck,270,0820_rot_s03_270_truck_20_n03417042_7755.png
subject-03,1,821,0.670395851135254,bicycle,bicycle,270,0821_rot_s03_270_bicycle_20_n02835271_14123.png
subject-03,1,822,0.59435510635376,clock,clock,180,0822_rot_s03_180_clock_20_n04548280_7115.png
subject-03,1,823,1.24021697044373,truck,truck,90,0823_rot_s03_90_truck_20_n03417042_8634.png
subject-03,1,824,0.843998908996582,truck,truck,0,0824_rot_s03_0_truck_20_n03796401_8176.png
subject-03,1,825,0.591627836227417,clock,clock,270,0825_rot_s03_270_clock_20_n04548280_7050.png
subject-03,1,826,1.17145299911499,knife,chair,180,0826_rot_s03_180_chair_20_n04099969_4162.png
subject-03,1,827,0.799279928207397,chair,chair,270,0827_rot_s03_270_chair_20_n04099969_41686.png
subject-03,1,828,0.849096059799194,knife,knife,0,0828_rot_s03_0_knife_20_n03041632_43289.png
subject-03,1,829,0.973244905471802,truck,truck,270,0829_rot_s03_270_truck_20_n04467665_67908.png
subject-03,1,830,1.17273879051208,chair,chair,90,0830_rot_s03_90_chair_20_n04429376_29223.png
subject-03,1,831,0.710515975952148,bird,bird,90,0831_rot_s03_90_bird_20_n01534433_1271.png
subject-03,1,832,0.904376983642578,dog,dog,90,0832_rot_s03_90_dog_20_n02099601_10748.png
subject-03,1,833,1.38250494003296,knife,knife,180,0833_rot_s03_180_knife_20_n03041632_9580.png
subject-03,1,834,0.958271026611328,cat,cat,0,0834_rot_s03_0_cat_20_n02123159_3497.png
subject-03,1,835,0.978173971176147,chair,chair,270,0835_rot_s03_270_chair_20_n04099969_130.png
subject-03,1,836,0.693774938583374,cat,cat,0,0836_rot_s03_0_cat_20_n02125311_14054.png
subject-03,1,837,0.971291065216064,knife,knife,90,0837_rot_s03_90_knife_20_n03041632_30079.png
subject-03,1,838,1.24558997154236,car,car,270,0838_rot_s03_270_car_20_n03100240_8898.png
subject-03,1,839,1.09503602981567,boat,airplane,270,0839_rot_s03_270_airplane_20_n02690373_2584.png
subject-03,1,840,0.62901496887207,clock,clock,270,0840_rot_s03_270_clock_20_n03196217_6198.png
subject-03,1,841,1.14480304718018,bird,bird,270,0841_rot_s03_270_bird_20_n02056570_9303.png
subject-03,1,842,1.23659300804138,bird,bear,0,0842_rot_s03_0_bear_20_n02134418_4374.png
subject-03,1,843,0.734205961227417,boat,boat,0,0843_rot_s03_0_boat_20_n03662601_11764.png
subject-03,1,844,1.21819019317627,dog,bear,270,0844_rot_s03_270_bear_20_n02134084_1802.png
subject-03,1,845,1.26998901367188,oven,oven,270,0845_rot_s03_270_oven_20_n04111531_845.png
subject-03,1,846,1.03970885276794,bicycle,bicycle,90,0846_rot_s03_90_bicycle_20_n03792782_16117.png
subject-03,1,847,0.755692005157471,airplane,airplane,180,0847_rot_s03_180_airplane_20_n02690373_5055.png
subject-03,1,848,0.747428178787231,bicycle,bicycle,0,0848_rot_s03_0_bicycle_20_n03792782_5517.png
subject-03,1,849,0.927087068557739,knife,boat,270,0849_rot_s03_270_boat_20_n02951358_15412.png
subject-03,1,850,1.16940808296204,knife,knife,0,0850_rot_s03_0_knife_20_n03041632_100645.png
subject-03,1,851,0.854734897613525,clock,clock,0,0851_rot_s03_0_clock_20_n04548280_8303.png
subject-03,1,852,0.924903869628906,bicycle,bicycle,270,0852_rot_s03_270_bicycle_20_n03792782_68417.png
subject-03,1,853,1.36035299301147,airplane,airplane,0,0853_rot_s03_0_airplane_20_n02690373_4979.png
subject-03,1,854,0.816157102584839,bicycle,bicycle,180,0854_rot_s03_180_bicycle_20_n02835271_2625.png
subject-03,1,855,0.972078084945679,bird,bird,180,0855_rot_s03_180_bird_20_n02018207_5735.png
subject-03,1,856,1.0958240032196,dog,dog,180,0856_rot_s03_180_dog_20_n02100735_4364.png
subject-03,1,857,1.03765296936035,bear,bear,270,0857_rot_s03_270_bear_20_n02134084_17215.png
subject-03,1,858,0.739659786224365,cat,cat,180,0858_rot_s03_180_cat_20_n02123597_6186.png
subject-03,1,859,0.917546987533569,bottle,bottle,0,0859_rot_s03_0_bottle_20_n04557648_757.png
subject-03,1,860,1.19100379943848,dog,dog,0,0860_rot_s03_0_dog_20_n02098105_385.png
subject-03,1,861,0.860985040664673,bottle,bottle,180,0861_rot_s03_180_bottle_20_n02823428_14574.png
subject-03,1,862,0.890789031982422,bear,bear,270,0862_rot_s03_270_bear_20_n02133161_7939.png
subject-03,1,863,0.684542894363403,oven,oven,270,0863_rot_s03_270_oven_20_n04111531_22386.png
subject-03,1,864,0.924408912658691,oven,oven,180,0864_rot_s03_180_oven_20_n04111531_10667.png
subject-03,1,865,0.846318006515503,airplane,airplane,0,0865_rot_s03_0_airplane_20_n02690373_764.png
subject-03,1,866,1.01996111869812,elephant,elephant,90,0866_rot_s03_90_elephant_20_n02504013_3540.png
subject-03,1,867,1.14981198310852,dog,dog,180,0867_rot_s03_180_dog_20_n02113978_2286.png
subject-03,1,868,1.10153293609619,oven,oven,0,0868_rot_s03_0_oven_20_n04111531_4817.png
subject-03,1,869,0.70740008354187,clock,clock,0,0869_rot_s03_0_clock_20_n04548280_7211.png
subject-03,1,870,1.03513407707214,bird,bird,90,0870_rot_s03_90_bird_20_n01855032_1920.png
subject-03,1,871,1.03111219406128,boat,airplane,90,0871_rot_s03_90_airplane_20_n02690373_4982.png
subject-03,1,872,1.37278509140015,dog,dog,0,0872_rot_s03_0_dog_20_n02109525_63913.png
subject-03,1,873,1.30268406867981,dog,bear,270,0873_rot_s03_270_bear_20_n02134084_18952.png
subject-03,1,874,1.21844696998596,chair,chair,270,0874_rot_s03_270_chair_20_n02791124_10287.png
subject-03,1,875,1.50007700920105,car,clock,90,0875_rot_s03_90_clock_20_n03196217_1458.png
subject-03,1,876,1.34835815429688,chair,chair,180,0876_rot_s03_180_chair_20_n02791124_3186.png
subject-03,1,877,0.862018823623657,airplane,airplane,90,0877_rot_s03_90_airplane_20_n02690373_3877.png
subject-03,1,878,0.90770697593689,clock,clock,180,0878_rot_s03_180_clock_20_n04548280_1190.png
subject-03,1,879,0.807699918746948,boat,boat,0,0879_rot_s03_0_boat_20_n04273569_1538.png
subject-03,1,880,0.95320200920105,airplane,airplane,0,0880_rot_s03_0_airplane_20_n02690373_389.png
subject-03,1,881,0.836864948272705,chair,chair,0,0881_rot_s03_0_chair_20_n04099969_16669.png
subject-03,1,882,0.868329048156738,cat,cat,180,0882_rot_s03_180_cat_20_n02125311_24813.png
subject-03,1,883,1.07851004600525,truck,truck,90,0883_rot_s03_90_truck_20_n03796401_15105.png
subject-03,1,884,0.998298168182373,truck,truck,270,0884_rot_s03_270_truck_20_n03417042_5301.png
subject-03,1,885,0.685765981674194,cat,keyboard,180,0885_rot_s03_180_keyboard_20_n03085013_24316.png
subject-03,1,886,0.941695928573608,airplane,airplane,0,0886_rot_s03_0_airplane_20_n02690373_10188.png
subject-03,1,887,0.963713884353638,bicycle,bicycle,270,0887_rot_s03_270_bicycle_20_n02835271_8757.png
subject-03,1,888,0.805402994155884,bear,bear,180,0888_rot_s03_180_bear_20_n02134084_3696.png
subject-03,1,889,1.1789128780365,cat,dog,0,0889_rot_s03_0_dog_20_n02099601_8656.png
subject-03,1,890,1.03130793571472,bottle,bottle,90,0890_rot_s03_90_bottle_20_n03937543_984.png
subject-03,1,891,0.770628213882446,knife,knife,90,0891_rot_s03_90_knife_20_n03041632_4806.png
subject-03,1,892,0.970385074615479,dog,dog,90,0892_rot_s03_90_dog_20_n02087394_2278.png
subject-03,1,893,0.858160972595215,airplane,airplane,270,0893_rot_s03_270_airplane_20_n02690373_5909.png
subject-03,1,894,0.763966083526611,bicycle,bicycle,0,0894_rot_s03_0_bicycle_20_n03792782_63201.png
subject-03,1,895,1.15395998954773,elephant,elephant,270,0895_rot_s03_270_elephant_20_n02504013_5364.png
subject-03,1,896,0.816123008728027,boat,boat,180,0896_rot_s03_180_boat_20_n03662601_16627.png
subject-03,1,897,0.775631904602051,clock,clock,180,0897_rot_s03_180_clock_20_n04548280_5286.png
subject-03,1,898,0.943310022354126,chair,chair,180,0898_rot_s03_180_chair_20_n03376595_9219.png
subject-03,1,899,0.817476034164429,bicycle,bicycle,90,0899_rot_s03_90_bicycle_20_n03792782_1924.png
subject-03,1,900,0.97343897819519,bird,bird,90,0900_rot_s03_90_bird_20_n01582220_7400.png
subject-03,1,901,0.952760934829712,bottle,bottle,180,0901_rot_s03_180_bottle_20_n04579145_1646.png
subject-03,1,902,0.858601093292236,knife,knife,180,0902_rot_s03_180_knife_20_n03041632_21017.png
subject-03,1,903,0.878262996673584,chair,chair,0,0903_rot_s03_0_chair_20_n04099969_4971.png
subject-03,1,904,0.742363929748535,bottle,bottle,0,0904_rot_s03_0_bottle_20_n03937543_6698.png
subject-03,1,905,0.669927835464478,bicycle,bicycle,270,0905_rot_s03_270_bicycle_20_n03792782_586.png
subject-03,1,906,0.98002290725708,airplane,boat,180,0906_rot_s03_180_boat_20_n04273569_13053.png
subject-03,1,907,0.891928911209106,keyboard,keyboard,180,0907_rot_s03_180_keyboard_20_n03085013_3920.png
subject-03,1,908,1.06394815444946,clock,keyboard,90,0908_rot_s03_90_keyboard_20_n04505470_4159.png
subject-03,1,909,0.859330892562866,car,car,90,0909_rot_s03_90_car_20_n04285008_5641.png
subject-03,1,910,0.655133008956909,clock,clock,0,0910_rot_s03_0_clock_20_n04548280_3038.png
subject-03,1,911,0.896688938140869,boat,boat,180,0911_rot_s03_180_boat_20_n03662601_3955.png
subject-03,1,912,0.974568843841553,knife,knife,270,0912_rot_s03_270_knife_20_n03041632_751.png
subject-03,1,913,1.06845307350159,boat,boat,0,0913_rot_s03_0_boat_20_n03344393_2866.png
subject-03,1,914,1.50011420249939,elephant,oven,180,0914_rot_s03_180_oven_20_n04111531_704.png
subject-03,1,915,1.31417012214661,dog,dog,0,0915_rot_s03_0_dog_20_n02092339_659.png
subject-03,1,916,0.835860013961792,chair,chair,180,0916_rot_s03_180_chair_20_n04099969_8021.png
subject-03,1,917,1.07766509056091,bird,bird,90,0917_rot_s03_90_bird_20_n01820546_2568.png
subject-03,1,918,0.869461059570312,bear,bear,180,0918_rot_s03_180_bear_20_n02133161_15427.png
subject-03,1,919,0.823332071304321,clock,chair,90,0919_rot_s03_90_chair_20_n04429376_13191.png
subject-03,1,920,1.0793468952179,dog,dog,270,0920_rot_s03_270_dog_20_n02113023_291.png
subject-03,1,921,0.843086004257202,oven,oven,270,0921_rot_s03_270_oven_20_n04111531_6863.png
subject-03,1,922,1.03473901748657,bird,bird,180,0922_rot_s03_180_bird_20_n02017213_6478.png
subject-03,1,923,0.736914157867432,oven,oven,90,0923_rot_s03_90_oven_20_n04111531_5328.png
subject-03,1,924,1.2885320186615,oven,oven,180,0924_rot_s03_180_oven_20_n04111531_10375.png
subject-03,1,925,1.20614194869995,truck,truck,270,0925_rot_s03_270_truck_20_n04467665_14024.png
subject-03,1,926,0.752080917358398,cat,cat,0,0926_rot_s03_0_cat_20_n02123597_32226.png
subject-03,1,927,0.899945020675659,chair,chair,90,0927_rot_s03_90_chair_20_n04099969_1962.png
subject-03,1,928,1.07777380943298,cat,cat,0,0928_rot_s03_0_cat_20_n02123159_1008.png
subject-03,1,929,0.871333837509155,car,car,90,0929_rot_s03_90_car_20_n02814533_14121.png
subject-03,1,930,0.753571033477783,clock,clock,0,0930_rot_s03_0_clock_20_n04548280_253.png
subject-03,1,931,1.10904121398926,truck,truck,270,0931_rot_s03_270_truck_20_n03417042_28584.png
subject-03,1,932,1.14674997329712,bicycle,bicycle,90,0932_rot_s03_90_bicycle_20_n03792782_3202.png
subject-03,1,933,1.06699419021606,bicycle,bicycle,270,0933_rot_s03_270_bicycle_20_n03792782_3388.png
subject-03,1,934,1.06645512580872,elephant,elephant,180,0934_rot_s03_180_elephant_20_n02504013_6618.png
subject-03,1,935,0.962338924407959,car,car,270,0935_rot_s03_270_car_20_n04285008_11704.png
subject-03,1,936,1.2601261138916,airplane,airplane,90,0936_rot_s03_90_airplane_20_n02690373_1909.png
subject-03,1,937,1.33612203598022,car,truck,180,0937_rot_s03_180_truck_20_n03417042_189.png
subject-03,1,938,0.847693204879761,truck,truck,0,0938_rot_s03_0_truck_20_n03417042_6975.png
subject-03,1,939,0.699528217315674,cat,cat,270,0939_rot_s03_270_cat_20_n02123045_6677.png
subject-03,1,940,1.22144103050232,chair,chair,90,0940_rot_s03_90_chair_20_n04099969_6944.png
subject-03,1,941,0.95531702041626,bird,bird,90,0941_rot_s03_90_bird_20_n02018795_414.png
subject-03,1,942,0.927021980285645,boat,bear,90,0942_rot_s03_90_bear_20_n02132136_1285.png
subject-03,1,943,1.09480810165405,bicycle,bicycle,180,0943_rot_s03_180_bicycle_20_n03792782_13680.png
subject-03,1,944,0.842602968215942,bottle,bottle,0,0944_rot_s03_0_bottle_20_n04560804_15562.png
subject-03,1,945,0.85250997543335,bottle,bottle,90,0945_rot_s03_90_bottle_20_n03937543_4830.png
subject-03,1,946,0.698399066925049,boat,boat,0,0946_rot_s03_0_boat_20_n03662601_17483.png
subject-03,1,947,0.674031019210815,boat,boat,180,0947_rot_s03_180_boat_20_n04273569_6586.png
subject-03,1,948,1.40982890129089,cat,cat,90,0948_rot_s03_90_cat_20_n02123159_6933.png
subject-03,1,949,0.597814083099365,oven,oven,90,0949_rot_s03_90_oven_20_n04111531_21011.png
subject-03,1,950,1.03592681884766,dog,dog,0,0950_rot_s03_0_dog_20_n02091831_332.png
subject-03,1,951,0.799326181411743,truck,truck,0,0951_rot_s03_0_truck_20_n03796401_8463.png
subject-03,1,952,1.01317715644836,elephant,cat,90,0952_rot_s03_90_cat_20_n02125311_73072.png
subject-03,1,953,0.964887857437134,bottle,bottle,90,0953_rot_s03_90_bottle_20_n03983396_4115.png
subject-03,1,954,1.20675706863403,cat,bear,270,0954_rot_s03_270_bear_20_n02132136_9358.png
subject-03,1,955,1.0887439250946,keyboard,keyboard,270,0955_rot_s03_270_keyboard_20_n04505470_510.png
subject-03,1,956,1.31433391571045,clock,clock,90,0956_rot_s03_90_clock_20_n03196217_421.png
subject-03,1,957,1.24226903915405,dog,dog,270,0957_rot_s03_270_dog_20_n02108000_1044.png
subject-03,1,958,1.13210892677307,cat,cat,270,0958_rot_s03_270_cat_20_n02125311_33586.png
subject-03,1,959,1.0459451675415,oven,oven,270,0959_rot_s03_270_oven_20_n04111531_766.png
subject-03,1,960,1.3176748752594,dog,bear,90,0960_rot_s03_90_bear_20_n02134084_7817.png
subject-03,1,961,0.874765872955322,airplane,airplane,180,0961_rot_s03_180_airplane_20_n02690373_9293.png
subject-03,1,962,0.682733058929443,cat,cat,0,0962_rot_s03_0_cat_20_n02123597_19872.png
subject-03,1,963,0.854623079299927,oven,oven,270,0963_rot_s03_270_oven_20_n04111531_12952.png
subject-03,1,964,1.11209487915039,keyboard,keyboard,90,0964_rot_s03_90_keyboard_20_n04505470_5007.png
subject-03,1,965,0.764110088348389,boat,boat,0,0965_rot_s03_0_boat_20_n04273569_11502.png
subject-03,1,966,1.05562996864319,bear,dog,180,0966_rot_s03_180_dog_20_n02100877_3112.png
subject-03,1,967,0.819461822509766,bottle,bottle,270,0967_rot_s03_270_bottle_20_n02823428_10946.png
subject-03,1,968,1.0614960193634,oven,oven,180,0968_rot_s03_180_oven_20_n04111531_16708.png
subject-03,1,969,1.1910080909729,cat,cat,270,0969_rot_s03_270_cat_20_n02125311_1326.png
subject-03,1,970,0.929078817367554,boat,airplane,180,0970_rot_s03_180_airplane_20_n02690373_1491.png
subject-03,1,971,0.934570074081421,bottle,bottle,90,0971_rot_s03_90_bottle_20_n03983396_5514.png
subject-03,1,972,NaN,na,bird,0,0972_rot_s03_0_bird_20_n02007558_1068.png
subject-03,1,973,0.660189867019653,bear,bear,270,0973_rot_s03_270_bear_20_n02134084_7345.png
subject-03,1,974,1.02027201652527,truck,truck,0,0974_rot_s03_0_truck_20_n04467665_49132.png
subject-03,1,975,0.913995981216431,bear,bear,270,0975_rot_s03_270_bear_20_n02133161_14397.png
subject-03,1,976,0.731828927993774,boat,boat,90,0976_rot_s03_90_boat_20_n04273569_7296.png
subject-03,1,977,1.12379598617554,dog,dog,270,0977_rot_s03_270_dog_20_n02109047_13710.png
subject-03,1,978,1.16758108139038,bird,bird,180,0978_rot_s03_180_bird_20_n02051845_8617.png
subject-03,1,979,0.855152130126953,truck,truck,90,0979_rot_s03_90_truck_20_n03417042_28886.png
subject-03,1,980,1.08106589317322,bird,bird,0,0980_rot_s03_0_bird_20_n01530575_3198.png
subject-03,1,981,1.12324595451355,dog,dog,90,0981_rot_s03_90_dog_20_n02110063_8776.png
subject-03,1,982,1.29901003837585,truck,truck,90,0982_rot_s03_90_truck_20_n03417042_28657.png
subject-03,1,983,NaN,na,chair,180,0983_rot_s03_180_chair_20_n02791124_2938.png
subject-03,1,984,1.45028305053711,knife,knife,180,0984_rot_s03_180_knife_20_n03041632_31632.png
subject-03,1,985,1.15218210220337,clock,chair,0,0985_rot_s03_0_chair_20_n04429376_10994.png
subject-03,1,986,1.20181894302368,elephant,elephant,180,0986_rot_s03_180_elephant_20_n02504458_2272.png
subject-03,1,987,0.965687036514282,knife,knife,270,0987_rot_s03_270_knife_20_n03041632_11700.png
subject-03,1,988,1.0656521320343,knife,knife,0,0988_rot_s03_0_knife_20_n03041632_26053.png
subject-03,1,989,1.07734394073486,car,car,90,0989_rot_s03_90_car_20_n02814533_68219.png
subject-03,1,990,1.02128314971924,knife,knife,270,0990_rot_s03_270_knife_20_n03041632_36215.png
subject-03,1,991,0.809018135070801,keyboard,keyboard,180,0991_rot_s03_180_keyboard_20_n04505470_933.png
subject-03,1,992,0.712616920471191,cat,cat,180,0992_rot_s03_180_cat_20_n02123394_8100.png
subject-03,1,993,0.812701940536499,cat,keyboard,180,0993_rot_s03_180_keyboard_20_n03085013_3691.png
subject-03,1,994,0.976279020309448,airplane,airplane,180,0994_rot_s03_180_airplane_20_n02690373_1021.png
subject-03,1,995,0.678319931030273,clock,clock,180,0995_rot_s03_180_clock_20_n03196217_571.png
subject-03,1,996,0.920130014419556,chair,chair,180,0996_rot_s03_180_chair_20_n03376595_9079.png
subject-03,1,997,0.917829036712646,truck,truck,180,0997_rot_s03_180_truck_20_n03796401_1150.png
subject-03,1,998,1.0517270565033,bicycle,bicycle,90,0998_rot_s03_90_bicycle_20_n02835271_27014.png
subject-03,1,999,0.947506904602051,cat,cat,0,0999_rot_s03_0_cat_20_n02124075_13577.png
subject-03,1,1000,1.20735692977905,elephant,bird,90,1000_rot_s03_90_bird_20_n01860187_20081.png
subject-03,1,1001,0.925096988677979,bear,bear,0,1001_rot_s03_0_bear_20_n02134084_3934.png
subject-03,1,1002,0.862793922424316,truck,truck,180,1002_rot_s03_180_truck_20_n03796401_2258.png
subject-03,1,1003,1.15064787864685,airplane,airplane,270,1003_rot_s03_270_airplane_20_n02690373_5430.png
subject-03,1,1004,1.50005793571472,chair,oven,180,1004_rot_s03_180_oven_20_n04111531_2199.png
subject-03,1,1005,0.73048996925354,oven,oven,0,1005_rot_s03_0_oven_20_n04111531_10339.png
subject-03,1,1006,1.13012599945068,oven,chair,0,1006_rot_s03_0_chair_20_n02791124_2898.png
subject-03,1,1007,0.948256969451904,chair,chair,90,1007_rot_s03_90_chair_20_n02791124_5749.png
subject-03,1,1008,1.00775098800659,elephant,elephant,270,1008_rot_s03_270_elephant_20_n02504458_8296.png
subject-03,1,1009,1.42968702316284,boat,airplane,270,1009_rot_s03_270_airplane_20_n02690373_3818.png
subject-03,1,1010,0.935649871826172,bicycle,bicycle,270,1010_rot_s03_270_bicycle_20_n02835271_21640.png
subject-03,1,1011,0.825144052505493,keyboard,keyboard,180,1011_rot_s03_180_keyboard_20_n03085013_20478.png
subject-03,1,1012,0.809094905853271,cat,dog,180,1012_rot_s03_180_dog_20_n02112350_10026.png
subject-03,1,1013,0.596667051315308,cat,cat,90,1013_rot_s03_90_cat_20_n02123597_10141.png
subject-03,1,1014,0.814486026763916,bottle,bottle,270,1014_rot_s03_270_bottle_20_n04591713_7036.png
subject-03,1,1015,0.938525915145874,boat,boat,0,1015_rot_s03_0_boat_20_n03662601_7324.png
subject-03,1,1016,1.15413212776184,car,car,270,1016_rot_s03_270_car_20_n02814533_41670.png
subject-03,1,1017,0.770097017288208,cat,dog,270,1017_rot_s03_270_dog_20_n02094258_6398.png
subject-03,1,1018,0.813903093338013,truck,truck,90,1018_rot_s03_90_truck_20_n03417042_9238.png
subject-03,1,1019,0.9096999168396,keyboard,keyboard,90,1019_rot_s03_90_keyboard_20_n03085013_12678.png
subject-03,1,1020,1.04346489906311,boat,boat,0,1020_rot_s03_0_boat_20_n04273569_23800.png
subject-03,1,1021,1.16742300987244,oven,oven,270,1021_rot_s03_270_oven_20_n04111531_5429.png
subject-03,1,1022,1.498939037323,cat,elephant,270,1022_rot_s03_270_elephant_20_n02504013_4339.png
subject-03,1,1023,0.989116907119751,clock,clock,270,1023_rot_s03_270_clock_20_n03196217_3194.png
subject-03,1,1024,0.73871898651123,bottle,bottle,0,1024_rot_s03_0_bottle_20_n02823428_3694.png
subject-03,1,1025,1.10638403892517,keyboard,keyboard,180,1025_rot_s03_180_keyboard_20_n03085013_24105.png
subject-03,1,1026,0.870845794677734,clock,clock,180,1026_rot_s03_180_clock_20_n02708093_170.png
subject-03,1,1027,1.50008606910706,chair,chair,180,1027_rot_s03_180_chair_20_n04099969_22118.png
subject-03,1,1028,0.96403694152832,bicycle,bicycle,90,1028_rot_s03_90_bicycle_20_n02835271_7053.png
subject-03,1,1029,0.996103048324585,chair,chair,270,1029_rot_s03_270_chair_20_n03376595_209.png
subject-03,1,1030,0.955544948577881,airplane,airplane,90,1030_rot_s03_90_airplane_20_n02690373_12929.png
subject-03,1,1031,1.00133585929871,dog,dog,90,1031_rot_s03_90_dog_20_n02090622_7692.png
subject-03,1,1032,1.04722595214844,chair,chair,0,1032_rot_s03_0_chair_20_n03376595_5909.png
subject-03,1,1033,1.19295001029968,bottle,bottle,180,1033_rot_s03_180_bottle_20_n02823428_4530.png
subject-03,1,1034,1.18289589881897,keyboard,keyboard,0,1034_rot_s03_0_keyboard_20_n04505470_763.png
subject-03,1,1035,1.22857213020325,oven,knife,90,1035_rot_s03_90_knife_20_n03041632_11773.png
subject-03,1,1036,0.892501831054688,chair,chair,90,1036_rot_s03_90_chair_20_n03376595_4820.png
subject-03,1,1037,1.42837500572205,chair,knife,180,1037_rot_s03_180_knife_20_n03041632_39883.png
subject-03,1,1038,1.47415614128113,bear,bear,90,1038_rot_s03_90_bear_20_n02134418_1026.png
subject-03,1,1039,0.741909980773926,bottle,bottle,180,1039_rot_s03_180_bottle_20_n02823428_8077.png
subject-03,1,1040,1.03959083557129,dog,dog,180,1040_rot_s03_180_dog_20_n02093428_11151.png
subject-03,1,1041,0.717304944992065,bicycle,bicycle,90,1041_rot_s03_90_bicycle_20_n03792782_12010.png
subject-03,1,1042,0.889034986495972,bicycle,bicycle,90,1042_rot_s03_90_bicycle_20_n03792782_5048.png
subject-03,1,1043,0.806866884231567,oven,oven,0,1043_rot_s03_0_oven_20_n04111531_24065.png
subject-03,1,1044,0.812737941741943,bottle,bottle,90,1044_rot_s03_90_bottle_20_n02823428_4299.png
subject-03,1,1045,0.760599851608276,bear,bear,180,1045_rot_s03_180_bear_20_n02134418_1825.png
subject-03,1,1046,1.0723979473114,elephant,elephant,90,1046_rot_s03_90_elephant_20_n02504458_6470.png
subject-03,1,1047,0.884116888046265,dog,dog,90,1047_rot_s03_90_dog_20_n02100877_11159.png
subject-03,1,1048,1.03585600852966,oven,oven,90,1048_rot_s03_90_oven_20_n04111531_1855.png
subject-03,1,1049,1.08579587936401,elephant,elephant,180,1049_rot_s03_180_elephant_20_n02504458_1504.png
subject-03,1,1050,1.16364502906799,chair,dog,90,1050_rot_s03_90_dog_20_n02093428_17633.png
subject-03,1,1051,1.29140305519104,keyboard,keyboard,0,1051_rot_s03_0_keyboard_20_n04505470_1744.png
subject-03,1,1052,1.39924621582031,chair,dog,180,1052_rot_s03_180_dog_20_n02100236_7671.png
subject-03,1,1053,0.787077188491821,clock,clock,0,1053_rot_s03_0_clock_20_n02708093_2030.png
subject-03,1,1054,0.732717990875244,cat,cat,180,1054_rot_s03_180_cat_20_n02124075_13437.png
subject-03,1,1055,1.10664105415344,elephant,elephant,0,1055_rot_s03_0_elephant_20_n02504458_9870.png
subject-03,1,1056,0.854207992553711,airplane,airplane,0,1056_rot_s03_0_airplane_20_n02690373_17731.png
subject-03,1,1057,1.18440198898315,clock,clock,180,1057_rot_s03_180_clock_20_n03196217_6526.png
