subj,Session,trial,rt,object_response,category,condition,imagename
subject-01,1,1,1.15696287155151,keyboard,chair,0,0001_rot_s01_0_chair_20_n03376595_3070.png
subject-01,1,2,0.752756118774414,car,car,180,0002_rot_s01_180_car_20_n02814533_29367.png
subject-01,1,3,0.856472969055176,car,car,270,0003_rot_s01_270_car_20_n02814533_31083.png
subject-01,1,4,0.968296051025391,car,car,180,0004_rot_s01_180_car_20_n03100240_1703.png
subject-01,1,5,0.645937919616699,bottle,bottle,180,0005_rot_s01_180_bottle_20_n04591713_2359.png
subject-01,1,6,0.930321931838989,bicycle,dog,90,0006_rot_s01_90_dog_20_n02111500_8796.png
subject-01,1,7,1.11369395256042,bear,bear,180,0007_rot_s01_180_bear_20_n02132136_4512.png
subject-01,1,8,0.56744909286499,chair,chair,90,0008_rot_s01_90_chair_20_n03376595_4820.png
subject-01,1,9,0.725367069244385,bottle,bottle,270,0009_rot_s01_270_bottle_20_n04591713_6111.png
subject-01,1,10,1.0814688205719,chair,bottle,270,0010_rot_s01_270_bottle_20_n04560804_14111.png
subject-01,1,11,0.81303596496582,cat,dog,0,0011_rot_s01_0_dog_20_n02099601_8656.png
subject-01,1,12,0.713118076324463,cat,cat,0,0012_rot_s01_0_cat_20_n02125311_14054.png
subject-01,1,13,0.938475131988525,bear,bear,0,0013_rot_s01_0_bear_20_n02132136_10385.png
subject-01,1,14,0.710515022277832,bottle,bottle,90,0014_rot_s01_90_bottle_20_n02823428_10417.png
subject-01,1,15,1.19635391235352,keyboard,keyboard,0,0015_rot_s01_0_keyboard_20_n03085013_23566.png
subject-01,1,16,0.956080913543701,truck,truck,90,0016_rot_s01_90_truck_20_n03417042_12560.png
subject-01,1,17,0.975800037384033,truck,truck,180,0017_rot_s01_180_truck_20_n04467665_69063.png
subject-01,1,18,0.949490070343018,oven,oven,180,0018_rot_s01_180_oven_20_n04111531_9712.png
subject-01,1,19,0.707451105117798,oven,oven,180,0019_rot_s01_180_oven_20_n04111531_10375.png
subject-01,1,20,0.743339061737061,keyboard,keyboard,0,0020_rot_s01_0_keyboard_20_n04505470_1744.png
subject-01,1,21,0.669005155563354,boat,boat,90,0021_rot_s01_90_boat_20_n04273569_7296.png
subject-01,1,22,0.766723155975342,dog,dog,0,0022_rot_s01_0_dog_20_n02101006_4807.png
subject-01,1,23,0.586733818054199,clock,clock,90,0023_rot_s01_90_clock_20_n02708093_1986.png
subject-01,1,24,0.766526937484741,bottle,bottle,0,0024_rot_s01_0_bottle_20_n04560804_15562.png
subject-01,1,25,0.514270067214966,cat,cat,0,0025_rot_s01_0_cat_20_n02124075_13594.png
subject-01,1,26,0.754002094268799,bear,bear,90,0026_rot_s01_90_bear_20_n02134418_4365.png
subject-01,1,27,1.1221330165863,oven,bear,180,0027_rot_s01_180_bear_20_n02132136_8650.png
subject-01,1,28,0.965617895126343,bird,bird,90,0028_rot_s01_90_bird_20_n02009912_12219.png
subject-01,1,29,1.01562881469727,dog,dog,90,0029_rot_s01_90_dog_20_n02100236_1662.png
subject-01,1,30,0.583348989486694,clock,clock,90,0030_rot_s01_90_clock_20_n04548280_1947.png
subject-01,1,31,1.14523601531982,dog,dog,270,0031_rot_s01_270_dog_20_n02109047_66167.png
subject-01,1,32,0.649070978164673,oven,oven,90,0032_rot_s01_90_oven_20_n04111531_21055.png
subject-01,1,33,0.70674204826355,clock,clock,0,0033_rot_s01_0_clock_20_n02708093_2012.png
subject-01,1,34,1.27048206329346,elephant,elephant,0,0034_rot_s01_0_elephant_20_n02504458_6119.png
subject-01,1,35,0.766396999359131,chair,chair,0,0035_rot_s01_0_chair_20_n04099969_12707.png
subject-01,1,36,1.00817179679871,keyboard,keyboard,270,0036_rot_s01_270_keyboard_20_n03085013_19054.png
subject-01,1,37,0.780220985412598,chair,chair,0,0037_rot_s01_0_chair_20_n02791124_422.png
subject-01,1,38,0.682131052017212,bicycle,bicycle,0,0038_rot_s01_0_bicycle_20_n02835271_23830.png
subject-01,1,39,0.815639019012451,bird,bird,90,0039_rot_s01_90_bird_20_n01534433_14735.png
subject-01,1,40,0.8075270652771,bird,bird,90,0040_rot_s01_90_bird_20_n02011460_13994.png
subject-01,1,41,0.749439001083374,boat,boat,270,0041_rot_s01_270_boat_20_n04273569_17522.png
subject-01,1,42,1.10510993003845,bear,bear,180,0042_rot_s01_180_bear_20_n02132136_5537.png
subject-01,1,43,0.820925951004028,bear,bear,90,0043_rot_s01_90_bear_20_n02132136_19248.png
subject-01,1,44,0.824733018875122,bird,bird,270,0044_rot_s01_270_bird_20_n01537544_1886.png
subject-01,1,45,0.678874015808105,clock,clock,180,0045_rot_s01_180_clock_20_n03196217_4776.png
subject-01,1,46,0.632420063018799,boat,boat,270,0046_rot_s01_270_boat_20_n04612504_17610.png
subject-01,1,47,1.04631114006042,elephant,bear,90,0047_rot_s01_90_bear_20_n02134418_1814.png
subject-01,1,48,0.710211038589478,keyboard,keyboard,180,0048_rot_s01_180_keyboard_20_n03085013_20330.png
subject-01,1,49,0.725833892822266,bottle,bottle,180,0049_rot_s01_180_bottle_20_n02823428_14574.png
subject-01,1,50,0.77583909034729,bicycle,bicycle,0,0050_rot_s01_0_bicycle_20_n03792782_7105.png
subject-01,1,51,0.915474891662598,elephant,elephant,0,0051_rot_s01_0_elephant_20_n02504458_1302.png
subject-01,1,52,0.849301099777222,airplane,airplane,90,0052_rot_s01_90_airplane_20_n02690373_3877.png
subject-01,1,53,1.07718086242676,bicycle,boat,90,0053_rot_s01_90_boat_20_n02951358_15422.png
subject-01,1,54,0.852817058563232,car,car,270,0054_rot_s01_270_car_20_n02814533_46458.png
subject-01,1,55,0.58676290512085,car,car,0,0055_rot_s01_0_car_20_n02814533_39547.png
subject-01,1,56,1.13060688972473,boat,boat,180,0056_rot_s01_180_boat_20_n04273569_6586.png
subject-01,1,57,0.670358896255493,clock,clock,90,0057_rot_s01_90_clock_20_n02708093_3394.png
subject-01,1,58,0.792074918746948,keyboard,keyboard,180,0058_rot_s01_180_keyboard_20_n03085013_25419.png
subject-01,1,59,0.946245908737183,bottle,bottle,180,0059_rot_s01_180_bottle_20_n04557648_1871.png
subject-01,1,60,0.915585041046143,knife,chair,90,0060_rot_s01_90_chair_20_n04099969_6944.png
subject-01,1,61,0.675534963607788,boat,boat,270,0061_rot_s01_270_boat_20_n04273569_1495.png
subject-01,1,62,0.647359848022461,keyboard,keyboard,90,0062_rot_s01_90_keyboard_20_n03085013_7317.png
subject-01,1,63,0.81305193901062,knife,knife,90,0063_rot_s01_90_knife_20_n03041632_7448.png
subject-01,1,64,1.13102507591248,car,truck,0,0064_rot_s01_0_truck_20_n03417042_11000.png
subject-01,1,65,0.830668926239014,bird,bird,0,0065_rot_s01_0_bird_20_n01582220_8827.png
subject-01,1,66,1.19664120674133,airplane,airplane,270,0066_rot_s01_270_airplane_20_n02690373_9247.png
subject-01,1,67,0.656315088272095,bear,bear,270,0067_rot_s01_270_bear_20_n02133161_14397.png
subject-01,1,68,0.638268947601318,oven,oven,270,0068_rot_s01_270_oven_20_n04111531_13560.png
subject-01,1,69,0.712180852890015,bear,bear,180,0069_rot_s01_180_bear_20_n02132136_545.png
subject-01,1,70,0.683822870254517,bear,cat,90,0070_rot_s01_90_cat_20_n02125311_73072.png
subject-01,1,71,0.705695152282715,bicycle,bicycle,0,0071_rot_s01_0_bicycle_20_n03792782_30530.png
subject-01,1,72,1.01773595809937,knife,knife,90,0072_rot_s01_90_knife_20_n03041632_4975.png
subject-01,1,73,1.40926289558411,cat,dog,90,0073_rot_s01_90_dog_20_n02107683_3120.png
subject-01,1,74,1.089115858078,elephant,elephant,90,0074_rot_s01_90_elephant_20_n02504013_7316.png
subject-01,1,75,1.15481901168823,boat,truck,90,0075_rot_s01_90_truck_20_n03796401_7284.png
subject-01,1,76,0.990966081619263,bicycle,chair,270,0076_rot_s01_270_chair_20_n03376595_497.png
subject-01,1,77,0.970529079437256,truck,truck,270,0077_rot_s01_270_truck_20_n03796401_19845.png
subject-01,1,78,0.880265951156616,chair,chair,90,0078_rot_s01_90_chair_20_n04099969_1941.png
subject-01,1,79,0.846113920211792,truck,truck,90,0079_rot_s01_90_truck_20_n03417042_28886.png
subject-01,1,80,0.9339919090271,car,car,0,0080_rot_s01_0_car_20_n02814533_12185.png
subject-01,1,81,0.73320198059082,bicycle,bicycle,90,0081_rot_s01_90_bicycle_20_n02835271_1621.png
subject-01,1,82,0.7153000831604,cat,cat,0,0082_rot_s01_0_cat_20_n02123597_32226.png
subject-01,1,83,0.789007902145386,bicycle,bicycle,90,0083_rot_s01_90_bicycle_20_n03792782_5048.png
subject-01,1,84,0.832736968994141,airplane,airplane,0,0084_rot_s01_0_airplane_20_n02690373_10044.png
subject-01,1,85,0.976622104644775,car,car,180,0085_rot_s01_180_car_20_n03100240_5752.png
subject-01,1,86,0.710433959960938,car,car,90,0086_rot_s01_90_car_20_n02814533_68219.png
subject-01,1,87,0.944056034088135,airplane,airplane,0,0087_rot_s01_0_airplane_20_n02690373_1171.png
subject-01,1,88,1.13441491127014,bird,bird,90,0088_rot_s01_90_bird_20_n01817953_6970.png
subject-01,1,89,0.831950187683105,car,car,90,0089_rot_s01_90_car_20_n04285008_15503.png
subject-01,1,90,0.592129945755005,boat,boat,270,0090_rot_s01_270_boat_20_n03344393_11886.png
subject-01,1,91,1.26144409179688,boat,boat,0,0091_rot_s01_0_boat_20_n04273569_30203.png
subject-01,1,92,1.09711909294128,keyboard,keyboard,180,0092_rot_s01_180_keyboard_20_n03085013_22069.png
subject-01,1,93,0.923164129257202,knife,knife,0,0093_rot_s01_0_knife_20_n03041632_26314.png
subject-01,1,94,0.884984016418457,boat,bicycle,270,0094_rot_s01_270_bicycle_20_n03792782_18308.png
subject-01,1,95,0.742593050003052,car,car,180,0095_rot_s01_180_car_20_n04285008_8396.png
subject-01,1,96,0.962476015090942,bear,bear,90,0096_rot_s01_90_bear_20_n02133161_12349.png
subject-01,1,97,0.784189939498901,bear,bear,270,0097_rot_s01_270_bear_20_n02132136_18303.png
subject-01,1,98,0.620628118515015,cat,cat,180,0098_rot_s01_180_cat_20_n02123394_6853.png
subject-01,1,99,0.789850950241089,cat,cat,180,0099_rot_s01_180_cat_20_n02123597_4805.png
subject-01,1,100,1.3218150138855,oven,car,0,0100_rot_s01_0_car_20_n03100240_17587.png
subject-01,1,101,0.887484073638916,bear,bird,180,0101_rot_s01_180_bird_20_n01601694_19236.png
subject-01,1,102,0.58344292640686,cat,cat,0,0102_rot_s01_0_cat_20_n02123597_2341.png
subject-01,1,103,0.805047988891602,elephant,elephant,270,0103_rot_s01_270_elephant_20_n02504013_7883.png
subject-01,1,104,0.874961137771606,chair,chair,270,0104_rot_s01_270_chair_20_n03376595_14240.png
subject-01,1,105,0.806765079498291,airplane,airplane,0,0105_rot_s01_0_airplane_20_n02690373_10188.png
subject-01,1,106,0.700643062591553,truck,truck,90,0106_rot_s01_90_truck_20_n03417042_8634.png
subject-01,1,107,0.896597146987915,knife,knife,90,0107_rot_s01_90_knife_20_n03041632_32774.png
subject-01,1,108,0.69025993347168,bottle,bottle,90,0108_rot_s01_90_bottle_20_n03983396_4115.png
subject-01,1,109,0.910145998001099,keyboard,clock,270,0109_rot_s01_270_clock_20_n04548280_8552.png
subject-01,1,110,0.781790018081665,car,car,0,0110_rot_s01_0_car_20_n02814533_6233.png
subject-01,1,111,0.747710943222046,bear,elephant,0,0111_rot_s01_0_elephant_20_n02504458_9870.png
subject-01,1,112,0.797506093978882,bicycle,bicycle,270,0112_rot_s01_270_bicycle_20_n02835271_3956.png
subject-01,1,113,0.865594863891602,knife,knife,90,0113_rot_s01_90_knife_20_n03041632_14817.png
subject-01,1,114,0.851068019866943,chair,chair,90,0114_rot_s01_90_chair_20_n04099969_8642.png
subject-01,1,115,0.735033988952637,clock,clock,0,0115_rot_s01_0_clock_20_n02708093_240.png
subject-01,1,116,1.00674510002136,bear,bear,180,0116_rot_s01_180_bear_20_n02133161_3896.png
subject-01,1,117,0.690579891204834,bottle,bottle,270,0117_rot_s01_270_bottle_20_n04557648_11000.png
subject-01,1,118,1.02677512168884,keyboard,keyboard,90,0118_rot_s01_90_keyboard_20_n03085013_2853.png
subject-01,1,119,0.548312902450562,boat,boat,90,0119_rot_s01_90_boat_20_n04273569_7097.png
subject-01,1,120,0.761907815933228,bicycle,bicycle,270,0120_rot_s01_270_bicycle_20_n03792782_40932.png
subject-01,1,121,0.845890998840332,chair,chair,270,0121_rot_s01_270_chair_20_n04429376_44914.png
subject-01,1,122,1.17961382865906,bottle,bear,180,0122_rot_s01_180_bear_20_n02134418_2122.png
subject-01,1,123,0.889256954193115,keyboard,keyboard,90,0123_rot_s01_90_keyboard_20_n03085013_22704.png
subject-01,1,124,0.721160173416138,truck,truck,0,0124_rot_s01_0_truck_20_n03417042_6838.png
subject-01,1,125,0.860905885696411,elephant,elephant,0,0125_rot_s01_0_elephant_20_n02504458_3628.png
subject-01,1,126,0.700773954391479,cat,cat,90,0126_rot_s01_90_cat_20_n02123597_10141.png
subject-01,1,127,0.734537124633789,bicycle,bicycle,0,0127_rot_s01_0_bicycle_20_n02835271_6383.png
subject-01,1,128,0.880431890487671,car,car,180,0128_rot_s01_180_car_20_n04285008_7154.png
subject-01,1,129,0.768196105957031,bird,bird,0,0129_rot_s01_0_bird_20_n02007558_1068.png
subject-01,1,130,0.696199893951416,cat,cat,90,0130_rot_s01_90_cat_20_n02125311_1896.png
subject-01,1,131,0.815906047821045,keyboard,keyboard,0,0131_rot_s01_0_keyboard_20_n04505470_1903.png
subject-01,1,132,0.753910064697266,bicycle,bicycle,90,0132_rot_s01_90_bicycle_20_n03792782_66159.png
subject-01,1,133,0.867797136306763,bear,bear,90,0133_rot_s01_90_bear_20_n02134418_5219.png
subject-01,1,134,1.01319718360901,car,car,90,0134_rot_s01_90_car_20_n02814533_92229.png
subject-01,1,135,0.723058938980103,cat,dog,90,0135_rot_s01_90_dog_20_n02090721_1002.png
subject-01,1,136,1.0889151096344,car,truck,270,0136_rot_s01_270_truck_20_n04467665_46263.png
subject-01,1,137,0.844803094863892,bottle,bottle,180,0137_rot_s01_180_bottle_20_n03983396_704.png
subject-01,1,138,0.928635120391846,truck,truck,180,0138_rot_s01_180_truck_20_n03796401_4149.png
subject-01,1,139,0.724356889724731,bird,bird,0,0139_rot_s01_0_bird_20_n02006656_2030.png
subject-01,1,140,0.780128002166748,cat,cat,90,0140_rot_s01_90_cat_20_n02123394_234.png
subject-01,1,141,0.839982986450195,oven,chair,90,0141_rot_s01_90_chair_20_n04429376_19916.png
subject-01,1,142,0.881727933883667,truck,truck,270,0142_rot_s01_270_truck_20_n04467665_14024.png
subject-01,1,143,1.50014019012451,oven,chair,90,0143_rot_s01_90_chair_20_n04429376_14729.png
subject-01,1,144,0.663640975952148,car,car,270,0144_rot_s01_270_car_20_n02814533_82321.png
subject-01,1,145,0.739259958267212,clock,clock,180,0145_rot_s01_180_clock_20_n04548280_3701.png
subject-01,1,146,0.822924852371216,boat,boat,270,0146_rot_s01_270_boat_20_n02951358_11442.png
subject-01,1,147,0.840892791748047,bear,bear,90,0147_rot_s01_90_bear_20_n02132136_17349.png
subject-01,1,148,NaN,na,airplane,90,0148_rot_s01_90_airplane_20_n02690373_4982.png
subject-01,1,149,1.02631402015686,airplane,airplane,0,0149_rot_s01_0_airplane_20_n02690373_2232.png
subject-01,1,150,0.650339126586914,cat,cat,180,0150_rot_s01_180_cat_20_n02123045_909.png
subject-01,1,151,0.758072853088379,clock,clock,180,0151_rot_s01_180_clock_20_n04548280_1190.png
subject-01,1,152,1.12404108047485,bear,oven,90,0152_rot_s01_90_oven_20_n04111531_1855.png
subject-01,1,153,0.619884967803955,boat,boat,270,0153_rot_s01_270_boat_20_n03662601_21408.png
subject-01,1,154,0.901571035385132,dog,dog,90,0154_rot_s01_90_dog_20_n02088364_15877.png
subject-01,1,155,0.807277917861938,knife,knife,90,0155_rot_s01_90_knife_20_n03041632_15250.png
subject-01,1,156,0.777352094650269,oven,oven,0,0156_rot_s01_0_oven_20_n04111531_17006.png
subject-01,1,157,0.591292858123779,clock,clock,90,0157_rot_s01_90_clock_20_n04548280_11763.png
subject-01,1,158,0.866878986358643,bird,bird,270,0158_rot_s01_270_bird_20_n02028035_8327.png
subject-01,1,159,0.926613092422485,car,car,90,0159_rot_s01_90_car_20_n04285008_5641.png
subject-01,1,160,1.08650684356689,oven,oven,90,0160_rot_s01_90_oven_20_n04111531_10727.png
subject-01,1,161,0.928154945373535,elephant,elephant,270,0161_rot_s01_270_elephant_20_n02504458_1971.png
subject-01,1,162,0.787765979766846,bottle,bottle,180,0162_rot_s01_180_bottle_20_n04560804_15941.png
subject-01,1,163,0.665618896484375,elephant,elephant,0,0163_rot_s01_0_elephant_20_n02504458_151.png
subject-01,1,164,0.741531133651733,bear,bear,180,0164_rot_s01_180_bear_20_n02133161_15427.png
subject-01,1,165,NaN,na,bear,180,0165_rot_s01_180_bear_20_n02134084_20605.png
subject-01,1,166,0.895142078399658,bottle,bottle,90,0166_rot_s01_90_bottle_20_n04560804_2693.png
subject-01,1,167,0.715176105499268,airplane,airplane,270,0167_rot_s01_270_airplane_20_n02690373_8214.png
subject-01,1,168,0.596733808517456,boat,boat,0,0168_rot_s01_0_boat_20_n02951358_14966.png
subject-01,1,169,1.07462406158447,oven,knife,90,0169_rot_s01_90_knife_20_n03041632_14801.png
subject-01,1,170,0.982661962509155,dog,dog,90,0170_rot_s01_90_dog_20_n02110063_8776.png
subject-01,1,171,0.912036895751953,dog,dog,180,0171_rot_s01_180_dog_20_n02100236_7671.png
subject-01,1,172,0.701947927474976,oven,oven,0,0172_rot_s01_0_oven_20_n04111531_21248.png
subject-01,1,173,1.39378190040588,knife,knife,270,0173_rot_s01_270_knife_20_n03041632_17100.png
subject-01,1,174,0.979604959487915,knife,knife,0,0174_rot_s01_0_knife_20_n03041632_3781.png
subject-01,1,175,1.50007009506226,bottle,oven,270,0175_rot_s01_270_oven_20_n04111531_46651.png
subject-01,1,176,0.809221029281616,clock,clock,0,0176_rot_s01_0_clock_20_n04548280_8303.png
subject-01,1,177,0.656942129135132,airplane,airplane,0,0177_rot_s01_0_airplane_20_n02690373_2070.png
subject-01,1,178,0.925101041793823,car,car,180,0178_rot_s01_180_car_20_n03100240_574.png
subject-01,1,179,0.936727046966553,bear,dog,90,0179_rot_s01_90_dog_20_n02095570_11263.png
subject-01,1,180,0.890494108200073,oven,bottle,180,0180_rot_s01_180_bottle_20_n03983396_9667.png
subject-01,1,181,0.606384038925171,clock,clock,0,0181_rot_s01_0_clock_20_n02708093_3535.png
subject-01,1,182,0.774178028106689,bird,bird,180,0182_rot_s01_180_bird_20_n01531178_17239.png
subject-01,1,183,0.8039231300354,elephant,elephant,180,0183_rot_s01_180_elephant_20_n02504458_2272.png
subject-01,1,184,0.663590908050537,knife,knife,90,0184_rot_s01_90_knife_20_n03041632_50648.png
subject-01,1,185,0.937499046325684,bottle,knife,0,0185_rot_s01_0_knife_20_n03041632_33225.png
subject-01,1,186,0.913179159164429,airplane,airplane,0,0186_rot_s01_0_airplane_20_n02690373_736.png
subject-01,1,187,1.08919501304626,bottle,knife,270,0187_rot_s01_270_knife_20_n03041632_2546.png
subject-01,1,188,1.15701389312744,airplane,boat,180,0188_rot_s01_180_boat_20_n04273569_13053.png
subject-01,1,189,1.4551088809967,bear,airplane,180,0189_rot_s01_180_airplane_20_n02690373_3588.png
subject-01,1,190,0.546577215194702,cat,keyboard,0,0190_rot_s01_0_keyboard_20_n03085013_21004.png
subject-01,1,191,1.05639696121216,boat,boat,180,0191_rot_s01_180_boat_20_n03662601_16627.png
subject-01,1,192,1.3643159866333,elephant,bird,180,0192_rot_s01_180_bird_20_n02017213_6478.png
subject-01,1,193,0.793920040130615,bear,bear,90,0193_rot_s01_90_bear_20_n02134418_998.png
subject-01,1,194,1.14582204818726,car,truck,90,0194_rot_s01_90_truck_20_n04467665_71055.png
subject-01,1,195,0.727725028991699,car,car,90,0195_rot_s01_90_car_20_n02814533_23979.png
subject-01,1,196,0.993421077728271,bear,elephant,180,0196_rot_s01_180_elephant_20_n02504458_6805.png
subject-01,1,197,0.693391084671021,clock,clock,90,0197_rot_s01_90_clock_20_n04548280_4841.png
subject-01,1,198,0.667504072189331,boat,boat,90,0198_rot_s01_90_boat_20_n03662601_6832.png
subject-01,1,199,0.94675612449646,oven,oven,270,0199_rot_s01_270_oven_20_n04111531_766.png
subject-01,1,200,0.742691993713379,clock,clock,0,0200_rot_s01_0_clock_20_n04548280_1305.png
subject-01,1,201,0.870580911636353,bicycle,bicycle,0,0201_rot_s01_0_bicycle_20_n03792782_19083.png
subject-01,1,202,1.50008916854858,elephant,bird,90,0202_rot_s01_90_bird_20_n01860187_20081.png
subject-01,1,203,0.786112070083618,oven,oven,0,0203_rot_s01_0_oven_20_n04111531_4817.png
subject-01,1,204,0.755856037139893,car,car,180,0204_rot_s01_180_car_20_n02814533_33360.png
subject-01,1,205,0.673985958099365,clock,clock,270,0205_rot_s01_270_clock_20_n04548280_4035.png
subject-01,1,206,0.7295081615448,keyboard,keyboard,270,0206_rot_s01_270_keyboard_20_n03085013_7879.png
subject-01,1,207,0.669287204742432,airplane,airplane,0,0207_rot_s01_0_airplane_20_n02690373_2598.png
subject-01,1,208,0.61906099319458,cat,cat,180,0208_rot_s01_180_cat_20_n02123045_436.png
subject-01,1,209,0.861243009567261,airplane,airplane,270,0209_rot_s01_270_airplane_20_n02690373_813.png
subject-01,1,210,0.824725151062012,cat,cat,0,0210_rot_s01_0_cat_20_n02123159_1008.png
subject-01,1,211,0.856802940368652,bottle,bottle,90,0211_rot_s01_90_bottle_20_n03983396_5452.png
subject-01,1,212,1.00657820701599,dog,dog,90,0212_rot_s01_90_dog_20_n02090379_13010.png
subject-01,1,213,1.10631704330444,airplane,chair,180,0213_rot_s01_180_chair_20_n04099969_4162.png
subject-01,1,214,1.12836217880249,keyboard,keyboard,270,0214_rot_s01_270_keyboard_20_n04505470_206.png
subject-01,1,215,0.616216897964478,cat,cat,0,0215_rot_s01_0_cat_20_n02123045_5290.png
subject-01,1,216,1.42578601837158,elephant,bird,180,0216_rot_s01_180_bird_20_n01843383_6001.png
subject-01,1,217,1.00961494445801,knife,knife,0,0217_rot_s01_0_knife_20_n03041632_24376.png
subject-01,1,218,0.973375797271729,bicycle,bicycle,90,0218_rot_s01_90_bicycle_20_n02835271_2915.png
subject-01,1,219,0.743526935577393,bicycle,bicycle,0,0219_rot_s01_0_bicycle_20_n03792782_5517.png
subject-01,1,220,0.742935180664062,bicycle,bicycle,90,0220_rot_s01_90_bicycle_20_n02835271_7053.png
subject-01,1,221,0.740753889083862,clock,clock,180,0221_rot_s01_180_clock_20_n04548280_7115.png
subject-01,1,222,1.02456212043762,car,boat,270,0222_rot_s01_270_boat_20_n04273569_29866.png
subject-01,1,223,0.65854287147522,clock,clock,90,0223_rot_s01_90_clock_20_n02708093_3623.png
subject-01,1,224,0.98232889175415,bear,bear,180,0224_rot_s01_180_bear_20_n02132136_7468.png
subject-01,1,225,0.715999126434326,cat,cat,0,0225_rot_s01_0_cat_20_n02123159_2137.png
subject-01,1,226,0.786041975021362,bottle,bottle,90,0226_rot_s01_90_bottle_20_n03937543_5257.png
subject-01,1,227,0.727654218673706,cat,cat,0,0227_rot_s01_0_cat_20_n02123394_937.png
subject-01,1,228,0.735316038131714,boat,boat,0,0228_rot_s01_0_boat_20_n03662601_11764.png
subject-01,1,229,1.02131390571594,bear,bear,0,0229_rot_s01_0_bear_20_n02132136_10412.png
subject-01,1,230,0.714964151382446,clock,clock,270,0230_rot_s01_270_clock_20_n03196217_3600.png
subject-01,1,231,0.975135087966919,dog,dog,270,0231_rot_s01_270_dog_20_n02102177_255.png
subject-01,1,232,0.872668981552124,bird,bird,270,0232_rot_s01_270_bird_20_n01614925_1860.png
subject-01,1,233,1.2689061164856,airplane,airplane,180,0233_rot_s01_180_airplane_20_n02690373_1021.png
subject-01,1,234,0.74835205078125,chair,chair,180,0234_rot_s01_180_chair_20_n03376595_9079.png
subject-01,1,235,0.778028011322021,chair,chair,90,0235_rot_s01_90_chair_20_n02791124_5199.png
subject-01,1,236,0.786395072937012,keyboard,keyboard,90,0236_rot_s01_90_keyboard_20_n03085013_24294.png
subject-01,1,237,0.711734056472778,cat,cat,0,0237_rot_s01_0_cat_20_n02123597_13286.png
subject-01,1,238,0.633449077606201,bird,bird,180,0238_rot_s01_180_bird_20_n01560419_17392.png
subject-01,1,239,0.717660903930664,oven,oven,270,0239_rot_s01_270_oven_20_n04111531_6934.png
subject-01,1,240,0.945204019546509,clock,clock,90,0240_rot_s01_90_clock_20_n03196217_6707.png
subject-01,1,241,1.06079506874084,knife,knife,180,0241_rot_s01_180_knife_20_n03041632_15174.png
subject-01,1,242,0.632222890853882,oven,oven,180,0242_rot_s01_180_oven_20_n04111531_13644.png
subject-01,1,243,0.728299140930176,elephant,elephant,0,0243_rot_s01_0_elephant_20_n02504458_3458.png
subject-01,1,244,0.763720035552979,clock,clock,90,0244_rot_s01_90_clock_20_n04548280_18914.png
subject-01,1,245,0.905965089797974,dog,dog,180,0245_rot_s01_180_dog_20_n02107908_2754.png
subject-01,1,246,0.93161678314209,airplane,airplane,0,0246_rot_s01_0_airplane_20_n02690373_1306.png
subject-01,1,247,0.769255876541138,chair,chair,90,0247_rot_s01_90_chair_20_n03376595_10266.png
subject-01,1,248,0.868831872940063,keyboard,keyboard,270,0248_rot_s01_270_keyboard_20_n04505470_1416.png
subject-01,1,249,0.657024145126343,clock,clock,180,0249_rot_s01_180_clock_20_n04548280_4686.png
subject-01,1,250,1.10243010520935,truck,truck,270,0250_rot_s01_270_truck_20_n04467665_69882.png
subject-01,1,251,0.740628957748413,bottle,bottle,270,0251_rot_s01_270_bottle_20_n04591713_2123.png
subject-01,1,252,NaN,na,oven,90,0252_rot_s01_90_oven_20_n04111531_6933.png
subject-01,1,253,1.25010418891907,car,car,270,0253_rot_s01_270_car_20_n03100240_8898.png
subject-01,1,254,0.883949041366577,elephant,elephant,180,0254_rot_s01_180_elephant_20_n02504458_5277.png
subject-01,1,255,0.907590866088867,truck,truck,270,0255_rot_s01_270_truck_20_n03417042_9967.png
subject-01,1,256,0.851587057113647,bear,bear,0,0256_rot_s01_0_bear_20_n02134418_1017.png
subject-01,1,257,1.12345790863037,car,airplane,90,0257_rot_s01_90_airplane_20_n02690373_1909.png
subject-01,1,258,0.835148096084595,airplane,airplane,0,0258_rot_s01_0_airplane_20_n02690373_6753.png
subject-01,1,259,0.753031969070435,airplane,airplane,0,0259_rot_s01_0_airplane_20_n02690373_1972.png
subject-01,1,260,0.708610057830811,oven,oven,90,0260_rot_s01_90_oven_20_n04111531_9915.png
subject-01,1,261,0.832455158233643,elephant,elephant,270,0261_rot_s01_270_elephant_20_n02504458_485.png
subject-01,1,262,1.06638407707214,elephant,elephant,180,0262_rot_s01_180_elephant_20_n02504013_2431.png
subject-01,1,263,0.700225830078125,clock,clock,180,0263_rot_s01_180_clock_20_n02708093_1038.png
subject-01,1,264,0.679963111877441,cat,cat,270,0264_rot_s01_270_cat_20_n02123597_5927.png
subject-01,1,265,0.672258853912354,bicycle,bicycle,90,0265_rot_s01_90_bicycle_20_n03792782_3202.png
subject-01,1,266,0.957509994506836,car,car,270,0266_rot_s01_270_car_20_n02814533_45480.png
subject-01,1,267,1.21364092826843,truck,truck,90,0267_rot_s01_90_truck_20_n03796401_4571.png
subject-01,1,268,0.65937614440918,oven,oven,90,0268_rot_s01_90_oven_20_n04111531_21011.png
subject-01,1,269,0.76322603225708,airplane,airplane,0,0269_rot_s01_0_airplane_20_n02690373_4310.png
subject-01,1,270,1.06085991859436,oven,oven,0,0270_rot_s01_0_oven_20_n04111531_7134.png
subject-01,1,271,1.15880703926086,dog,dog,270,0271_rot_s01_270_dog_20_n02105251_1092.png
subject-01,1,272,1.09253287315369,knife,knife,180,0272_rot_s01_180_knife_20_n03041632_34505.png
subject-01,1,273,0.760502099990845,keyboard,keyboard,90,0273_rot_s01_90_keyboard_20_n04505470_4520.png
subject-01,1,274,0.854146003723145,car,boat,180,0274_rot_s01_180_boat_20_n03344393_1519.png
subject-01,1,275,1.18414306640625,chair,chair,270,0275_rot_s01_270_chair_20_n03376595_9535.png
subject-01,1,276,1.03597283363342,bear,cat,270,0276_rot_s01_270_cat_20_n02125311_1326.png
subject-01,1,277,0.751894950866699,cat,cat,90,0277_rot_s01_90_cat_20_n02123394_2948.png
subject-01,1,278,0.681572914123535,oven,oven,270,0278_rot_s01_270_oven_20_n04111531_5429.png
subject-01,1,279,1.03113508224487,bear,elephant,0,0279_rot_s01_0_elephant_20_n02504013_6645.png
subject-01,1,280,1.00289297103882,oven,keyboard,90,0280_rot_s01_90_keyboard_20_n04505470_4159.png
subject-01,1,281,0.917140960693359,bottle,bottle,90,0281_rot_s01_90_bottle_20_n02823428_6252.png
subject-01,1,282,1.26669692993164,airplane,airplane,180,0282_rot_s01_180_airplane_20_n02690373_15097.png
subject-01,1,283,0.93033504486084,oven,cat,0,0283_rot_s01_0_cat_20_n02123159_3420.png
subject-01,1,284,0.698273897171021,cat,cat,0,0284_rot_s01_0_cat_20_n02124075_7835.png
subject-01,1,285,0.652164936065674,cat,cat,90,0285_rot_s01_90_cat_20_n02123045_6696.png
subject-01,1,286,0.707879066467285,boat,boat,180,0286_rot_s01_180_boat_20_n02951358_34766.png
subject-01,1,287,0.937694072723389,bird,bird,0,0287_rot_s01_0_bird_20_n01855672_8191.png
subject-01,1,288,1.10736608505249,truck,truck,180,0288_rot_s01_180_truck_20_n03796401_1150.png
subject-01,1,289,0.891158819198608,bicycle,bicycle,270,0289_rot_s01_270_bicycle_20_n03792782_9782.png
subject-01,1,290,0.775049924850464,boat,boat,270,0290_rot_s01_270_boat_20_n03662601_12969.png
subject-01,1,291,1.06514286994934,truck,bottle,180,0291_rot_s01_180_bottle_20_n02823428_4530.png
subject-01,1,292,1.11689305305481,chair,chair,0,0292_rot_s01_0_chair_20_n02791124_2898.png
subject-01,1,293,1.11858582496643,cat,cat,270,0293_rot_s01_270_cat_20_n02123394_686.png
subject-01,1,294,0.970471143722534,dog,dog,180,0294_rot_s01_180_dog_20_n02100735_4364.png
subject-01,1,295,1.01411604881287,dog,dog,0,0295_rot_s01_0_dog_20_n02102177_7968.png
subject-01,1,296,1.30983781814575,knife,knife,270,0296_rot_s01_270_knife_20_n03041632_15099.png
subject-01,1,297,0.895869970321655,oven,oven,180,0297_rot_s01_180_oven_20_n04111531_2937.png
subject-01,1,298,0.66958212852478,cat,cat,0,0298_rot_s01_0_cat_20_n02123394_3695.png
subject-01,1,299,0.9095139503479,bear,bear,180,0299_rot_s01_180_bear_20_n02134084_3696.png
subject-01,1,300,1.04728603363037,oven,oven,270,0300_rot_s01_270_oven_20_n04111531_4671.png
subject-01,1,301,1.18116784095764,dog,bear,180,0301_rot_s01_180_bear_20_n02133161_2741.png
subject-01,1,302,0.706856966018677,boat,boat,90,0302_rot_s01_90_boat_20_n03662601_3893.png
subject-01,1,303,1.15849781036377,truck,boat,90,0303_rot_s01_90_boat_20_n03344393_2790.png
subject-01,1,304,0.786317110061646,keyboard,keyboard,180,0304_rot_s01_180_keyboard_20_n03085013_3920.png
subject-01,1,305,0.720304012298584,chair,chair,90,0305_rot_s01_90_chair_20_n04099969_1962.png
subject-01,1,306,0.908137083053589,knife,knife,0,0306_rot_s01_0_knife_20_n03041632_13846.png
subject-01,1,307,0.786009073257446,boat,boat,0,0307_rot_s01_0_boat_20_n02951358_30117.png
subject-01,1,308,1.03589606285095,elephant,elephant,270,0308_rot_s01_270_elephant_20_n02504458_9922.png
subject-01,1,309,0.593940019607544,boat,boat,180,0309_rot_s01_180_boat_20_n03344393_5609.png
subject-01,1,310,0.779311180114746,chair,chair,0,0310_rot_s01_0_chair_20_n02791124_3180.png
subject-01,1,311,1.47717690467834,bear,boat,90,0311_rot_s01_90_boat_20_n02951358_12532.png
subject-01,1,312,1.34481000900269,boat,cat,180,0312_rot_s01_180_cat_20_n02123597_1901.png
subject-01,1,313,0.773094892501831,elephant,elephant,270,0313_rot_s01_270_elephant_20_n02504013_5173.png
subject-01,1,314,1.14880585670471,clock,car,180,0314_rot_s01_180_car_20_n04285008_4834.png
subject-01,1,315,0.948256969451904,truck,truck,270,0315_rot_s01_270_truck_20_n03417042_28584.png
subject-01,1,316,1.08224701881409,dog,dog,180,0316_rot_s01_180_dog_20_n02093428_11151.png
subject-01,1,317,0.945955038070679,bicycle,bicycle,90,0317_rot_s01_90_bicycle_20_n03792782_1475.png
subject-01,1,318,0.883764982223511,oven,knife,0,0318_rot_s01_0_knife_20_n03041632_8666.png
subject-01,1,319,0.789606094360352,clock,clock,0,0319_rot_s01_0_clock_20_n04548280_253.png
subject-01,1,320,0.935473203659058,airplane,airplane,180,0320_rot_s01_180_airplane_20_n02690373_9441.png
subject-01,1,321,0.828404903411865,airplane,airplane,270,0321_rot_s01_270_airplane_20_n02690373_1946.png
subject-01,1,322,0.82406210899353,car,car,90,0322_rot_s01_90_car_20_n03100240_5044.png
subject-01,1,323,0.94841194152832,dog,dog,270,0323_rot_s01_270_dog_20_n02111500_6559.png
subject-01,1,324,0.877915143966675,dog,dog,270,0324_rot_s01_270_dog_20_n02096051_1852.png
subject-01,1,325,1.02365589141846,cat,bear,270,0325_rot_s01_270_bear_20_n02133161_5020.png
subject-01,1,326,0.869577169418335,chair,chair,90,0326_rot_s01_90_chair_20_n02791124_2034.png
subject-01,1,327,1.40127921104431,clock,clock,180,0327_rot_s01_180_clock_20_n03196217_6526.png
subject-01,1,328,1.18110680580139,boat,oven,180,0328_rot_s01_180_oven_20_n04111531_9779.png
subject-01,1,329,0.625093936920166,boat,boat,0,0329_rot_s01_0_boat_20_n03662601_28640.png
subject-01,1,330,1.03861808776855,knife,knife,90,0330_rot_s01_90_knife_20_n03041632_31301.png
subject-01,1,331,1.26845598220825,keyboard,keyboard,90,0331_rot_s01_90_keyboard_20_n03085013_9209.png
subject-01,1,332,1.14425587654114,bear,elephant,90,0332_rot_s01_90_elephant_20_n02504458_113.png
subject-01,1,333,0.850161075592041,bicycle,bicycle,180,0333_rot_s01_180_bicycle_20_n03792782_6058.png
subject-01,1,334,0.891950845718384,keyboard,keyboard,0,0334_rot_s01_0_keyboard_20_n04505470_4651.png
subject-01,1,335,0.922007083892822,keyboard,keyboard,180,0335_rot_s01_180_keyboard_20_n03085013_7009.png
subject-01,1,336,0.755625009536743,truck,truck,270,0336_rot_s01_270_truck_20_n04467665_44390.png
subject-01,1,337,0.979441165924072,boat,boat,90,0337_rot_s01_90_boat_20_n04273569_17340.png
subject-01,1,338,0.701312065124512,elephant,elephant,0,0338_rot_s01_0_elephant_20_n02504013_1333.png
subject-01,1,339,1.08306503295898,knife,knife,270,0339_rot_s01_270_knife_20_n03041632_50034.png
subject-01,1,340,0.812802076339722,clock,clock,90,0340_rot_s01_90_clock_20_n02708093_2740.png
subject-01,1,341,1.09686899185181,bear,bear,0,0341_rot_s01_0_bear_20_n02132136_13975.png
subject-01,1,342,1.34848713874817,cat,elephant,90,0342_rot_s01_90_elephant_20_n02504013_256.png
subject-01,1,343,0.598232984542847,boat,boat,90,0343_rot_s01_90_boat_20_n03344393_6588.png
subject-01,1,344,0.852023839950562,knife,knife,270,0344_rot_s01_270_knife_20_n03041632_7173.png
subject-01,1,345,0.867807865142822,boat,elephant,180,0345_rot_s01_180_elephant_20_n02504458_1041.png
subject-01,1,346,0.827805995941162,chair,chair,180,0346_rot_s01_180_chair_20_n04099969_8021.png
subject-01,1,347,0.717448949813843,truck,truck,0,0347_rot_s01_0_truck_20_n03796401_1791.png
subject-01,1,348,0.973546028137207,keyboard,keyboard,90,0348_rot_s01_90_keyboard_20_n04505470_5007.png
subject-01,1,349,0.895155906677246,bicycle,truck,180,0349_rot_s01_180_truck_20_n03417042_29384.png
subject-01,1,350,1.26326990127563,bear,bird,90,0350_rot_s01_90_bird_20_n01534433_1271.png
subject-01,1,351,0.92280101776123,dog,dog,270,0351_rot_s01_270_dog_20_n02113624_393.png
subject-01,1,352,0.756508111953735,cat,cat,90,0352_rot_s01_90_cat_20_n02123159_5461.png
subject-01,1,353,1.33245801925659,knife,knife,270,0353_rot_s01_270_knife_20_n03041632_9759.png
subject-01,1,354,1.25624418258667,oven,chair,90,0354_rot_s01_90_chair_20_n04429376_1754.png
subject-01,1,355,0.999844074249268,knife,oven,90,0355_rot_s01_90_oven_20_n04111531_1818.png
subject-01,1,356,1.01203393936157,clock,clock,0,0356_rot_s01_0_clock_20_n04548280_5798.png
subject-01,1,357,0.855601072311401,knife,oven,90,0357_rot_s01_90_oven_20_n04111531_3099.png
subject-01,1,358,0.823548793792725,bottle,bottle,270,0358_rot_s01_270_bottle_20_n04557648_581.png
subject-01,1,359,0.807235956192017,bird,bird,0,0359_rot_s01_0_bird_20_n01531178_3183.png
subject-01,1,360,0.666965007781982,airplane,airplane,90,0360_rot_s01_90_airplane_20_n02690373_8872.png
subject-01,1,361,0.562775135040283,cat,cat,0,0361_rot_s01_0_cat_20_n02123394_5301.png
subject-01,1,362,0.716938972473145,bicycle,bicycle,270,0362_rot_s01_270_bicycle_20_n03792782_12844.png
subject-01,1,363,0.938502073287964,bear,bear,90,0363_rot_s01_90_bear_20_n02132136_2691.png
subject-01,1,364,0.830166101455688,car,car,0,0364_rot_s01_0_car_20_n02814533_27327.png
subject-01,1,365,0.902124166488647,bird,bird,0,0365_rot_s01_0_bird_20_n02027492_7653.png
subject-01,1,366,0.655925989151001,bear,bear,0,0366_rot_s01_0_bear_20_n02133161_62.png
subject-01,1,367,1.10187315940857,bottle,bottle,0,0367_rot_s01_0_bottle_20_n04560804_9710.png
subject-01,1,368,0.827595949172974,clock,clock,180,0368_rot_s01_180_clock_20_n04548280_15154.png
subject-01,1,369,0.835381984710693,oven,oven,180,0369_rot_s01_180_oven_20_n04111531_114.png
subject-01,1,370,1.005126953125,bear,cat,180,0370_rot_s01_180_cat_20_n02125311_24813.png
subject-01,1,371,0.805060148239136,airplane,airplane,90,0371_rot_s01_90_airplane_20_n02690373_7647.png
subject-01,1,372,0.801139831542969,bottle,bottle,0,0372_rot_s01_0_bottle_20_n03983396_9823.png
subject-01,1,373,1.17283701896667,bear,bear,0,0373_rot_s01_0_bear_20_n02134418_2398.png
subject-01,1,374,0.796467065811157,keyboard,keyboard,90,0374_rot_s01_90_keyboard_20_n04505470_4584.png
subject-01,1,375,0.976539134979248,keyboard,keyboard,0,0375_rot_s01_0_keyboard_20_n04505470_10055.png
subject-01,1,376,0.68618106842041,boat,boat,270,0376_rot_s01_270_boat_20_n04273569_10980.png
subject-01,1,377,1.16981482505798,car,car,180,0377_rot_s01_180_car_20_n03100240_16210.png
subject-01,1,378,0.843662023544312,keyboard,keyboard,0,0378_rot_s01_0_keyboard_20_n04505470_1067.png
subject-01,1,379,1.35338091850281,elephant,elephant,0,0379_rot_s01_0_elephant_20_n02504458_7867.png
subject-01,1,380,0.723574161529541,keyboard,keyboard,180,0380_rot_s01_180_keyboard_20_n04505470_807.png
subject-01,1,381,0.793004035949707,bicycle,bicycle,270,0381_rot_s01_270_bicycle_20_n02835271_24104.png
subject-01,1,382,0.882763862609863,bottle,bottle,0,0382_rot_s01_0_bottle_20_n03937543_6698.png
subject-01,1,383,0.746732950210571,bicycle,oven,0,0383_rot_s01_0_oven_20_n04111531_10403.png
subject-01,1,384,0.726587057113647,truck,truck,0,0384_rot_s01_0_truck_20_n03796401_8463.png
subject-01,1,385,0.948745012283325,truck,truck,0,0385_rot_s01_0_truck_20_n03796401_8176.png
subject-01,1,386,0.800052881240845,bottle,bottle,90,0386_rot_s01_90_bottle_20_n03937543_984.png
subject-01,1,387,0.759997844696045,bicycle,bicycle,90,0387_rot_s01_90_bicycle_20_n02835271_11697.png
subject-01,1,388,0.789821863174438,keyboard,keyboard,270,0388_rot_s01_270_keyboard_20_n03085013_22417.png
subject-01,1,389,1.281653881073,truck,car,270,0389_rot_s01_270_car_20_n03100240_7602.png
subject-01,1,390,0.891488790512085,bird,bird,90,0390_rot_s01_90_bird_20_n01534433_14389.png
subject-01,1,391,1.14316701889038,bear,bear,0,0391_rot_s01_0_bear_20_n02134084_2598.png
subject-01,1,392,1.50014710426331,bird,bird,180,0392_rot_s01_180_bird_20_n01560419_19599.png
subject-01,1,393,1.03683400154114,bicycle,bicycle,90,0393_rot_s01_90_bicycle_20_n02835271_8747.png
subject-01,1,394,1.50000882148743,knife,knife,180,0394_rot_s01_180_knife_20_n03041632_30821.png
subject-01,1,395,1.44255781173706,bear,chair,270,0395_rot_s01_270_chair_20_n03376595_209.png
subject-01,1,396,1.1363251209259,chair,boat,180,0396_rot_s01_180_boat_20_n04273569_29113.png
subject-01,1,397,1.04607510566711,oven,bird,270,0397_rot_s01_270_bird_20_n02006656_6435.png
subject-01,1,398,0.863791942596436,airplane,airplane,90,0398_rot_s01_90_airplane_20_n02690373_3492.png
subject-01,1,399,0.715699911117554,oven,oven,270,0399_rot_s01_270_oven_20_n04111531_9380.png
subject-01,1,400,0.82142186164856,keyboard,keyboard,270,0400_rot_s01_270_keyboard_20_n04505470_510.png
subject-01,1,401,1.3832221031189,bird,bird,180,0401_rot_s01_180_bird_20_n02027492_20576.png
subject-01,1,402,0.786903142929077,boat,bird,90,0402_rot_s01_90_bird_20_n01855032_1920.png
subject-01,1,403,0.836602926254272,boat,boat,180,0403_rot_s01_180_boat_20_n04273569_15761.png
subject-01,1,404,0.568558931350708,oven,oven,180,0404_rot_s01_180_oven_20_n04111531_10667.png
subject-01,1,405,0.790365934371948,knife,knife,270,0405_rot_s01_270_knife_20_n03041632_36215.png
subject-01,1,406,0.906152963638306,bicycle,bicycle,180,0406_rot_s01_180_bicycle_20_n02835271_2625.png
subject-01,1,407,0.962167024612427,bird,bird,270,0407_rot_s01_270_bird_20_n02028035_20411.png
subject-01,1,408,1.22164297103882,knife,knife,0,0408_rot_s01_0_knife_20_n03041632_25656.png
subject-01,1,409,0.929463863372803,oven,oven,270,0409_rot_s01_270_oven_20_n04111531_4332.png
subject-01,1,410,1.05527210235596,keyboard,keyboard,180,0410_rot_s01_180_keyboard_20_n04505470_3553.png
subject-01,1,411,0.929130077362061,bicycle,bicycle,180,0411_rot_s01_180_bicycle_20_n02835271_18706.png
subject-01,1,412,1.32314109802246,car,truck,270,0412_rot_s01_270_truck_20_n03417042_10744.png
subject-01,1,413,0.782963037490845,clock,clock,0,0413_rot_s01_0_clock_20_n03196217_11724.png
subject-01,1,414,0.800714015960693,bicycle,bicycle,270,0414_rot_s01_270_bicycle_20_n02835271_14123.png
subject-01,1,415,0.784199953079224,bicycle,bicycle,270,0415_rot_s01_270_bicycle_20_n02835271_7900.png
subject-01,1,416,1.09822392463684,truck,truck,270,0416_rot_s01_270_truck_20_n03417042_2153.png
subject-01,1,417,0.935998916625977,bicycle,bicycle,270,0417_rot_s01_270_bicycle_20_n03792782_10129.png
subject-01,1,418,0.941879987716675,bear,bird,180,0418_rot_s01_180_bird_20_n01514859_18430.png
subject-01,1,419,0.845623016357422,chair,chair,0,0419_rot_s01_0_chair_20_n04099969_5010.png
subject-01,1,420,0.899464130401611,truck,truck,0,0420_rot_s01_0_truck_20_n03796401_588.png
subject-01,1,421,1.12719702720642,car,car,0,0421_rot_s01_0_car_20_n02814533_486.png
subject-01,1,422,0.743030071258545,elephant,elephant,90,0422_rot_s01_90_elephant_20_n02504013_3540.png
subject-01,1,423,0.846820116043091,car,car,180,0423_rot_s01_180_car_20_n02814533_55715.png
subject-01,1,424,0.867081165313721,bottle,bottle,180,0424_rot_s01_180_bottle_20_n03983396_10896.png
subject-01,1,425,0.946430921554565,clock,bottle,90,0425_rot_s01_90_bottle_20_n04557648_15053.png
subject-01,1,426,0.916243076324463,car,car,0,0426_rot_s01_0_car_20_n04285008_8281.png
subject-01,1,427,0.826178073883057,car,car,270,0427_rot_s01_270_car_20_n02814533_38596.png
subject-01,1,428,0.881873846054077,elephant,elephant,270,0428_rot_s01_270_elephant_20_n02504013_15219.png
subject-01,1,429,1.04157781600952,elephant,elephant,180,0429_rot_s01_180_elephant_20_n02504013_828.png
subject-01,1,430,1.02971196174622,clock,oven,180,0430_rot_s01_180_oven_20_n04111531_1439.png
subject-01,1,431,0.761312007904053,bottle,bottle,90,0431_rot_s01_90_bottle_20_n03983396_3315.png
subject-01,1,432,0.865071058273315,airplane,airplane,90,0432_rot_s01_90_airplane_20_n02690373_4024.png
subject-01,1,433,1.11904406547546,elephant,elephant,270,0433_rot_s01_270_elephant_20_n02504013_10301.png
subject-01,1,434,0.66889500617981,oven,oven,180,0434_rot_s01_180_oven_20_n04111531_7067.png
subject-01,1,435,0.842811107635498,knife,knife,90,0435_rot_s01_90_knife_20_n03041632_36834.png
subject-01,1,436,0.754284143447876,car,car,90,0436_rot_s01_90_car_20_n02814533_18148.png
subject-01,1,437,1.22428297996521,elephant,cat,90,0437_rot_s01_90_cat_20_n02125311_41284.png
subject-01,1,438,0.819906949996948,bicycle,bicycle,0,0438_rot_s01_0_bicycle_20_n02835271_18188.png
subject-01,1,439,1.11198878288269,bottle,bottle,0,0439_rot_s01_0_bottle_20_n04591713_2903.png
subject-01,1,440,1.42169713973999,knife,knife,0,0440_rot_s01_0_knife_20_n03041632_54191.png
subject-01,1,441,1.05349397659302,car,truck,180,0441_rot_s01_180_truck_20_n03417042_8867.png
subject-01,1,442,0.867568969726562,bottle,oven,270,0442_rot_s01_270_oven_20_n04111531_8421.png
subject-01,1,443,0.973411083221436,elephant,elephant,270,0443_rot_s01_270_elephant_20_n02504013_4062.png
subject-01,1,444,0.95511794090271,keyboard,keyboard,270,0444_rot_s01_270_keyboard_20_n04505470_1649.png
subject-01,1,445,0.666774034500122,boat,boat,180,0445_rot_s01_180_boat_20_n03344393_7967.png
subject-01,1,446,0.820597887039185,bicycle,bicycle,0,0446_rot_s01_0_bicycle_20_n02835271_10265.png
subject-01,1,447,0.928224802017212,bicycle,bicycle,180,0447_rot_s01_180_bicycle_20_n02835271_6742.png
subject-01,1,448,0.970201015472412,cat,cat,180,0448_rot_s01_180_cat_20_n02123045_3168.png
subject-01,1,449,0.90587592124939,car,car,180,0449_rot_s01_180_car_20_n03100240_8489.png
subject-01,1,450,0.897706985473633,oven,oven,270,0450_rot_s01_270_oven_20_n04111531_1826.png
subject-01,1,451,0.921557903289795,bear,dog,180,0451_rot_s01_180_dog_20_n02104365_1592.png
subject-01,1,452,0.843538999557495,boat,boat,90,0452_rot_s01_90_boat_20_n02951358_4343.png
subject-01,1,453,0.763245820999146,bottle,bottle,0,0453_rot_s01_0_bottle_20_n02823428_4282.png
subject-01,1,454,0.955173969268799,bird,bird,0,0454_rot_s01_0_bird_20_n01817953_2043.png
subject-01,1,455,1.07091617584229,cat,dog,0,0455_rot_s01_0_dog_20_n02110958_14369.png
subject-01,1,456,0.948718070983887,dog,dog,270,0456_rot_s01_270_dog_20_n02108000_1044.png
subject-01,1,457,0.974478006362915,dog,dog,270,0457_rot_s01_270_dog_20_n02087394_1428.png
subject-01,1,458,0.93044900894165,airplane,airplane,90,0458_rot_s01_90_airplane_20_n02690373_2856.png
subject-01,1,459,1.27196002006531,chair,chair,0,0459_rot_s01_0_chair_20_n03376595_19165.png
subject-01,1,460,0.945932149887085,chair,chair,270,0460_rot_s01_270_chair_20_n04099969_42125.png
subject-01,1,461,0.813969850540161,bottle,bottle,270,0461_rot_s01_270_bottle_20_n02823428_12656.png
subject-01,1,462,0.745635986328125,bicycle,bicycle,180,0462_rot_s01_180_bicycle_20_n02835271_5861.png
subject-01,1,463,0.847195148468018,airplane,airplane,90,0463_rot_s01_90_airplane_20_n02690373_19345.png
subject-01,1,464,0.829172849655151,clock,clock,90,0464_rot_s01_90_clock_20_n02708093_8069.png
subject-01,1,465,0.719003915786743,chair,chair,270,0465_rot_s01_270_chair_20_n04099969_16.png
subject-01,1,466,0.892982959747314,dog,dog,270,0466_rot_s01_270_dog_20_n02104365_1756.png
subject-01,1,467,0.872531175613403,cat,bird,270,0467_rot_s01_270_bird_20_n01819313_17231.png
subject-01,1,468,0.838422060012817,car,car,90,0468_rot_s01_90_car_20_n02814533_34149.png
subject-01,1,469,1.45812201499939,knife,knife,0,0469_rot_s01_0_knife_20_n03041632_26053.png
subject-01,1,470,0.722121000289917,oven,oven,0,0470_rot_s01_0_oven_20_n04111531_11287.png
subject-01,1,471,0.907805919647217,bottle,bottle,0,0471_rot_s01_0_bottle_20_n03937543_11959.png
subject-01,1,472,1.01955318450928,airplane,airplane,270,0472_rot_s01_270_airplane_20_n02690373_1348.png
subject-01,1,473,0.955387830734253,bear,bear,0,0473_rot_s01_0_bear_20_n02132136_5175.png
subject-01,1,474,0.887204885482788,keyboard,keyboard,270,0474_rot_s01_270_keyboard_20_n03085013_7382.png
subject-01,1,475,1.19505500793457,chair,dog,270,0475_rot_s01_270_dog_20_n02109961_4280.png
subject-01,1,476,0.976952075958252,bicycle,truck,90,0476_rot_s01_90_truck_20_n03417042_1344.png
subject-01,1,477,0.822645902633667,elephant,elephant,0,0477_rot_s01_0_elephant_20_n02504013_9299.png
subject-01,1,478,0.654521942138672,bear,bear,0,0478_rot_s01_0_bear_20_n02134418_5527.png
subject-01,1,479,0.890219926834106,keyboard,keyboard,270,0479_rot_s01_270_keyboard_20_n03085013_23109.png
subject-01,1,480,0.774022817611694,bear,bear,180,0480_rot_s01_180_bear_20_n02133161_4393.png
subject-01,1,481,0.796173095703125,oven,oven,0,0481_rot_s01_0_oven_20_n04111531_73.png
subject-01,1,482,0.906020879745483,bottle,keyboard,0,0482_rot_s01_0_keyboard_20_n03085013_7613.png
subject-01,1,483,0.723694086074829,oven,oven,180,0483_rot_s01_180_oven_20_n04111531_2795.png
subject-01,1,484,0.615582942962646,oven,oven,0,0484_rot_s01_0_oven_20_n04111531_22517.png
subject-01,1,485,1.17940902709961,elephant,elephant,90,0485_rot_s01_90_elephant_20_n02504458_2613.png
subject-01,1,486,0.609166145324707,oven,oven,180,0486_rot_s01_180_oven_20_n04111531_9176.png
subject-01,1,487,0.67882513999939,bottle,bottle,180,0487_rot_s01_180_bottle_20_n04557648_5790.png
subject-01,1,488,0.902815103530884,truck,truck,90,0488_rot_s01_90_truck_20_n04467665_9812.png
subject-01,1,489,0.996577024459839,clock,bottle,0,0489_rot_s01_0_bottle_20_n04591713_7476.png
subject-01,1,490,0.850375890731812,elephant,elephant,90,0490_rot_s01_90_elephant_20_n02504458_1567.png
subject-01,1,491,0.784140110015869,clock,clock,90,0491_rot_s01_90_clock_20_n04548280_6865.png
subject-01,1,492,0.872051954269409,bottle,bottle,180,0492_rot_s01_180_bottle_20_n02823428_3.png
subject-01,1,493,0.651957988739014,boat,boat,90,0493_rot_s01_90_boat_20_n04273569_8951.png
subject-01,1,494,0.849572896957397,knife,knife,180,0494_rot_s01_180_knife_20_n03041632_53874.png
subject-01,1,495,1.23556995391846,oven,clock,0,0495_rot_s01_0_clock_20_n04548280_6126.png
subject-01,1,496,1.19318604469299,cat,cat,180,0496_rot_s01_180_cat_20_n02123597_6186.png
subject-01,1,497,0.813054084777832,cat,cat,270,0497_rot_s01_270_cat_20_n02124075_14662.png
subject-01,1,498,0.846834897994995,car,car,90,0498_rot_s01_90_car_20_n04285008_8677.png
subject-01,1,499,0.951024055480957,bird,bird,90,0499_rot_s01_90_bird_20_n01820546_2568.png
subject-01,1,500,0.924640893936157,clock,clock,90,0500_rot_s01_90_clock_20_n04548280_7354.png
subject-01,1,501,0.906440019607544,bicycle,bicycle,270,0501_rot_s01_270_bicycle_20_n03792782_586.png
subject-01,1,502,0.904211044311523,bear,bear,0,0502_rot_s01_0_bear_20_n02134084_572.png
subject-01,1,503,1.22996997833252,bicycle,bicycle,270,0503_rot_s01_270_bicycle_20_n03792782_3388.png
subject-01,1,504,1.0701630115509,bicycle,bicycle,270,0504_rot_s01_270_bicycle_20_n03792782_28970.png
subject-01,1,505,1.2178270816803,bicycle,bottle,270,0505_rot_s01_270_bottle_20_n04560804_11386.png
subject-01,1,506,0.879745960235596,chair,chair,180,0506_rot_s01_180_chair_20_n03376595_6799.png
subject-01,1,507,1.03113484382629,dog,dog,270,0507_rot_s01_270_dog_20_n02094258_6398.png
subject-01,1,508,1.17088794708252,bird,bird,0,0508_rot_s01_0_bird_20_n01592084_2639.png
subject-01,1,509,1.21478891372681,bird,bird,180,0509_rot_s01_180_bird_20_n02017213_4781.png
subject-01,1,510,0.821070194244385,boat,airplane,270,0510_rot_s01_270_airplane_20_n02690373_3818.png
subject-01,1,511,1.10081505775452,bicycle,bicycle,90,0511_rot_s01_90_bicycle_20_n03792782_26383.png
subject-01,1,512,0.778401136398315,oven,oven,90,0512_rot_s01_90_oven_20_n04111531_5216.png
subject-01,1,513,1.12820315361023,airplane,airplane,180,0513_rot_s01_180_airplane_20_n02690373_20331.png
subject-01,1,514,1.36205220222473,truck,truck,180,0514_rot_s01_180_truck_20_n04467665_23691.png
subject-01,1,515,1.16977715492249,bird,bird,0,0515_rot_s01_0_bird_20_n02009229_492.png
subject-01,1,516,1.19555902481079,bird,bird,90,0516_rot_s01_90_bird_20_n02002556_5890.png
subject-01,1,517,1.18135118484497,boat,bird,270,0517_rot_s01_270_bird_20_n01855032_5358.png
subject-01,1,518,0.897269010543823,cat,dog,180,0518_rot_s01_180_dog_20_n02112350_10026.png
subject-01,1,519,1.07297515869141,bottle,knife,90,0519_rot_s01_90_knife_20_n03041632_11773.png
subject-01,1,520,1.50013089179993,elephant,elephant,0,0520_rot_s01_0_elephant_20_n02504013_20486.png
subject-01,1,521,0.75267505645752,oven,oven,0,0521_rot_s01_0_oven_20_n04111531_27.png
subject-01,1,522,1.02230787277222,bird,bird,180,0522_rot_s01_180_bird_20_n01855672_15421.png
subject-01,1,523,0.742249011993408,bear,bear,270,0523_rot_s01_270_bear_20_n02132136_239.png
subject-01,1,524,0.728076934814453,keyboard,keyboard,90,0524_rot_s01_90_keyboard_20_n03085013_25924.png
subject-01,1,525,0.914243936538696,bicycle,bicycle,180,0525_rot_s01_180_bicycle_20_n03792782_6030.png
subject-01,1,526,0.937771081924438,bottle,bottle,270,0526_rot_s01_270_bottle_20_n03983396_5497.png
subject-01,1,527,1.46737217903137,truck,chair,180,0527_rot_s01_180_chair_20_n04429376_6390.png
subject-01,1,528,NaN,na,dog,90,0528_rot_s01_90_dog_20_n02100877_11159.png
subject-01,1,529,0.655165195465088,bottle,bottle,180,0529_rot_s01_180_bottle_20_n04579145_579.png
subject-01,1,530,0.680988073348999,cat,cat,90,0530_rot_s01_90_cat_20_n02123159_5678.png
subject-01,1,531,1.14482498168945,bear,elephant,180,0531_rot_s01_180_elephant_20_n02504013_13283.png
subject-01,1,532,1.09067106246948,dog,dog,90,0532_rot_s01_90_dog_20_n02095570_7633.png
subject-01,1,533,0.760339021682739,clock,clock,180,0533_rot_s01_180_clock_20_n02708093_8311.png
subject-01,1,534,0.918063163757324,chair,chair,270,0534_rot_s01_270_chair_20_n03376595_426.png
subject-01,1,535,0.840329885482788,bear,dog,180,0535_rot_s01_180_dog_20_n02100877_3112.png
subject-01,1,536,1.35381603240967,car,car,270,0536_rot_s01_270_car_20_n02814533_458.png
subject-01,1,537,0.907531976699829,bird,bird,0,0537_rot_s01_0_bird_20_n02006656_5079.png
subject-01,1,538,1.15923810005188,boat,boat,90,0538_rot_s01_90_boat_20_n04273569_12725.png
subject-01,1,539,0.641309976577759,cat,cat,270,0539_rot_s01_270_cat_20_n02123045_6677.png
subject-01,1,540,0.703073978424072,bicycle,bicycle,270,0540_rot_s01_270_bicycle_20_n02835271_4440.png
subject-01,1,541,0.946774959564209,keyboard,keyboard,270,0541_rot_s01_270_keyboard_20_n03085013_21444.png
subject-01,1,542,0.658706903457642,clock,clock,180,0542_rot_s01_180_clock_20_n02708093_8255.png
subject-01,1,543,0.770532131195068,bicycle,bicycle,0,0543_rot_s01_0_bicycle_20_n02835271_30318.png
subject-01,1,544,1.14832401275635,cat,cat,180,0544_rot_s01_180_cat_20_n02123394_2059.png
subject-01,1,545,0.921983957290649,elephant,elephant,180,0545_rot_s01_180_elephant_20_n02504013_6618.png
subject-01,1,546,0.801676988601685,cat,cat,270,0546_rot_s01_270_cat_20_n02124075_8889.png
subject-01,1,547,1.27605199813843,bear,dog,90,0547_rot_s01_90_dog_20_n02100877_7302.png
subject-01,1,548,1.08151078224182,car,car,180,0548_rot_s01_180_car_20_n02814533_85971.png
subject-01,1,549,0.829285144805908,chair,chair,0,0549_rot_s01_0_chair_20_n03376595_5909.png
subject-01,1,550,0.921375036239624,keyboard,keyboard,270,0550_rot_s01_270_keyboard_20_n03085013_13083.png
subject-01,1,551,0.987015008926392,bottle,oven,90,0551_rot_s01_90_oven_20_n04111531_9611.png
subject-01,1,552,0.58076000213623,boat,boat,0,0552_rot_s01_0_boat_20_n02951358_13996.png
subject-01,1,553,0.776426076889038,boat,boat,0,0553_rot_s01_0_boat_20_n03344393_9251.png
subject-01,1,554,1.27252197265625,boat,airplane,180,0554_rot_s01_180_airplane_20_n02690373_9175.png
subject-01,1,555,1.00230598449707,bear,bear,0,0555_rot_s01_0_bear_20_n02132136_2791.png
subject-01,1,556,1.04011988639832,elephant,elephant,180,0556_rot_s01_180_elephant_20_n02504458_193.png
subject-01,1,557,0.923974990844727,bird,bird,270,0557_rot_s01_270_bird_20_n01843383_9985.png
subject-01,1,558,0.885614156723022,bird,bird,270,0558_rot_s01_270_bird_20_n02028035_10744.png
subject-01,1,559,1.23736906051636,bicycle,truck,270,0559_rot_s01_270_truck_20_n04467665_3720.png
subject-01,1,560,1.23739290237427,car,car,0,0560_rot_s01_0_car_20_n02814533_52605.png
subject-01,1,561,0.700700044631958,clock,clock,90,0561_rot_s01_90_clock_20_n04548280_5631.png
subject-01,1,562,0.642947196960449,oven,oven,0,0562_rot_s01_0_oven_20_n04111531_1922.png
subject-01,1,563,0.930453062057495,bird,boat,180,0563_rot_s01_180_boat_20_n03662601_1197.png
subject-01,1,564,0.83617091178894,clock,clock,270,0564_rot_s01_270_clock_20_n02708093_1862.png
subject-01,1,565,1.04596209526062,truck,truck,180,0565_rot_s01_180_truck_20_n03796401_4582.png
subject-01,1,566,0.931815147399902,elephant,elephant,90,0566_rot_s01_90_elephant_20_n02504013_565.png
subject-01,1,567,1.19571709632874,bicycle,truck,180,0567_rot_s01_180_truck_20_n04467665_49826.png
subject-01,1,568,1.37963509559631,bear,bear,270,0568_rot_s01_270_bear_20_n02134418_5067.png
subject-01,1,569,0.9636070728302,chair,chair,90,0569_rot_s01_90_chair_20_n04429376_29223.png
subject-01,1,570,0.989104032516479,airplane,airplane,270,0570_rot_s01_270_airplane_20_n02690373_5909.png
subject-01,1,571,0.819050073623657,boat,dog,270,0571_rot_s01_270_dog_20_n02097658_722.png
subject-01,1,572,0.797218799591064,oven,oven,0,0572_rot_s01_0_oven_20_n04111531_10339.png
subject-01,1,573,1.00055599212646,truck,truck,90,0573_rot_s01_90_truck_20_n03417042_28078.png
subject-01,1,574,1.47658205032349,car,chair,180,0574_rot_s01_180_chair_20_n04099969_22118.png
subject-01,1,575,0.868107795715332,clock,clock,270,0575_rot_s01_270_clock_20_n04548280_7978.png
subject-01,1,576,1.03205585479736,bear,bear,180,0576_rot_s01_180_bear_20_n02133161_1962.png
subject-01,1,577,1.0699360370636,bottle,clock,180,0577_rot_s01_180_clock_20_n04548280_13750.png
subject-01,1,578,0.913572072982788,keyboard,keyboard,0,0578_rot_s01_0_keyboard_20_n03085013_15249.png
subject-01,1,579,1.10147595405579,clock,car,90,0579_rot_s01_90_car_20_n02814533_479.png
subject-01,1,580,1.10912799835205,keyboard,keyboard,270,0580_rot_s01_270_keyboard_20_n03085013_20716.png
subject-01,1,581,0.952962875366211,bird,bird,180,0581_rot_s01_180_bird_20_n01530575_7990.png
subject-01,1,582,1.15696406364441,chair,chair,0,0582_rot_s01_0_chair_20_n04429376_17343.png
subject-01,1,583,0.959100008010864,bottle,chair,90,0583_rot_s01_90_chair_20_n02791124_8775.png
subject-01,1,584,0.820338010787964,cat,cat,90,0584_rot_s01_90_cat_20_n02125311_2959.png
subject-01,1,585,1.38272905349731,oven,oven,180,0585_rot_s01_180_oven_20_n04111531_13906.png
subject-01,1,586,0.800268173217773,airplane,airplane,90,0586_rot_s01_90_airplane_20_n02690373_7293.png
subject-01,1,587,0.974218845367432,chair,chair,180,0587_rot_s01_180_chair_20_n04099969_10825.png
subject-01,1,588,0.985740900039673,airplane,airplane,180,0588_rot_s01_180_airplane_20_n02690373_17044.png
subject-01,1,589,1.05794095993042,bird,bird,0,0589_rot_s01_0_bird_20_n01797886_6169.png
subject-01,1,590,1.27941584587097,chair,oven,0,0590_rot_s01_0_oven_20_n04111531_13255.png
subject-01,1,591,1.08316707611084,knife,knife,270,0591_rot_s01_270_knife_20_n03041632_17820.png
subject-01,1,592,0.809073925018311,bicycle,bicycle,270,0592_rot_s01_270_bicycle_20_n02835271_21640.png
subject-01,1,593,0.850992918014526,bear,bear,0,0593_rot_s01_0_bear_20_n02134418_517.png
subject-01,1,594,1.24256706237793,airplane,airplane,180,0594_rot_s01_180_airplane_20_n02690373_4588.png
subject-01,1,595,1.01649403572083,bottle,bottle,270,0595_rot_s01_270_bottle_20_n02823428_12190.png
subject-01,1,596,0.824348926544189,bottle,bottle,0,0596_rot_s01_0_bottle_20_n04591713_1717.png
subject-01,1,597,0.805953979492188,knife,knife,0,0597_rot_s01_0_knife_20_n03041632_9488.png
subject-01,1,598,1.32393717765808,truck,truck,90,0598_rot_s01_90_truck_20_n03417042_11166.png
subject-01,1,599,1.10759711265564,elephant,elephant,90,0599_rot_s01_90_elephant_20_n02504458_585.png
subject-01,1,600,1.50013089179993,truck,keyboard,0,0600_rot_s01_0_keyboard_20_n04505470_5046.png
subject-01,1,601,1.31930685043335,chair,chair,180,0601_rot_s01_180_chair_20_n03376595_4937.png
subject-01,1,602,1.09097099304199,boat,boat,180,0602_rot_s01_180_boat_20_n03662601_1740.png
subject-01,1,603,1.04487800598145,knife,knife,0,0603_rot_s01_0_knife_20_n03041632_4037.png
subject-01,1,604,1.29855895042419,bicycle,boat,0,0604_rot_s01_0_boat_20_n04273569_1538.png
subject-01,1,605,0.942598819732666,bird,bird,0,0605_rot_s01_0_bird_20_n02017213_15918.png
subject-01,1,606,0.842440843582153,keyboard,keyboard,0,0606_rot_s01_0_keyboard_20_n03085013_10463.png
subject-01,1,607,0.748097896575928,bear,bear,270,0607_rot_s01_270_bear_20_n02133161_7939.png
subject-01,1,608,1.16186213493347,car,car,270,0608_rot_s01_270_car_20_n04285008_11704.png
subject-01,1,609,0.792147159576416,truck,truck,90,0609_rot_s01_90_truck_20_n03796401_16046.png
subject-01,1,610,0.863668918609619,chair,chair,270,0610_rot_s01_270_chair_20_n02791124_3710.png
subject-01,1,611,0.911436080932617,keyboard,keyboard,180,0611_rot_s01_180_keyboard_20_n04505470_3566.png
subject-01,1,612,0.81726598739624,boat,bird,90,0612_rot_s01_90_bird_20_n02037110_8716.png
subject-01,1,613,0.733208894729614,car,car,0,0613_rot_s01_0_car_20_n03100240_19550.png
subject-01,1,614,0.893061876296997,airplane,airplane,270,0614_rot_s01_270_airplane_20_n02690373_10769.png
subject-01,1,615,1.09051394462585,bicycle,bicycle,0,0615_rot_s01_0_bicycle_20_n03792782_3456.png
subject-01,1,616,1.03846287727356,chair,chair,0,0616_rot_s01_0_chair_20_n03376595_2368.png
subject-01,1,617,1.2202250957489,dog,dog,0,0617_rot_s01_0_dog_20_n02091467_2974.png
subject-01,1,618,0.854154825210571,knife,knife,180,0618_rot_s01_180_knife_20_n03041632_43634.png
subject-01,1,619,0.796314001083374,keyboard,keyboard,180,0619_rot_s01_180_keyboard_20_n04505470_4477.png
subject-01,1,620,1.50001907348633,boat,boat,90,0620_rot_s01_90_boat_20_n03344393_4773.png
subject-01,1,621,0.985504865646362,airplane,airplane,180,0621_rot_s01_180_airplane_20_n02690373_139.png
subject-01,1,622,1.26520395278931,knife,knife,270,0622_rot_s01_270_knife_20_n03041632_737.png
subject-01,1,623,1.13515400886536,bottle,chair,270,0623_rot_s01_270_chair_20_n02791124_2698.png
subject-01,1,624,1.05929803848267,truck,truck,270,0624_rot_s01_270_truck_20_n03417042_5301.png
subject-01,1,625,0.824818849563599,bird,bird,0,0625_rot_s01_0_bird_20_n02006656_5757.png
subject-01,1,626,0.944468021392822,bear,bear,270,0626_rot_s01_270_bear_20_n02132136_15174.png
subject-01,1,627,1.04017305374146,bottle,bottle,270,0627_rot_s01_270_bottle_20_n04560804_6329.png
subject-01,1,628,1.24428915977478,truck,truck,0,0628_rot_s01_0_truck_20_n03417042_22196.png
subject-01,1,629,0.750242948532104,cat,cat,0,0629_rot_s01_0_cat_20_n02125311_18366.png
subject-01,1,630,1.30574917793274,knife,chair,0,0630_rot_s01_0_chair_20_n02791124_12707.png
subject-01,1,631,0.959678173065186,oven,oven,180,0631_rot_s01_180_oven_20_n04111531_1938.png
subject-01,1,632,0.873389005661011,airplane,airplane,270,0632_rot_s01_270_airplane_20_n02690373_9346.png
subject-01,1,633,1.02130699157715,bear,cat,0,0633_rot_s01_0_cat_20_n02123045_10433.png
subject-01,1,634,1.50001215934753,airplane,airplane,180,0634_rot_s01_180_airplane_20_n02690373_5055.png
subject-01,1,635,0.778906106948853,clock,clock,270,0635_rot_s01_270_clock_20_n04548280_4198.png
subject-01,1,636,0.808777093887329,bicycle,bicycle,90,0636_rot_s01_90_bicycle_20_n03792782_12010.png
subject-01,1,637,0.934643030166626,bear,cat,180,0637_rot_s01_180_cat_20_n02125311_24586.png
subject-01,1,638,0.848237037658691,chair,chair,0,0638_rot_s01_0_chair_20_n02791124_3220.png
subject-01,1,639,0.814081907272339,car,car,90,0639_rot_s01_90_car_20_n04285008_12737.png
subject-01,1,640,1.23001408576965,chair,chair,180,0640_rot_s01_180_chair_20_n04429376_4296.png
subject-01,1,641,1.02212810516357,airplane,airplane,90,0641_rot_s01_90_airplane_20_n02690373_5534.png
subject-01,1,642,0.97348690032959,dog,dog,180,0642_rot_s01_180_dog_20_n02113978_2286.png
subject-01,1,643,1.0731987953186,dog,dog,0,0643_rot_s01_0_dog_20_n02087394_3354.png
subject-01,1,644,0.907010078430176,chair,chair,180,0644_rot_s01_180_chair_20_n03376595_2103.png
subject-01,1,645,1.1112949848175,bear,elephant,0,0645_rot_s01_0_elephant_20_n02504458_5181.png
subject-01,1,646,1.2947108745575,bottle,chair,270,0646_rot_s01_270_chair_20_n02791124_10287.png
subject-01,1,647,1.05259203910828,oven,oven,90,0647_rot_s01_90_oven_20_n04111531_22291.png
subject-01,1,648,0.680385112762451,bottle,bottle,90,0648_rot_s01_90_bottle_20_n03937543_4399.png
subject-01,1,649,1.39411401748657,truck,truck,90,0649_rot_s01_90_truck_20_n03796401_13226.png
subject-01,1,650,0.882521867752075,airplane,airplane,270,0650_rot_s01_270_airplane_20_n02690373_5430.png
subject-01,1,651,0.97585916519165,cat,cat,90,0651_rot_s01_90_cat_20_n02124075_20.png
subject-01,1,652,0.929879903793335,keyboard,keyboard,90,0652_rot_s01_90_keyboard_20_n04505470_4943.png
subject-01,1,653,0.827654838562012,car,car,180,0653_rot_s01_180_car_20_n03100240_4288.png
subject-01,1,654,0.949498891830444,dog,dog,0,0654_rot_s01_0_dog_20_n02109525_7478.png
subject-01,1,655,0.66335391998291,bicycle,bicycle,0,0655_rot_s01_0_bicycle_20_n03792782_4895.png
subject-01,1,656,0.819110155105591,oven,oven,0,0656_rot_s01_0_oven_20_n04111531_8077.png
subject-01,1,657,0.820842027664185,airplane,airplane,90,0657_rot_s01_90_airplane_20_n02690373_4845.png
subject-01,1,658,1.50014281272888,bottle,cat,90,0658_rot_s01_90_cat_20_n02125311_59332.png
subject-01,1,659,0.848660945892334,bicycle,bicycle,180,0659_rot_s01_180_bicycle_20_n02835271_24.png
subject-01,1,660,1.31023693084717,car,truck,180,0660_rot_s01_180_truck_20_n04467665_22637.png
subject-01,1,661,1.09424614906311,cat,dog,180,0661_rot_s01_180_dog_20_n02101006_6694.png
subject-01,1,662,0.991790056228638,car,car,0,0662_rot_s01_0_car_20_n02814533_37256.png
subject-01,1,663,0.981990098953247,bear,bear,0,0663_rot_s01_0_bear_20_n02134418_132.png
subject-01,1,664,0.993544101715088,knife,knife,180,0664_rot_s01_180_knife_20_n03041632_41310.png
subject-01,1,665,0.791362047195435,bird,bird,0,0665_rot_s01_0_bird_20_n01530575_3198.png
subject-01,1,666,0.931046962738037,bicycle,bicycle,180,0666_rot_s01_180_bicycle_20_n02835271_3643.png
subject-01,1,667,1.12079191207886,chair,chair,180,0667_rot_s01_180_chair_20_n02791124_3186.png
subject-01,1,668,1.29446196556091,chair,chair,270,0668_rot_s01_270_chair_20_n04099969_5396.png
subject-01,1,669,1.50012993812561,oven,dog,0,0669_rot_s01_0_dog_20_n02110806_749.png
subject-01,1,670,0.716279029846191,car,car,180,0670_rot_s01_180_car_20_n04285008_7155.png
subject-01,1,671,0.881844997406006,airplane,airplane,270,0671_rot_s01_270_airplane_20_n02690373_6621.png
subject-01,1,672,0.857893943786621,cat,cat,270,0672_rot_s01_270_cat_20_n02124075_11727.png
subject-01,1,673,1.11571502685547,elephant,elephant,180,0673_rot_s01_180_elephant_20_n02504013_1078.png
subject-01,1,674,0.949763059616089,knife,knife,180,0674_rot_s01_180_knife_20_n03041632_21017.png
subject-01,1,675,1.11731600761414,knife,knife,180,0675_rot_s01_180_knife_20_n03041632_22330.png
subject-01,1,676,0.895201921463013,clock,clock,270,0676_rot_s01_270_clock_20_n03196217_368.png
subject-01,1,677,0.935059070587158,knife,knife,0,0677_rot_s01_0_knife_20_n03041632_99912.png
subject-01,1,678,0.704694986343384,boat,boat,180,0678_rot_s01_180_boat_20_n03344393_7705.png
subject-01,1,679,0.91500186920166,bear,bear,180,0679_rot_s01_180_bear_20_n02134084_41588.png
subject-01,1,680,1.02635192871094,knife,knife,0,0680_rot_s01_0_knife_20_n03041632_45775.png
subject-01,1,681,0.918175935745239,bicycle,bicycle,180,0681_rot_s01_180_bicycle_20_n02835271_24630.png
subject-01,1,682,0.792057991027832,boat,boat,270,0682_rot_s01_270_boat_20_n03662601_22973.png
subject-01,1,683,0.879707098007202,car,car,270,0683_rot_s01_270_car_20_n02814533_8042.png
subject-01,1,684,0.68952202796936,boat,boat,0,0684_rot_s01_0_boat_20_n03662601_17483.png
subject-01,1,685,0.909505128860474,bicycle,bicycle,180,0685_rot_s01_180_bicycle_20_n03792782_13680.png
subject-01,1,686,1.34333682060242,chair,chair,180,0686_rot_s01_180_chair_20_n03376595_15468.png
subject-01,1,687,0.832932949066162,knife,knife,270,0687_rot_s01_270_knife_20_n03041632_26236.png
subject-01,1,688,0.992765188217163,cat,cat,180,0688_rot_s01_180_cat_20_n02125311_41650.png
subject-01,1,689,0.952672004699707,car,car,90,0689_rot_s01_90_car_20_n02814533_5916.png
subject-01,1,690,1.07652115821838,knife,knife,180,0690_rot_s01_180_knife_20_n03041632_7116.png
subject-01,1,691,1.16846084594727,bird,bottle,90,0691_rot_s01_90_bottle_20_n04560804_13583.png
subject-01,1,692,1.11413598060608,bicycle,bicycle,180,0692_rot_s01_180_bicycle_20_n02835271_10933.png
subject-01,1,693,1.22581791877747,oven,truck,180,0693_rot_s01_180_truck_20_n04467665_9589.png
subject-01,1,694,0.999574899673462,car,car,180,0694_rot_s01_180_car_20_n03100240_1750.png
subject-01,1,695,0.853388786315918,bear,bear,270,0695_rot_s01_270_bear_20_n02134418_1094.png
subject-01,1,696,0.859189033508301,clock,clock,0,0696_rot_s01_0_clock_20_n04548280_7792.png
subject-01,1,697,1.38092184066772,airplane,airplane,0,0697_rot_s01_0_airplane_20_n02690373_7142.png
subject-01,1,698,1.06285190582275,keyboard,keyboard,0,0698_rot_s01_0_keyboard_20_n04505470_7312.png
subject-01,1,699,0.748925924301147,bear,bear,90,0699_rot_s01_90_bear_20_n02132136_18953.png
subject-01,1,700,1.45055389404297,bird,bird,270,0700_rot_s01_270_bird_20_n02056570_9303.png
subject-01,1,701,1.32625007629395,oven,chair,0,0701_rot_s01_0_chair_20_n02791124_4956.png
subject-01,1,702,1.50005006790161,dog,dog,0,0702_rot_s01_0_dog_20_n02087394_9061.png
subject-01,1,703,0.816028833389282,bird,bird,270,0703_rot_s01_270_bird_20_n02025239_13707.png
subject-01,1,704,1.09992289543152,knife,knife,270,0704_rot_s01_270_knife_20_n03041632_14916.png
subject-01,1,705,0.993981122970581,chair,chair,180,0705_rot_s01_180_chair_20_n02791124_1287.png
subject-01,1,706,0.687804937362671,bear,bear,180,0706_rot_s01_180_bear_20_n02134418_1825.png
subject-01,1,707,1.06751894950867,elephant,elephant,0,0707_rot_s01_0_elephant_20_n02504013_6999.png
subject-01,1,708,0.870965957641602,clock,clock,270,0708_rot_s01_270_clock_20_n04548280_7050.png
subject-01,1,709,1.05879998207092,cat,cat,180,0709_rot_s01_180_cat_20_n02123394_8100.png
subject-01,1,710,1.04254603385925,oven,oven,180,0710_rot_s01_180_oven_20_n04111531_11026.png
subject-01,1,711,0.890492916107178,car,car,0,0711_rot_s01_0_car_20_n02814533_79974.png
subject-01,1,712,1.12836909294128,clock,chair,0,0712_rot_s01_0_chair_20_n04429376_10994.png
subject-01,1,713,0.732183933258057,boat,boat,90,0713_rot_s01_90_boat_20_n02951358_582.png
subject-01,1,714,0.970324993133545,keyboard,keyboard,270,0714_rot_s01_270_keyboard_20_n03085013_24385.png
subject-01,1,715,1.08376693725586,bear,bear,0,0715_rot_s01_0_bear_20_n02133161_4218.png
subject-01,1,716,1.18541288375854,keyboard,keyboard,270,0716_rot_s01_270_keyboard_20_n03085013_1070.png
subject-01,1,717,0.873317003250122,bicycle,bicycle,180,0717_rot_s01_180_bicycle_20_n02835271_2131.png
subject-01,1,718,0.903185844421387,boat,oven,90,0718_rot_s01_90_oven_20_n04111531_8988.png
subject-01,1,719,1.08734893798828,elephant,elephant,90,0719_rot_s01_90_elephant_20_n02504458_3608.png
subject-01,1,720,0.824777126312256,boat,boat,270,0720_rot_s01_270_boat_20_n03344393_2961.png
subject-01,1,721,0.732189893722534,oven,oven,90,0721_rot_s01_90_oven_20_n04111531_12980.png
subject-01,1,722,0.902029037475586,airplane,airplane,180,0722_rot_s01_180_airplane_20_n02690373_7046.png
subject-01,1,723,0.888081789016724,bottle,bottle,0,0723_rot_s01_0_bottle_20_n03937543_1929.png
subject-01,1,724,1.16787695884705,dog,dog,90,0724_rot_s01_90_dog_20_n02087394_7707.png
subject-01,1,725,0.887764930725098,chair,chair,180,0725_rot_s01_180_chair_20_n03376595_9219.png
subject-01,1,726,1.22352981567383,airplane,airplane,180,0726_rot_s01_180_airplane_20_n02690373_5838.png
subject-01,1,727,0.70120096206665,chair,chair,0,0727_rot_s01_0_chair_20_n04099969_16669.png
subject-01,1,728,0.871087789535522,bear,bird,180,0728_rot_s01_180_bird_20_n01532829_37796.png
subject-01,1,729,0.898866891860962,airplane,airplane,180,0729_rot_s01_180_airplane_20_n02690373_6602.png
subject-01,1,730,0.966742038726807,bear,bear,180,0730_rot_s01_180_bear_20_n02134418_200.png
subject-01,1,731,1.06030201911926,car,car,0,0731_rot_s01_0_car_20_n03100240_16084.png
subject-01,1,732,1.01255702972412,bear,bear,270,0732_rot_s01_270_bear_20_n02134084_18952.png
subject-01,1,733,0.772124052047729,boat,boat,90,0733_rot_s01_90_boat_20_n04273569_1050.png
subject-01,1,734,1.19187188148499,dog,dog,0,0734_rot_s01_0_dog_20_n02092339_659.png
subject-01,1,735,1.13569784164429,elephant,elephant,0,0735_rot_s01_0_elephant_20_n02504458_493.png
subject-01,1,736,0.955702066421509,car,truck,90,0736_rot_s01_90_truck_20_n03417042_9238.png
subject-01,1,737,1.07151007652283,truck,truck,90,0737_rot_s01_90_truck_20_n04467665_8303.png
subject-01,1,738,0.801115036010742,cat,cat,270,0738_rot_s01_270_cat_20_n02123394_6969.png
subject-01,1,739,1.05116605758667,bottle,bottle,90,0739_rot_s01_90_bottle_20_n03983396_618.png
subject-01,1,740,0.893254995346069,elephant,elephant,0,0740_rot_s01_0_elephant_20_n02504458_8621.png
subject-01,1,741,0.808686017990112,bicycle,bicycle,90,0741_rot_s01_90_bicycle_20_n02835271_3308.png
subject-01,1,742,0.850443124771118,bird,bird,90,0742_rot_s01_90_bird_20_n02025239_17065.png
subject-01,1,743,0.886090993881226,clock,clock,0,0743_rot_s01_0_clock_20_n04548280_4582.png
subject-01,1,744,0.982001066207886,keyboard,keyboard,180,0744_rot_s01_180_keyboard_20_n04505470_933.png
subject-01,1,745,0.787764072418213,cat,cat,270,0745_rot_s01_270_cat_20_n02123597_2549.png
subject-01,1,746,0.757481098175049,boat,boat,90,0746_rot_s01_90_boat_20_n04612504_30766.png
subject-01,1,747,0.88930606842041,airplane,airplane,90,0747_rot_s01_90_airplane_20_n02690373_4695.png
subject-01,1,748,1.28149700164795,oven,oven,0,0748_rot_s01_0_oven_20_n04111531_18648.png
subject-01,1,749,1.07295298576355,bicycle,bicycle,180,0749_rot_s01_180_bicycle_20_n02835271_14862.png
subject-01,1,750,1.0193018913269,bottle,knife,180,0750_rot_s01_180_knife_20_n03041632_101810.png
subject-01,1,751,0.864675045013428,keyboard,keyboard,0,0751_rot_s01_0_keyboard_20_n03085013_3795.png
subject-01,1,752,0.930708885192871,boat,clock,90,0752_rot_s01_90_clock_20_n03196217_1458.png
subject-01,1,753,0.936127901077271,bear,bear,180,0753_rot_s01_180_bear_20_n02134418_4458.png
subject-01,1,754,0.930133104324341,cat,cat,180,0754_rot_s01_180_cat_20_n02123045_11545.png
subject-01,1,755,0.870150804519653,bird,bird,270,0755_rot_s01_270_bird_20_n01592084_8100.png
subject-01,1,756,0.899859189987183,car,car,270,0756_rot_s01_270_car_20_n04285008_12504.png
subject-01,1,757,0.989638090133667,bear,bear,180,0757_rot_s01_180_bear_20_n02133161_5235.png
subject-01,1,758,0.655639886856079,cat,cat,270,0758_rot_s01_270_cat_20_n02125311_33586.png
subject-01,1,759,1.25751900672913,bird,bird,180,0759_rot_s01_180_bird_20_n01820546_1089.png
subject-01,1,760,1.41705107688904,knife,knife,270,0760_rot_s01_270_knife_20_n03041632_18995.png
subject-01,1,761,0.831295013427734,bottle,bottle,90,0761_rot_s01_90_bottle_20_n02823428_4299.png
subject-01,1,762,0.884621143341064,cat,cat,90,0762_rot_s01_90_cat_20_n02123045_7294.png
subject-01,1,763,1.11237287521362,truck,truck,180,0763_rot_s01_180_truck_20_n03796401_6315.png
subject-01,1,764,1.42858099937439,cat,knife,90,0764_rot_s01_90_knife_20_n03041632_30248.png
subject-01,1,765,1.13622117042542,clock,clock,270,0765_rot_s01_270_clock_20_n02708093_1981.png
subject-01,1,766,1.2499680519104,bear,bird,180,0766_rot_s01_180_bird_20_n02002724_6462.png
subject-01,1,767,1.25153803825378,chair,chair,90,0767_rot_s01_90_chair_20_n04099969_48945.png
subject-01,1,768,0.863315105438232,clock,clock,270,0768_rot_s01_270_clock_20_n03196217_2291.png
subject-01,1,769,0.739390134811401,bottle,bottle,90,0769_rot_s01_90_bottle_20_n03937543_4830.png
subject-01,1,770,1.29331517219543,bird,bear,180,0770_rot_s01_180_bear_20_n02134418_5260.png
subject-01,1,771,0.953459978103638,keyboard,keyboard,90,0771_rot_s01_90_keyboard_20_n04505470_4047.png
subject-01,1,772,0.954719066619873,bird,bird,270,0772_rot_s01_270_bird_20_n01531178_4324.png
subject-01,1,773,0.784541130065918,knife,knife,90,0773_rot_s01_90_knife_20_n03041632_4806.png
subject-01,1,774,0.930246829986572,bottle,bottle,270,0774_rot_s01_270_bottle_20_n04557648_4727.png
subject-01,1,775,1.07045388221741,dog,dog,270,0775_rot_s01_270_dog_20_n02092002_5845.png
subject-01,1,776,0.840162992477417,knife,knife,180,0776_rot_s01_180_knife_20_n03041632_9580.png
subject-01,1,777,1.17798399925232,oven,oven,90,0777_rot_s01_90_oven_20_n04111531_7728.png
subject-01,1,778,1.13768911361694,bear,bear,0,0778_rot_s01_0_bear_20_n02134084_3934.png
subject-01,1,779,0.875400066375732,bottle,bottle,270,0779_rot_s01_270_bottle_20_n04557648_16525.png
subject-01,1,780,1.00927996635437,bottle,bottle,0,0780_rot_s01_0_bottle_20_n03983396_4313.png
subject-01,1,781,1.138916015625,dog,dog,0,0781_rot_s01_0_dog_20_n02097209_1042.png
subject-01,1,782,0.724748134613037,airplane,airplane,270,0782_rot_s01_270_airplane_20_n02690373_8876.png
subject-01,1,783,0.702497959136963,cat,cat,270,0783_rot_s01_270_cat_20_n02123597_2219.png
subject-01,1,784,1.13441896438599,bicycle,boat,270,0784_rot_s01_270_boat_20_n02951358_9837.png
subject-01,1,785,1.16810512542725,bird,bird,180,0785_rot_s01_180_bird_20_n02018207_5735.png
subject-01,1,786,0.896114110946655,boat,boat,0,0786_rot_s01_0_boat_20_n03662601_7324.png
subject-01,1,787,0.773854970932007,bottle,bottle,90,0787_rot_s01_90_bottle_20_n04579145_6509.png
subject-01,1,788,0.644254922866821,clock,clock,0,0788_rot_s01_0_clock_20_n02708093_2030.png
subject-01,1,789,0.949941873550415,chair,chair,0,0789_rot_s01_0_chair_20_n04099969_5854.png
subject-01,1,790,0.603417158126831,clock,clock,0,0790_rot_s01_0_clock_20_n04548280_7211.png
subject-01,1,791,0.997204065322876,bear,bear,270,0791_rot_s01_270_bear_20_n02134084_3903.png
subject-01,1,792,0.842890024185181,bear,bear,90,0792_rot_s01_90_bear_20_n02134084_7817.png
subject-01,1,793,1.25093913078308,dog,dog,90,0793_rot_s01_90_dog_20_n02099601_10748.png
subject-01,1,794,1.20846700668335,bottle,oven,0,0794_rot_s01_0_oven_20_n04111531_1230.png
subject-01,1,795,0.810473918914795,car,car,0,0795_rot_s01_0_car_20_n02814533_70448.png
subject-01,1,796,1.04028701782227,oven,knife,0,0796_rot_s01_0_knife_20_n03041632_49570.png
subject-01,1,797,1.06208682060242,car,car,0,0797_rot_s01_0_car_20_n04285008_12909.png
subject-01,1,798,0.776169061660767,boat,boat,0,0798_rot_s01_0_boat_20_n03344393_6297.png
subject-01,1,799,0.853595018386841,keyboard,keyboard,90,0799_rot_s01_90_keyboard_20_n03085013_22665.png
subject-01,1,800,0.85746693611145,dog,dog,270,0800_rot_s01_270_dog_20_n02109047_13710.png
subject-01,1,801,0.697957992553711,car,car,270,0801_rot_s01_270_car_20_n02814533_23563.png
subject-01,1,802,0.837676048278809,bicycle,bicycle,0,0802_rot_s01_0_bicycle_20_n03792782_892.png
subject-01,1,803,0.811389207839966,bird,bird,180,0803_rot_s01_180_bird_20_n01616318_1164.png
subject-01,1,804,0.709205865859985,bear,bear,270,0804_rot_s01_270_bear_20_n02134418_5827.png
subject-01,1,805,1.00910210609436,knife,knife,270,0805_rot_s01_270_knife_20_n03041632_424.png
subject-01,1,806,0.800799131393433,elephant,elephant,90,0806_rot_s01_90_elephant_20_n02504013_4379.png
subject-01,1,807,1.02292895317078,keyboard,keyboard,0,0807_rot_s01_0_keyboard_20_n03085013_22744.png
subject-01,1,808,0.598545789718628,clock,clock,90,0808_rot_s01_90_clock_20_n04548280_5937.png
subject-01,1,809,0.830359935760498,bottle,bottle,90,0809_rot_s01_90_bottle_20_n03983396_5514.png
subject-01,1,810,1.01229810714722,oven,truck,0,0810_rot_s01_0_truck_20_n03417042_889.png
subject-01,1,811,0.595999002456665,clock,clock,180,0811_rot_s01_180_clock_20_n02708093_906.png
subject-01,1,812,0.882031917572021,bicycle,bicycle,180,0812_rot_s01_180_bicycle_20_n03792782_15282.png
subject-01,1,813,0.739638090133667,clock,clock,90,0813_rot_s01_90_clock_20_n04548280_1254.png
subject-01,1,814,0.821344137191772,airplane,airplane,0,0814_rot_s01_0_airplane_20_n02690373_764.png
subject-01,1,815,1.10322403907776,bicycle,bicycle,270,0815_rot_s01_270_bicycle_20_n02835271_22206.png
subject-01,1,816,0.767010927200317,bottle,bottle,0,0816_rot_s01_0_bottle_20_n02823428_3570.png
subject-01,1,817,1.13668584823608,bicycle,bicycle,180,0817_rot_s01_180_bicycle_20_n03792782_14413.png
subject-01,1,818,0.872920989990234,bear,bear,90,0818_rot_s01_90_bear_20_n02134418_2661.png
subject-01,1,819,1.4565098285675,elephant,cat,270,0819_rot_s01_270_cat_20_n02123394_4700.png
subject-01,1,820,0.918234825134277,bottle,bottle,0,0820_rot_s01_0_bottle_20_n04557648_3959.png
subject-01,1,821,1.10596990585327,bottle,bottle,90,0821_rot_s01_90_bottle_20_n03937543_2469.png
subject-01,1,822,0.779945850372314,clock,clock,90,0822_rot_s01_90_clock_20_n02708093_2676.png
subject-01,1,823,0.679687023162842,cat,cat,0,0823_rot_s01_0_cat_20_n02123597_19872.png
subject-01,1,824,0.817864894866943,oven,oven,180,0824_rot_s01_180_oven_20_n04111531_14488.png
subject-01,1,825,0.765677928924561,clock,clock,270,0825_rot_s01_270_clock_20_n02708093_3841.png
subject-01,1,826,0.773204803466797,cat,cat,180,0826_rot_s01_180_cat_20_n02123045_11787.png
subject-01,1,827,1.11295104026794,bear,elephant,90,0827_rot_s01_90_elephant_20_n02504458_6470.png
subject-01,1,828,1.24911499023438,cat,bird,270,0828_rot_s01_270_bird_20_n01558993_55.png
subject-01,1,829,0.988533020019531,elephant,elephant,270,0829_rot_s01_270_elephant_20_n02504458_8296.png
subject-01,1,830,1.17058491706848,clock,car,270,0830_rot_s01_270_car_20_n02814533_41670.png
subject-01,1,831,0.856155157089233,bottle,bottle,0,0831_rot_s01_0_bottle_20_n03983396_1881.png
subject-01,1,832,0.929879188537598,boat,airplane,180,0832_rot_s01_180_airplane_20_n02690373_1491.png
subject-01,1,833,0.955453872680664,oven,oven,0,0833_rot_s01_0_oven_20_n04111531_6204.png
subject-01,1,834,0.947675943374634,elephant,elephant,270,0834_rot_s01_270_elephant_20_n02504013_5364.png
subject-01,1,835,1.47956681251526,airplane,airplane,0,0835_rot_s01_0_airplane_20_n02690373_389.png
subject-01,1,836,1.13925504684448,bear,cat,90,0836_rot_s01_90_cat_20_n02123159_6933.png
subject-01,1,837,0.949157953262329,dog,dog,90,0837_rot_s01_90_dog_20_n02111277_2994.png
subject-01,1,838,1.03524494171143,dog,dog,0,0838_rot_s01_0_dog_20_n02112018_7786.png
subject-01,1,839,1.01078796386719,bear,bear,90,0839_rot_s01_90_bear_20_n02134418_10879.png
subject-01,1,840,1.31440305709839,clock,clock,270,0840_rot_s01_270_clock_20_n03196217_1984.png
subject-01,1,841,1.06634306907654,keyboard,clock,270,0841_rot_s01_270_clock_20_n03196217_5433.png
subject-01,1,842,1.50009512901306,cat,bird,90,0842_rot_s01_90_bird_20_n02006656_10849.png
subject-01,1,843,0.735866069793701,bicycle,bicycle,0,0843_rot_s01_0_bicycle_20_n03792782_15757.png
subject-01,1,844,1.11368203163147,bicycle,bicycle,90,0844_rot_s01_90_bicycle_20_n02835271_4797.png
subject-01,1,845,0.877653121948242,clock,clock,0,0845_rot_s01_0_clock_20_n02708093_1897.png
subject-01,1,846,0.769532918930054,bottle,bottle,270,0846_rot_s01_270_bottle_20_n02823428_1495.png
subject-01,1,847,0.61919093132019,clock,clock,0,0847_rot_s01_0_clock_20_n04548280_3038.png
subject-01,1,848,1.20112991333008,bird,bird,90,0848_rot_s01_90_bird_20_n01614925_2052.png
subject-01,1,849,0.848951816558838,boat,boat,0,0849_rot_s01_0_boat_20_n03662601_16495.png
subject-01,1,850,1.08069610595703,knife,knife,90,0850_rot_s01_90_knife_20_n03041632_33255.png
subject-01,1,851,1.02637600898743,keyboard,keyboard,180,0851_rot_s01_180_keyboard_20_n03085013_24105.png
subject-01,1,852,0.938119173049927,bird,bird,0,0852_rot_s01_0_bird_20_n02033041_3924.png
subject-01,1,853,0.966095924377441,dog,dog,90,0853_rot_s01_90_dog_20_n02110806_8971.png
subject-01,1,854,1.31785106658936,keyboard,keyboard,270,0854_rot_s01_270_keyboard_20_n04505470_2055.png
subject-01,1,855,1.0158371925354,car,car,270,0855_rot_s01_270_car_20_n03100240_5946.png
subject-01,1,856,0.885756969451904,boat,boat,180,0856_rot_s01_180_boat_20_n03662601_3955.png
subject-01,1,857,0.941290855407715,clock,clock,270,0857_rot_s01_270_clock_20_n02708093_5577.png
subject-01,1,858,0.997395992279053,bird,bird,180,0858_rot_s01_180_bird_20_n02027492_6213.png
subject-01,1,859,1.0050311088562,truck,truck,270,0859_rot_s01_270_truck_20_n04467665_70509.png
subject-01,1,860,0.85905909538269,cat,cat,90,0860_rot_s01_90_cat_20_n02123597_2522.png
subject-01,1,861,0.938596963882446,car,car,0,0861_rot_s01_0_car_20_n03100240_18679.png
subject-01,1,862,0.908237218856812,clock,clock,270,0862_rot_s01_270_clock_20_n03196217_1829.png
subject-01,1,863,1.05406904220581,truck,truck,0,0863_rot_s01_0_truck_20_n03796401_5058.png
subject-01,1,864,1.47402811050415,car,car,0,0864_rot_s01_0_car_20_n02814533_88986.png
subject-01,1,865,1.25173592567444,bicycle,bicycle,90,0865_rot_s01_90_bicycle_20_n03792782_1924.png
subject-01,1,866,1.06974911689758,clock,chair,180,0866_rot_s01_180_chair_20_n04429376_3898.png
subject-01,1,867,1.22944712638855,truck,truck,90,0867_rot_s01_90_truck_20_n03417042_21946.png
subject-01,1,868,0.985641956329346,truck,truck,0,0868_rot_s01_0_truck_20_n04467665_84527.png
subject-01,1,869,1.22320294380188,bicycle,bicycle,90,0869_rot_s01_90_bicycle_20_n03792782_16117.png
subject-01,1,870,0.855177879333496,boat,boat,0,0870_rot_s01_0_boat_20_n04273569_23800.png
subject-01,1,871,1.11684393882751,knife,knife,90,0871_rot_s01_90_knife_20_n03041632_19620.png
subject-01,1,872,1.13843202590942,bicycle,bicycle,180,0872_rot_s01_180_bicycle_20_n03792782_26168.png
subject-01,1,873,0.974382162094116,bear,bear,0,0873_rot_s01_0_bear_20_n02132136_1386.png
subject-01,1,874,1.35013508796692,keyboard,keyboard,90,0874_rot_s01_90_keyboard_20_n03085013_23625.png
subject-01,1,875,0.871766090393066,bottle,bottle,0,0875_rot_s01_0_bottle_20_n04557648_757.png
subject-01,1,876,1.0156409740448,dog,dog,0,0876_rot_s01_0_dog_20_n02102318_501.png
subject-01,1,877,1.10784888267517,boat,airplane,270,0877_rot_s01_270_airplane_20_n02690373_6104.png
subject-01,1,878,1.27529311180115,dog,dog,0,0878_rot_s01_0_dog_20_n02089973_9526.png
subject-01,1,879,0.799361228942871,boat,boat,180,0879_rot_s01_180_boat_20_n04612504_14176.png
subject-01,1,880,1.38913798332214,cat,cat,180,0880_rot_s01_180_cat_20_n02125311_43726.png
subject-01,1,881,0.758481025695801,clock,chair,90,0881_rot_s01_90_chair_20_n04429376_13191.png
subject-01,1,882,1.07653498649597,cat,oven,180,0882_rot_s01_180_oven_20_n04111531_3611.png
subject-01,1,883,1.09410119056702,chair,bottle,180,0883_rot_s01_180_bottle_20_n04560804_15267.png
subject-01,1,884,1.07181406021118,knife,knife,180,0884_rot_s01_180_knife_20_n03041632_2630.png
subject-01,1,885,0.821549892425537,cat,cat,90,0885_rot_s01_90_cat_20_n02124075_14998.png
subject-01,1,886,1.0858108997345,oven,oven,90,0886_rot_s01_90_oven_20_n04111531_1556.png
subject-01,1,887,1.01524615287781,boat,chair,270,0887_rot_s01_270_chair_20_n02791124_5561.png
subject-01,1,888,0.94518780708313,car,car,0,0888_rot_s01_0_car_20_n03100240_2195.png
subject-01,1,889,1.21274995803833,bear,bear,270,0889_rot_s01_270_bear_20_n02134084_1802.png
subject-01,1,890,0.701009035110474,clock,clock,180,0890_rot_s01_180_clock_20_n03196217_571.png
subject-01,1,891,1.09046316146851,knife,knife,0,0891_rot_s01_0_knife_20_n03041632_24113.png
subject-01,1,892,1.08623695373535,airplane,airplane,0,0892_rot_s01_0_airplane_20_n02690373_9829.png
subject-01,1,893,1.32217788696289,truck,truck,90,0893_rot_s01_90_truck_20_n03796401_15105.png
subject-01,1,894,0.869920015335083,bird,bird,90,0894_rot_s01_90_bird_20_n02018795_414.png
subject-01,1,895,1.13365721702576,elephant,elephant,270,0895_rot_s01_270_elephant_20_n02504013_13512.png
subject-01,1,896,1.0375280380249,keyboard,keyboard,180,0896_rot_s01_180_keyboard_20_n03085013_6405.png
subject-01,1,897,1.06944704055786,elephant,elephant,90,0897_rot_s01_90_elephant_20_n02504013_344.png
subject-01,1,898,1.03913903236389,boat,boat,180,0898_rot_s01_180_boat_20_n02951358_3511.png
subject-01,1,899,0.672951936721802,cat,keyboard,180,0899_rot_s01_180_keyboard_20_n03085013_3691.png
subject-01,1,900,1.08088493347168,bear,elephant,180,0900_rot_s01_180_elephant_20_n02504458_5816.png
subject-01,1,901,0.942788124084473,keyboard,keyboard,180,0901_rot_s01_180_keyboard_20_n04505470_10746.png
subject-01,1,902,1.09454011917114,truck,truck,0,0902_rot_s01_0_truck_20_n03417042_21047.png
subject-01,1,903,0.890267848968506,boat,boat,0,0903_rot_s01_0_boat_20_n03662601_8410.png
subject-01,1,904,1.18443703651428,airplane,airplane,270,0904_rot_s01_270_airplane_20_n02690373_1235.png
subject-01,1,905,0.837920188903809,cat,cat,180,0905_rot_s01_180_cat_20_n02123159_630.png
subject-01,1,906,1.26979684829712,knife,knife,90,0906_rot_s01_90_knife_20_n03041632_51339.png
subject-01,1,907,0.695472955703735,car,car,90,0907_rot_s01_90_car_20_n04285008_8641.png
subject-01,1,908,1.0792191028595,cat,dog,90,0908_rot_s01_90_dog_20_n02093428_17633.png
subject-01,1,909,0.843180894851685,bear,bear,90,0909_rot_s01_90_bear_20_n02133161_15177.png
subject-01,1,910,0.940910816192627,boat,boat,270,0910_rot_s01_270_boat_20_n02951358_1362.png
subject-01,1,911,1.22059392929077,airplane,airplane,270,0911_rot_s01_270_airplane_20_n02690373_6459.png
subject-01,1,912,0.940485000610352,bottle,bottle,0,0912_rot_s01_0_bottle_20_n03937543_1197.png
subject-01,1,913,0.794475078582764,bear,bear,0,0913_rot_s01_0_bear_20_n02132136_9797.png
subject-01,1,914,0.798273086547852,clock,clock,270,0914_rot_s01_270_clock_20_n02708093_3674.png
subject-01,1,915,1.49999809265137,dog,bear,0,0915_rot_s01_0_bear_20_n02132136_2799.png
subject-01,1,916,1.18022608757019,bird,bird,270,0916_rot_s01_270_bird_20_n01582220_6459.png
subject-01,1,917,0.855652809143066,cat,bird,0,0917_rot_s01_0_bird_20_n01817953_141.png
subject-01,1,918,0.929231882095337,bicycle,bicycle,90,0918_rot_s01_90_bicycle_20_n03792782_15016.png
subject-01,1,919,1.50004386901855,car,car,270,0919_rot_s01_270_car_20_n04285008_17151.png
subject-01,1,920,0.963041067123413,truck,truck,180,0920_rot_s01_180_truck_20_n03796401_2258.png
subject-01,1,921,0.99885106086731,knife,knife,0,0921_rot_s01_0_knife_20_n03041632_10263.png
subject-01,1,922,1.26667404174805,knife,knife,90,0922_rot_s01_90_knife_20_n03041632_30079.png
subject-01,1,923,1.16452980041504,oven,oven,0,0923_rot_s01_0_oven_20_n04111531_24065.png
subject-01,1,924,1.11223292350769,airplane,airplane,180,0924_rot_s01_180_airplane_20_n02690373_3669.png
subject-01,1,925,0.816267013549805,boat,boat,180,0925_rot_s01_180_boat_20_n02951358_3819.png
subject-01,1,926,0.893929004669189,clock,clock,0,0926_rot_s01_0_clock_20_n04548280_8278.png
subject-01,1,927,1.05167388916016,boat,bird,0,0927_rot_s01_0_bird_20_n01855672_55568.png
subject-01,1,928,1.07956409454346,keyboard,keyboard,90,0928_rot_s01_90_keyboard_20_n04505470_961.png
subject-01,1,929,0.98350715637207,bear,bear,0,0929_rot_s01_0_bear_20_n02133161_2040.png
subject-01,1,930,0.911126852035522,chair,chair,270,0930_rot_s01_270_chair_20_n04099969_9243.png
subject-01,1,931,1.1710159778595,boat,truck,90,0931_rot_s01_90_truck_20_n04467665_15994.png
subject-01,1,932,1.39055585861206,knife,knife,270,0932_rot_s01_270_knife_20_n03041632_29940.png
subject-01,1,933,0.652634143829346,clock,clock,180,0933_rot_s01_180_clock_20_n03196217_1271.png
subject-01,1,934,1.20435404777527,knife,knife,180,0934_rot_s01_180_knife_20_n03041632_33268.png
subject-01,1,935,0.654146909713745,cat,cat,270,0935_rot_s01_270_cat_20_n02123045_13025.png
subject-01,1,936,1.41619610786438,bear,elephant,270,0936_rot_s01_270_elephant_20_n02504013_4339.png
subject-01,1,937,1.01182293891907,airplane,airplane,90,0937_rot_s01_90_airplane_20_n02690373_3050.png
subject-01,1,938,0.75554895401001,chair,chair,90,0938_rot_s01_90_chair_20_n04099969_2561.png
subject-01,1,939,1.13758206367493,clock,dog,180,0939_rot_s01_180_dog_20_n02097047_5605.png
subject-01,1,940,0.959631204605103,airplane,airplane,180,0940_rot_s01_180_airplane_20_n02690373_6332.png
subject-01,1,941,1.20904493331909,oven,bottle,180,0941_rot_s01_180_bottle_20_n02823428_3298.png
subject-01,1,942,0.818962812423706,cat,cat,90,0942_rot_s01_90_cat_20_n02124075_1121.png
subject-01,1,943,1.00125288963318,bicycle,bicycle,90,0943_rot_s01_90_bicycle_20_n03792782_42978.png
subject-01,1,944,1.13060903549194,bottle,bottle,0,0944_rot_s01_0_bottle_20_n04560804_15625.png
subject-01,1,945,0.734214067459106,boat,boat,180,0945_rot_s01_180_boat_20_n04612504_13034.png
subject-01,1,946,0.832011938095093,dog,dog,180,0946_rot_s01_180_dog_20_n02099267_4999.png
subject-01,1,947,1.09007382392883,chair,chair,0,0947_rot_s01_0_chair_20_n04099969_6431.png
subject-01,1,948,1.38767981529236,truck,truck,0,0948_rot_s01_0_truck_20_n03417042_6975.png
subject-01,1,949,1.50007390975952,dog,dog,270,0949_rot_s01_270_dog_20_n02113023_291.png
subject-01,1,950,0.709372043609619,airplane,airplane,180,0950_rot_s01_180_airplane_20_n02690373_2038.png
subject-01,1,951,1.10759305953979,bear,bear,90,0951_rot_s01_90_bear_20_n02134418_5783.png
subject-01,1,952,0.859056949615479,airplane,airplane,90,0952_rot_s01_90_airplane_20_n02690373_12929.png
subject-01,1,953,1.16726088523865,oven,oven,90,0953_rot_s01_90_oven_20_n04111531_2618.png
subject-01,1,954,0.806565999984741,bird,bird,180,0954_rot_s01_180_bird_20_n02009912_18708.png
subject-01,1,955,0.954569816589355,clock,clock,0,0955_rot_s01_0_clock_20_n03196217_1255.png
subject-01,1,956,0.798357963562012,airplane,airplane,180,0956_rot_s01_180_airplane_20_n02690373_2128.png
subject-01,1,957,1.45003890991211,boat,airplane,180,0957_rot_s01_180_airplane_20_n02690373_852.png
subject-01,1,958,0.742047071456909,oven,oven,270,0958_rot_s01_270_oven_20_n04111531_18430.png
subject-01,1,959,0.830104112625122,bird,bird,0,0959_rot_s01_0_bird_20_n01534433_1227.png
subject-01,1,960,0.907990217208862,car,car,0,0960_rot_s01_0_car_20_n03100240_3927.png
subject-01,1,961,1.27261209487915,knife,knife,0,0961_rot_s01_0_knife_20_n03041632_43289.png
subject-01,1,962,0.890473127365112,bear,dog,180,0962_rot_s01_180_dog_20_n02109961_36163.png
subject-01,1,963,0.870271921157837,airplane,airplane,0,0963_rot_s01_0_airplane_20_n02690373_2379.png
subject-01,1,964,0.969980955123901,oven,oven,270,0964_rot_s01_270_oven_20_n04111531_9429.png
subject-01,1,965,0.819960832595825,keyboard,keyboard,0,0965_rot_s01_0_keyboard_20_n04505470_763.png
subject-01,1,966,1.36404204368591,elephant,oven,90,0966_rot_s01_90_oven_20_n04111531_4327.png
subject-01,1,967,0.657670021057129,boat,boat,270,0967_rot_s01_270_boat_20_n03344393_1533.png
subject-01,1,968,0.799287080764771,elephant,elephant,180,0968_rot_s01_180_elephant_20_n02504458_1504.png
subject-01,1,969,0.835506916046143,dog,dog,0,0969_rot_s01_0_dog_20_n02091831_332.png
subject-01,1,970,1.08501887321472,knife,knife,270,0970_rot_s01_270_knife_20_n03041632_7205.png
subject-01,1,971,0.796741962432861,dog,dog,0,0971_rot_s01_0_dog_20_n02104029_4770.png
subject-01,1,972,1.22257995605469,elephant,elephant,0,0972_rot_s01_0_elephant_20_n02504013_1636.png
subject-01,1,973,0.966288805007935,cat,cat,270,0973_rot_s01_270_cat_20_n02123597_6434.png
subject-01,1,974,0.998394966125488,airplane,airplane,270,0974_rot_s01_270_airplane_20_n02690373_4434.png
subject-01,1,975,0.881937026977539,bicycle,bicycle,180,0975_rot_s01_180_bicycle_20_n03792782_70555.png
subject-01,1,976,1.15378713607788,bear,bear,90,0976_rot_s01_90_bear_20_n02132136_14056.png
subject-01,1,977,0.935951948165894,car,car,270,0977_rot_s01_270_car_20_n03100240_17226.png
subject-01,1,978,1.33553004264832,truck,chair,180,0978_rot_s01_180_chair_20_n02791124_880.png
subject-01,1,979,0.959563970565796,elephant,elephant,270,0979_rot_s01_270_elephant_20_n02504013_7724.png
subject-01,1,980,0.987303972244263,keyboard,keyboard,90,0980_rot_s01_90_keyboard_20_n04505470_4173.png
subject-01,1,981,0.646766185760498,boat,boat,0,0981_rot_s01_0_boat_20_n03344393_9127.png
subject-01,1,982,1.46657085418701,oven,knife,180,0982_rot_s01_180_knife_20_n03041632_39883.png
subject-01,1,983,0.958558082580566,bird,bird,90,0983_rot_s01_90_bird_20_n01797886_2347.png
subject-01,1,984,0.960181951522827,cat,oven,90,0984_rot_s01_90_oven_20_n04111531_11157.png
subject-01,1,985,1.15808892250061,airplane,airplane,270,0985_rot_s01_270_airplane_20_n02690373_2584.png
subject-01,1,986,1.18585205078125,clock,chair,180,0986_rot_s01_180_chair_20_n02791124_3923.png
subject-01,1,987,1.24383807182312,bicycle,bicycle,0,0987_rot_s01_0_bicycle_20_n02835271_12743.png
subject-01,1,988,1.5000479221344,car,truck,180,0988_rot_s01_180_truck_20_n03417042_21663.png
subject-01,1,989,0.907701969146729,bicycle,bicycle,270,0989_rot_s01_270_bicycle_20_n03792782_50904.png
subject-01,1,990,1.49309492111206,chair,clock,0,0990_rot_s01_0_clock_20_n03196217_5103.png
subject-01,1,991,1.45302391052246,bicycle,elephant,180,0991_rot_s01_180_elephant_20_n02504458_5641.png
subject-01,1,992,1.35082197189331,airplane,airplane,0,0992_rot_s01_0_airplane_20_n02690373_8163.png
subject-01,1,993,0.842452049255371,oven,oven,270,0993_rot_s01_270_oven_20_n04111531_22041.png
subject-01,1,994,0.964375972747803,dog,dog,0,0994_rot_s01_0_dog_20_n02106550_1763.png
subject-01,1,995,0.870682954788208,dog,dog,270,0995_rot_s01_270_dog_20_n02094433_1289.png
subject-01,1,996,0.754077911376953,keyboard,keyboard,270,0996_rot_s01_270_keyboard_20_n04505470_6662.png
subject-01,1,997,0.993855953216553,knife,knife,180,0997_rot_s01_180_knife_20_n03041632_24228.png
subject-01,1,998,0.950069904327393,truck,truck,180,0998_rot_s01_180_truck_20_n04467665_13225.png
subject-01,1,999,1.28732109069824,airplane,elephant,180,0999_rot_s01_180_elephant_20_n02504013_7926.png
subject-01,1,1000,0.735337972640991,bicycle,bicycle,0,1000_rot_s01_0_bicycle_20_n02835271_9310.png
subject-01,1,1001,0.819555044174194,clock,clock,180,1001_rot_s01_180_clock_20_n04548280_3305.png
subject-01,1,1002,1.14093995094299,dog,dog,270,1002_rot_s01_270_dog_20_n02105505_3286.png
subject-01,1,1003,0.764606952667236,cat,cat,180,1003_rot_s01_180_cat_20_n02123045_5999.png
subject-01,1,1004,1.19041299819946,oven,truck,180,1004_rot_s01_180_truck_20_n03417042_5004.png
subject-01,1,1005,0.784355878829956,bird,bird,270,1005_rot_s01_270_bird_20_n02013706_652.png
subject-01,1,1006,1.38007616996765,bird,bird,270,1006_rot_s01_270_bird_20_n02018207_7930.png
subject-01,1,1007,1.01403498649597,truck,truck,180,1007_rot_s01_180_truck_20_n03417042_6539.png
subject-01,1,1008,1.04982900619507,elephant,elephant,90,1008_rot_s01_90_elephant_20_n02504458_12090.png
subject-01,1,1009,0.703610181808472,truck,truck,270,1009_rot_s01_270_truck_20_n03417042_9552.png
subject-01,1,1010,0.971337795257568,bear,dog,180,1010_rot_s01_180_dog_20_n02111277_4038.png
subject-01,1,1011,0.869113922119141,bottle,bottle,270,1011_rot_s01_270_bottle_20_n04591713_7036.png
subject-01,1,1012,1.09508395195007,clock,chair,270,1012_rot_s01_270_chair_20_n04429376_13448.png
subject-01,1,1013,1.05077791213989,oven,oven,270,1013_rot_s01_270_oven_20_n04111531_845.png
subject-01,1,1014,1.07468509674072,dog,dog,90,1014_rot_s01_90_dog_20_n02090622_7692.png
subject-01,1,1015,0.94253396987915,bottle,bottle,0,1015_rot_s01_0_bottle_20_n03983396_17262.png
subject-01,1,1016,0.946298837661743,elephant,elephant,180,1016_rot_s01_180_elephant_20_n02504458_1623.png
subject-01,1,1017,0.914119005203247,keyboard,keyboard,180,1017_rot_s01_180_keyboard_20_n03085013_20960.png
subject-01,1,1018,0.792284965515137,airplane,airplane,270,1018_rot_s01_270_airplane_20_n02690373_2629.png
subject-01,1,1019,1.26975011825562,bear,cat,270,1019_rot_s01_270_cat_20_n02123159_7369.png
subject-01,1,1020,1.50008916854858,cat,bottle,90,1020_rot_s01_90_bottle_20_n04560804_570.png
subject-01,1,1021,0.901262044906616,car,car,270,1021_rot_s01_270_car_20_n02814533_89061.png
subject-01,1,1022,1.01310205459595,dog,dog,180,1022_rot_s01_180_dog_20_n02093754_918.png
subject-01,1,1023,0.968866109848022,truck,truck,180,1023_rot_s01_180_truck_20_n03796401_26894.png
subject-01,1,1024,1.05866694450378,bicycle,truck,270,1024_rot_s01_270_truck_20_n03417042_27780.png
subject-01,1,1025,1.04691195487976,car,car,180,1025_rot_s01_180_car_20_n02814533_75923.png
subject-01,1,1026,0.79837703704834,boat,boat,0,1026_rot_s01_0_boat_20_n03662601_26140.png
subject-01,1,1027,0.922268152236938,elephant,elephant,180,1027_rot_s01_180_elephant_20_n02504013_1644.png
subject-01,1,1028,1.03589200973511,bear,oven,180,1028_rot_s01_180_oven_20_n04111531_704.png
subject-01,1,1029,0.707923889160156,boat,boat,270,1029_rot_s01_270_boat_20_n03344393_9390.png
subject-01,1,1030,1.03169798851013,dog,dog,90,1030_rot_s01_90_dog_20_n02097047_3817.png
subject-01,1,1031,1.1914849281311,bear,elephant,270,1031_rot_s01_270_elephant_20_n02504458_4001.png
subject-01,1,1032,0.879368782043457,elephant,elephant,180,1032_rot_s01_180_elephant_20_n02504458_259.png
subject-01,1,1033,0.761065006256104,oven,oven,180,1033_rot_s01_180_oven_20_n04111531_4939.png
subject-01,1,1034,1.11487793922424,elephant,elephant,90,1034_rot_s01_90_elephant_20_n02504458_2417.png
subject-01,1,1035,1.0527491569519,elephant,elephant,270,1035_rot_s01_270_elephant_20_n02504458_30.png
subject-01,1,1036,1.10040402412415,chair,chair,270,1036_rot_s01_270_chair_20_n04099969_41686.png
subject-01,1,1037,0.73646092414856,knife,knife,270,1037_rot_s01_270_knife_20_n03041632_46112.png
subject-01,1,1038,0.770194053649902,oven,oven,270,1038_rot_s01_270_oven_20_n04111531_10722.png
subject-01,1,1039,1.00018215179443,knife,knife,270,1039_rot_s01_270_knife_20_n03041632_751.png
subject-01,1,1040,1.12010598182678,clock,clock,270,1040_rot_s01_270_clock_20_n03196217_8887.png
subject-01,1,1041,0.741177082061768,bicycle,chair,180,1041_rot_s01_180_chair_20_n02791124_2938.png
subject-01,1,1042,1.13114309310913,chair,chair,90,1042_rot_s01_90_chair_20_n02791124_1740.png
subject-01,1,1043,1.01485800743103,bicycle,bicycle,90,1043_rot_s01_90_bicycle_20_n03792782_442.png
subject-01,1,1044,0.830778121948242,car,car,180,1044_rot_s01_180_car_20_n03100240_6479.png
subject-01,1,1045,0.810451984405518,cat,keyboard,180,1045_rot_s01_180_keyboard_20_n03085013_24316.png
subject-01,1,1046,1.25270891189575,elephant,elephant,90,1046_rot_s01_90_elephant_20_n02504013_1500.png
subject-01,1,1047,0.892108201980591,truck,truck,180,1047_rot_s01_180_truck_20_n03417042_189.png
subject-01,1,1048,1.00594115257263,bicycle,dog,180,1048_rot_s01_180_dog_20_n02090721_1449.png
subject-01,1,1049,0.745741128921509,clock,clock,270,1049_rot_s01_270_clock_20_n03196217_3194.png
subject-01,1,1050,0.917608022689819,knife,knife,0,1050_rot_s01_0_knife_20_n03041632_4279.png
subject-01,1,1051,0.811475992202759,boat,boat,270,1051_rot_s01_270_boat_20_n02951358_4937.png
subject-01,1,1052,0.84322190284729,clock,clock,180,1052_rot_s01_180_clock_20_n03196217_946.png
subject-01,1,1053,0.80313777923584,clock,clock,0,1053_rot_s01_0_clock_20_n04548280_6776.png
subject-01,1,1054,1.18080592155457,dog,dog,90,1054_rot_s01_90_dog_20_n02108551_7945.png
subject-01,1,1055,0.828741073608398,knife,knife,90,1055_rot_s01_90_knife_20_n03041632_19571.png
subject-01,1,1056,1.1825008392334,oven,knife,270,1056_rot_s01_270_knife_20_n03041632_29886.png
subject-01,1,1057,1.00832080841064,cat,oven,270,1057_rot_s01_270_oven_20_n04111531_5015.png
