subj,Session,trial,rt,object_response,category,condition,imagename
subject-04,1,1,0.66027307510376,bicycle,bicycle,180,0001_rot_s04_180_bicycle_20_n03792782_1173.png
subject-04,1,2,0.575873136520386,bicycle,bicycle,0,0002_rot_s04_0_bicycle_20_n03792782_30530.png
subject-04,1,3,0.665626049041748,bicycle,bicycle,90,0003_rot_s04_90_bicycle_20_n03792782_1475.png
subject-04,1,4,0.725311994552612,elephant,bear,90,0004_rot_s04_90_bear_20_n02134418_1026.png
subject-04,1,5,0.619254112243652,knife,knife,270,0005_rot_s04_270_knife_20_n03041632_14916.png
subject-04,1,6,0.729006052017212,knife,knife,0,0006_rot_s04_0_knife_20_n03041632_9488.png
subject-04,1,7,0.617108821868896,oven,oven,0,0007_rot_s04_0_oven_20_n04111531_6204.png
subject-04,1,8,0.816677093505859,chair,chair,180,0008_rot_s04_180_chair_20_n04099969_22118.png
subject-04,1,9,0.610589981079102,boat,boat,180,0009_rot_s04_180_boat_20_n02951358_3819.png
subject-04,1,10,0.626327037811279,airplane,airplane,0,0010_rot_s04_0_airplane_20_n02690373_2232.png
subject-04,1,11,0.608438968658447,boat,boat,180,0011_rot_s04_180_boat_20_n04612504_14176.png
subject-04,1,12,0.977993011474609,truck,truck,0,0012_rot_s04_0_truck_20_n04467665_49132.png
subject-04,1,13,0.743705034255981,truck,truck,270,0013_rot_s04_270_truck_20_n03417042_18745.png
subject-04,1,14,0.675963163375854,chair,chair,270,0014_rot_s04_270_chair_20_n03376595_209.png
subject-04,1,15,0.791502952575684,bear,bear,90,0015_rot_s04_90_bear_20_n02134418_10879.png
subject-04,1,16,0.736955881118774,bird,bird,0,0016_rot_s04_0_bird_20_n02006656_5757.png
subject-04,1,17,0.98934006690979,knife,knife,90,0017_rot_s04_90_knife_20_n03041632_17859.png
subject-04,1,18,1.27472186088562,bear,bear,0,0018_rot_s04_0_bear_20_n02134084_3934.png
subject-04,1,19,0.886623859405518,cat,bird,180,0019_rot_s04_180_bird_20_n01532829_37796.png
subject-04,1,20,1.05434894561768,bear,bear,0,0020_rot_s04_0_bear_20_n02132136_1386.png
subject-04,1,21,0.744220018386841,cat,cat,90,0021_rot_s04_90_cat_20_n02124075_20.png
subject-04,1,22,0.540237903594971,bicycle,bicycle,270,0022_rot_s04_270_bicycle_20_n03792782_28970.png
subject-04,1,23,0.825841903686523,boat,elephant,180,0023_rot_s04_180_elephant_20_n02504458_6805.png
subject-04,1,24,1.047611951828,bottle,bottle,180,0024_rot_s04_180_bottle_20_n02823428_4530.png
subject-04,1,25,0.633531093597412,bird,bird,270,0025_rot_s04_270_bird_20_n02028035_20411.png
subject-04,1,26,0.981224060058594,elephant,elephant,0,0026_rot_s04_0_elephant_20_n02504458_8621.png
subject-04,1,27,0.475009918212891,clock,clock,90,0027_rot_s04_90_clock_20_n04548280_3531.png
subject-04,1,28,0.77315092086792,keyboard,keyboard,90,0028_rot_s04_90_keyboard_20_n04505470_4047.png
subject-04,1,29,0.77277684211731,bicycle,bird,180,0029_rot_s04_180_bird_20_n01855672_15421.png
subject-04,1,30,0.522615909576416,clock,clock,0,0030_rot_s04_0_clock_20_n03196217_11724.png
subject-04,1,31,0.75845193862915,airplane,airplane,270,0031_rot_s04_270_airplane_20_n02690373_6621.png
subject-04,1,32,0.90847110748291,bird,oven,180,0032_rot_s04_180_oven_20_n04111531_3611.png
subject-04,1,33,0.753864049911499,elephant,elephant,0,0033_rot_s04_0_elephant_20_n02504458_151.png
subject-04,1,34,1.09782910346985,truck,truck,270,0034_rot_s04_270_truck_20_n03796401_7455.png
subject-04,1,35,1.02163600921631,truck,truck,180,0035_rot_s04_180_truck_20_n04467665_23691.png
subject-04,1,36,0.723439931869507,airplane,airplane,180,0036_rot_s04_180_airplane_20_n02690373_4588.png
subject-04,1,37,0.579553842544556,boat,bear,0,0037_rot_s04_0_bear_20_n02132136_10385.png
subject-04,1,38,0.741158008575439,oven,chair,180,0038_rot_s04_180_chair_20_n02791124_3923.png
subject-04,1,39,0.906910181045532,cat,cat,0,0039_rot_s04_0_cat_20_n02123597_13286.png
subject-04,1,40,0.774633884429932,bicycle,chair,180,0040_rot_s04_180_chair_20_n02791124_2938.png
subject-04,1,41,0.454864025115967,clock,clock,270,0041_rot_s04_270_clock_20_n03196217_1829.png
subject-04,1,42,0.578380107879639,airplane,airplane,180,0042_rot_s04_180_airplane_20_n02690373_2128.png
subject-04,1,43,1.50008702278137,keyboard,keyboard,180,0043_rot_s04_180_keyboard_20_n03085013_7009.png
subject-04,1,44,0.785799026489258,knife,knife,270,0044_rot_s04_270_knife_20_n03041632_17820.png
subject-04,1,45,0.805745124816895,car,car,0,0045_rot_s04_0_car_20_n03100240_16084.png
subject-04,1,46,0.945589065551758,knife,knife,270,0046_rot_s04_270_knife_20_n03041632_7173.png
subject-04,1,47,0.63535213470459,clock,clock,270,0047_rot_s04_270_clock_20_n02708093_1981.png
subject-04,1,48,0.726992845535278,bottle,bottle,90,0048_rot_s04_90_bottle_20_n02823428_10417.png
subject-04,1,49,0.806869983673096,chair,chair,180,0049_rot_s04_180_chair_20_n02791124_1287.png
subject-04,1,50,1.07483792304993,airplane,airplane,90,0050_rot_s04_90_airplane_20_n02690373_1909.png
subject-04,1,51,1.00467014312744,knife,knife,90,0051_rot_s04_90_knife_20_n03041632_31301.png
subject-04,1,52,0.636461019515991,elephant,elephant,90,0052_rot_s04_90_elephant_20_n02504458_3608.png
subject-04,1,53,1.18016695976257,keyboard,keyboard,90,0053_rot_s04_90_keyboard_20_n04505470_4159.png
subject-04,1,54,0.71790599822998,elephant,elephant,0,0054_rot_s04_0_elephant_20_n02504458_7867.png
subject-04,1,55,0.737875938415527,car,car,180,0055_rot_s04_180_car_20_n02814533_55715.png
subject-04,1,56,0.96582293510437,cat,cat,180,0056_rot_s04_180_cat_20_n02125311_43726.png
subject-04,1,57,0.691731929779053,clock,clock,270,0057_rot_s04_270_clock_20_n03196217_6198.png
subject-04,1,58,1.0717499256134,knife,elephant,180,0058_rot_s04_180_elephant_20_n02504013_13283.png
subject-04,1,59,1.04898500442505,cat,cat,270,0059_rot_s04_270_cat_20_n02123045_8409.png
subject-04,1,60,0.752916097640991,bottle,bottle,180,0060_rot_s04_180_bottle_20_n04560804_15941.png
subject-04,1,61,1.50012493133545,bear,bear,0,0061_rot_s04_0_bear_20_n02134418_517.png
subject-04,1,62,0.928601980209351,cat,cat,90,0062_rot_s04_90_cat_20_n02125311_73072.png
subject-04,1,63,0.592362880706787,boat,boat,270,0063_rot_s04_270_boat_20_n02951358_4937.png
subject-04,1,64,0.628220081329346,keyboard,keyboard,180,0064_rot_s04_180_keyboard_20_n03085013_22698.png
subject-04,1,65,0.668010950088501,bicycle,bicycle,180,0065_rot_s04_180_bicycle_20_n02835271_24630.png
subject-04,1,66,1.47373676300049,dog,elephant,270,0066_rot_s04_270_elephant_20_n02504013_1761.png
subject-04,1,67,0.75763201713562,truck,truck,0,0067_rot_s04_0_truck_20_n03417042_19355.png
subject-04,1,68,1.13326096534729,cat,bear,180,0068_rot_s04_180_bear_20_n02133161_2741.png
subject-04,1,69,0.6492600440979,clock,clock,180,0069_rot_s04_180_clock_20_n03196217_6526.png
subject-04,1,70,0.691043138504028,airplane,airplane,0,0070_rot_s04_0_airplane_20_n02690373_736.png
subject-04,1,71,0.582771778106689,bird,bird,270,0071_rot_s04_270_bird_20_n01592084_8100.png
subject-04,1,72,1.27465009689331,bear,bear,270,0072_rot_s04_270_bear_20_n02132136_239.png
subject-04,1,73,0.622453927993774,clock,clock,270,0073_rot_s04_270_clock_20_n03196217_8887.png
subject-04,1,74,0.966206073760986,dog,cat,90,0074_rot_s04_90_cat_20_n02123597_2522.png
subject-04,1,75,0.820153951644897,truck,truck,270,0075_rot_s04_270_truck_20_n03417042_5301.png
subject-04,1,76,0.655846834182739,clock,clock,90,0076_rot_s04_90_clock_20_n04548280_18914.png
subject-04,1,77,0.679711103439331,bird,bird,270,0077_rot_s04_270_bird_20_n02028035_10744.png
subject-04,1,78,1.07191300392151,bird,bird,270,0078_rot_s04_270_bird_20_n01614925_1860.png
subject-04,1,79,0.691498994827271,bear,bear,0,0079_rot_s04_0_bear_20_n02133161_62.png
subject-04,1,80,0.769117832183838,truck,truck,180,0080_rot_s04_180_truck_20_n04467665_9589.png
subject-04,1,81,0.774746894836426,airplane,airplane,180,0081_rot_s04_180_airplane_20_n02690373_6602.png
subject-04,1,82,0.698461055755615,bottle,bottle,90,0082_rot_s04_90_bottle_20_n03937543_4399.png
subject-04,1,83,0.47457480430603,clock,clock,90,0083_rot_s04_90_clock_20_n04548280_4841.png
subject-04,1,84,0.490210056304932,oven,oven,180,0084_rot_s04_180_oven_20_n04111531_10667.png
subject-04,1,85,0.474182844161987,clock,clock,180,0085_rot_s04_180_clock_20_n02708093_2900.png
subject-04,1,86,0.799675941467285,truck,truck,270,0086_rot_s04_270_truck_20_n03796401_19845.png
subject-04,1,87,0.955526828765869,dog,dog,0,0087_rot_s04_0_dog_20_n02110806_749.png
subject-04,1,88,0.86322021484375,chair,chair,90,0088_rot_s04_90_chair_20_n04099969_8642.png
subject-04,1,89,0.873240947723389,chair,chair,90,0089_rot_s04_90_chair_20_n02791124_5199.png
subject-04,1,90,0.863067150115967,keyboard,keyboard,180,0090_rot_s04_180_keyboard_20_n03085013_20478.png
subject-04,1,91,0.940877914428711,bottle,bottle,270,0091_rot_s04_270_bottle_20_n04591713_7036.png
subject-04,1,92,0.674863815307617,car,car,90,0092_rot_s04_90_car_20_n02814533_31743.png
subject-04,1,93,1.13441801071167,keyboard,clock,270,0093_rot_s04_270_clock_20_n03196217_1984.png
subject-04,1,94,0.980565071105957,boat,boat,270,0094_rot_s04_270_boat_20_n04273569_29866.png
subject-04,1,95,0.786089897155762,car,car,270,0095_rot_s04_270_car_20_n02814533_82321.png
subject-04,1,96,0.72795581817627,chair,chair,180,0096_rot_s04_180_chair_20_n04099969_8021.png
subject-04,1,97,0.655691862106323,clock,clock,90,0097_rot_s04_90_clock_20_n02708093_3394.png
subject-04,1,98,1.01563906669617,elephant,bear,0,0098_rot_s04_0_bear_20_n02134418_4374.png
subject-04,1,99,0.577310800552368,bird,bird,0,0099_rot_s04_0_bird_20_n02006656_2030.png
subject-04,1,100,0.867166996002197,clock,clock,90,0100_rot_s04_90_clock_20_n03196217_421.png
subject-04,1,101,0.758992195129395,chair,chair,270,0101_rot_s04_270_chair_20_n02791124_4412.png
subject-04,1,102,0.652724027633667,knife,knife,270,0102_rot_s04_270_knife_20_n03041632_7205.png
subject-04,1,103,0.936753988265991,dog,dog,90,0103_rot_s04_90_dog_20_n02110063_8776.png
subject-04,1,104,0.814675092697144,bottle,bottle,270,0104_rot_s04_270_bottle_20_n02823428_10946.png
subject-04,1,105,0.620080232620239,cat,cat,0,0105_rot_s04_0_cat_20_n02123597_32226.png
subject-04,1,106,0.853924989700317,chair,oven,90,0106_rot_s04_90_oven_20_n04111531_8988.png
subject-04,1,107,0.894120931625366,car,car,90,0107_rot_s04_90_car_20_n02814533_71641.png
subject-04,1,108,0.575402975082397,elephant,elephant,0,0108_rot_s04_0_elephant_20_n02504013_1333.png
subject-04,1,109,0.565480947494507,bicycle,bicycle,0,0109_rot_s04_0_bicycle_20_n02835271_8521.png
subject-04,1,110,0.591547012329102,cat,cat,180,0110_rot_s04_180_cat_20_n02123597_4805.png
subject-04,1,111,0.569434881210327,airplane,airplane,0,0111_rot_s04_0_airplane_20_n02690373_4979.png
subject-04,1,112,1.04701805114746,keyboard,keyboard,270,0112_rot_s04_270_keyboard_20_n04505470_1929.png
subject-04,1,113,0.842756986618042,keyboard,keyboard,270,0113_rot_s04_270_keyboard_20_n03085013_13083.png
subject-04,1,114,0.734472036361694,clock,clock,90,0114_rot_s04_90_clock_20_n02708093_2676.png
subject-04,1,115,0.840286016464233,chair,knife,90,0115_rot_s04_90_knife_20_n03041632_11773.png
subject-04,1,116,0.722133159637451,cat,cat,90,0116_rot_s04_90_cat_20_n02123394_2964.png
subject-04,1,117,0.775959014892578,dog,bear,180,0117_rot_s04_180_bear_20_n02132136_5537.png
subject-04,1,118,0.635854959487915,cat,cat,0,0118_rot_s04_0_cat_20_n02123597_19872.png
subject-04,1,119,0.857698917388916,dog,dog,270,0119_rot_s04_270_dog_20_n02096051_1852.png
subject-04,1,120,1.02343702316284,cat,cat,180,0120_rot_s04_180_cat_20_n02123159_630.png
subject-04,1,121,0.737321853637695,boat,boat,270,0121_rot_s04_270_boat_20_n02951358_9837.png
subject-04,1,122,1.42531108856201,chair,dog,0,0122_rot_s04_0_dog_20_n02099601_8656.png
subject-04,1,123,1.12890887260437,bicycle,bicycle,270,0123_rot_s04_270_bicycle_20_n03792782_29606.png
subject-04,1,124,0.666476011276245,car,car,0,0124_rot_s04_0_car_20_n02814533_37256.png
subject-04,1,125,0.570766925811768,bicycle,bicycle,270,0125_rot_s04_270_bicycle_20_n02835271_3956.png
subject-04,1,126,0.934279203414917,boat,boat,270,0126_rot_s04_270_boat_20_n03662601_20059.png
subject-04,1,127,0.816151857376099,car,car,180,0127_rot_s04_180_car_20_n03100240_16210.png
subject-04,1,128,0.621837854385376,airplane,airplane,180,0128_rot_s04_180_airplane_20_n02690373_3669.png
subject-04,1,129,0.717617988586426,knife,knife,270,0129_rot_s04_270_knife_20_n03041632_751.png
subject-04,1,130,0.899642944335938,chair,bottle,180,0130_rot_s04_180_bottle_20_n03983396_9667.png
subject-04,1,131,0.995502948760986,keyboard,keyboard,90,0131_rot_s04_90_keyboard_20_n03085013_25924.png
subject-04,1,132,0.822973012924194,boat,bear,90,0132_rot_s04_90_bear_20_n02132136_1285.png
subject-04,1,133,0.660969018936157,oven,oven,180,0133_rot_s04_180_oven_20_n04111531_1439.png
subject-04,1,134,0.600588798522949,boat,boat,270,0134_rot_s04_270_boat_20_n03344393_1533.png
subject-04,1,135,1.09856009483337,dog,bird,180,0135_rot_s04_180_bird_20_n01820546_1089.png
subject-04,1,136,0.940455913543701,chair,chair,0,0136_rot_s04_0_chair_20_n02791124_4956.png
subject-04,1,137,0.872213125228882,oven,oven,0,0137_rot_s04_0_oven_20_n04111531_18648.png
subject-04,1,138,0.831860065460205,bird,bird,270,0138_rot_s04_270_bird_20_n02056570_9303.png
subject-04,1,139,0.889841079711914,truck,truck,270,0139_rot_s04_270_truck_20_n04467665_67908.png
subject-04,1,140,0.78551983833313,truck,truck,90,0140_rot_s04_90_truck_20_n03417042_28078.png
subject-04,1,141,1.38152503967285,cat,dog,90,0141_rot_s04_90_dog_20_n02100877_11159.png
subject-04,1,142,0.827292919158936,elephant,elephant,90,0142_rot_s04_90_elephant_20_n02504458_585.png
subject-04,1,143,0.759377002716064,bicycle,bicycle,90,0143_rot_s04_90_bicycle_20_n02835271_11697.png
subject-04,1,144,0.863035917282104,cat,cat,90,0144_rot_s04_90_cat_20_n02125311_59332.png
subject-04,1,145,0.694649934768677,chair,chair,0,0145_rot_s04_0_chair_20_n04099969_4971.png
subject-04,1,146,0.824639081954956,knife,knife,180,0146_rot_s04_180_knife_20_n03041632_4318.png
subject-04,1,147,NaN,na,oven,180,0147_rot_s04_180_oven_20_n04111531_2199.png
subject-04,1,148,0.930177927017212,oven,bottle,90,0148_rot_s04_90_bottle_20_n03937543_2469.png
subject-04,1,149,0.979855060577393,keyboard,keyboard,180,0149_rot_s04_180_keyboard_20_n04505470_933.png
subject-04,1,150,0.779788970947266,elephant,elephant,180,0150_rot_s04_180_elephant_20_n02504013_2431.png
subject-04,1,151,0.7138991355896,cat,cat,270,0151_rot_s04_270_cat_20_n02123597_6434.png
subject-04,1,152,0.801372051239014,bicycle,truck,270,0152_rot_s04_270_truck_20_n04467665_3720.png
subject-04,1,153,0.773234128952026,keyboard,keyboard,90,0153_rot_s04_90_keyboard_20_n03085013_9209.png
subject-04,1,154,0.57098388671875,clock,clock,270,0154_rot_s04_270_clock_20_n02708093_5577.png
subject-04,1,155,1.04675793647766,boat,boat,180,0155_rot_s04_180_boat_20_n04612504_13034.png
subject-04,1,156,0.658867120742798,cat,bear,90,0156_rot_s04_90_bear_20_n02134418_1814.png
subject-04,1,157,0.780674934387207,bicycle,bicycle,180,0157_rot_s04_180_bicycle_20_n02835271_6742.png
subject-04,1,158,0.554440021514893,boat,airplane,90,0158_rot_s04_90_airplane_20_n02690373_10727.png
subject-04,1,159,1.07817006111145,knife,knife,0,0159_rot_s04_0_knife_20_n03041632_13846.png
subject-04,1,160,0.829851150512695,cat,bird,270,0160_rot_s04_270_bird_20_n01558993_55.png
subject-04,1,161,0.757680892944336,chair,chair,0,0161_rot_s04_0_chair_20_n03376595_5909.png
subject-04,1,162,0.499530792236328,bicycle,bicycle,0,0162_rot_s04_0_bicycle_20_n02835271_10265.png
subject-04,1,163,0.855087995529175,knife,knife,180,0163_rot_s04_180_knife_20_n03041632_53874.png
subject-04,1,164,0.659034013748169,airplane,airplane,180,0164_rot_s04_180_airplane_20_n02690373_20331.png
subject-04,1,165,0.970810890197754,oven,oven,270,0165_rot_s04_270_oven_20_n04111531_1826.png
subject-04,1,166,0.648646116256714,airplane,airplane,90,0166_rot_s04_90_airplane_20_n02690373_12929.png
subject-04,1,167,0.764508008956909,bear,dog,270,0167_rot_s04_270_dog_20_n02105505_3286.png
subject-04,1,168,0.704317092895508,chair,oven,180,0168_rot_s04_180_oven_20_n04111531_11026.png
subject-04,1,169,0.474364995956421,clock,clock,270,0169_rot_s04_270_clock_20_n03196217_3194.png
subject-04,1,170,0.787774085998535,bird,bird,90,0170_rot_s04_90_bird_20_n02002556_5890.png
subject-04,1,171,1.09561896324158,keyboard,keyboard,0,0171_rot_s04_0_keyboard_20_n04505470_10055.png
subject-04,1,172,0.743914127349854,bottle,bottle,180,0172_rot_s04_180_bottle_20_n02823428_8077.png
subject-04,1,173,0.865594863891602,knife,knife,0,0173_rot_s04_0_knife_20_n03041632_25656.png
subject-04,1,174,0.919167995452881,bottle,bottle,90,0174_rot_s04_90_bottle_20_n04557648_15053.png
subject-04,1,175,1.20324516296387,chair,chair,180,0175_rot_s04_180_chair_20_n04429376_3898.png
subject-04,1,176,1.05487704277039,chair,chair,180,0176_rot_s04_180_chair_20_n03376595_9219.png
subject-04,1,177,1.05503392219543,bird,knife,270,0177_rot_s04_270_knife_20_n03041632_15099.png
subject-04,1,178,0.534230947494507,cat,cat,0,0178_rot_s04_0_cat_20_n02123159_1008.png
subject-04,1,179,0.628264188766479,car,car,90,0179_rot_s04_90_car_20_n02814533_5916.png
subject-04,1,180,0.920415878295898,truck,truck,0,0180_rot_s04_0_truck_20_n03796401_588.png
subject-04,1,181,1.2896728515625,chair,chair,270,0181_rot_s04_270_chair_20_n02791124_5561.png
subject-04,1,182,0.677807092666626,cat,cat,270,0182_rot_s04_270_cat_20_n02123045_13025.png
subject-04,1,183,1.28740406036377,clock,bottle,0,0183_rot_s04_0_bottle_20_n04560804_15625.png
subject-04,1,184,1.07127094268799,truck,truck,180,0184_rot_s04_180_truck_20_n03417042_19447.png
subject-04,1,185,1.08721494674683,car,car,180,0185_rot_s04_180_car_20_n02814533_29367.png
subject-04,1,186,0.892979860305786,bird,bird,270,0186_rot_s04_270_bird_20_n01843383_9985.png
subject-04,1,187,0.764714002609253,bird,bird,270,0187_rot_s04_270_bird_20_n02013706_652.png
subject-04,1,188,0.922502040863037,elephant,elephant,0,0188_rot_s04_0_elephant_20_n02504458_493.png
subject-04,1,189,0.836297988891602,chair,knife,0,0189_rot_s04_0_knife_20_n03041632_8666.png
subject-04,1,190,1.04994797706604,chair,chair,90,0190_rot_s04_90_chair_20_n03376595_10266.png
subject-04,1,191,0.637864828109741,chair,chair,0,0191_rot_s04_0_chair_20_n04099969_5854.png
subject-04,1,192,0.887968063354492,truck,truck,90,0192_rot_s04_90_truck_20_n03796401_7284.png
subject-04,1,193,0.587581157684326,boat,boat,90,0193_rot_s04_90_boat_20_n04273569_19314.png
subject-04,1,194,0.725514888763428,keyboard,keyboard,90,0194_rot_s04_90_keyboard_20_n03085013_8334.png
subject-04,1,195,0.907649993896484,airplane,airplane,270,0195_rot_s04_270_airplane_20_n02690373_2584.png
subject-04,1,196,0.504986047744751,boat,boat,180,0196_rot_s04_180_boat_20_n03662601_16627.png
subject-04,1,197,0.629250049591064,clock,clock,0,0197_rot_s04_0_clock_20_n04548280_8303.png
subject-04,1,198,0.988654851913452,clock,knife,270,0198_rot_s04_270_knife_20_n03041632_17100.png
subject-04,1,199,0.714892864227295,chair,chair,0,0199_rot_s04_0_chair_20_n03376595_19165.png
subject-04,1,200,0.720284938812256,bird,bear,180,0200_rot_s04_180_bear_20_n02132136_9703.png
subject-04,1,201,0.714411020278931,keyboard,keyboard,270,0201_rot_s04_270_keyboard_20_n03085013_19054.png
subject-04,1,202,0.705972909927368,keyboard,keyboard,0,0202_rot_s04_0_keyboard_20_n03085013_15249.png
subject-04,1,203,0.565764904022217,bicycle,bicycle,90,0203_rot_s04_90_bicycle_20_n03792782_47774.png
subject-04,1,204,0.667859077453613,bicycle,bicycle,90,0204_rot_s04_90_bicycle_20_n02835271_7053.png
subject-04,1,205,0.669404029846191,airplane,airplane,270,0205_rot_s04_270_airplane_20_n02690373_10769.png
subject-04,1,206,0.543493986129761,car,car,0,0206_rot_s04_0_car_20_n02814533_79974.png
subject-04,1,207,0.583081960678101,clock,clock,180,0207_rot_s04_180_clock_20_n04548280_15154.png
subject-04,1,208,0.770901918411255,dog,bear,0,0208_rot_s04_0_bear_20_n02134418_132.png
subject-04,1,209,0.622612953186035,car,car,180,0209_rot_s04_180_car_20_n03100240_8489.png
subject-04,1,210,0.78849196434021,car,elephant,90,0210_rot_s04_90_elephant_20_n02504013_673.png
subject-04,1,211,0.970636129379272,boat,boat,90,0211_rot_s04_90_boat_20_n03344393_6588.png
subject-04,1,212,0.71621298789978,car,truck,180,0212_rot_s04_180_truck_20_n04467665_49826.png
subject-04,1,213,0.630009889602661,clock,clock,270,0213_rot_s04_270_clock_20_n02708093_3841.png
subject-04,1,214,0.973776817321777,airplane,airplane,0,0214_rot_s04_0_airplane_20_n02690373_2070.png
subject-04,1,215,0.855368137359619,elephant,elephant,90,0215_rot_s04_90_elephant_20_n02504013_3540.png
subject-04,1,216,0.63336706161499,chair,chair,270,0216_rot_s04_270_chair_20_n04099969_5396.png
subject-04,1,217,0.76923394203186,cat,cat,180,0217_rot_s04_180_cat_20_n02123159_5548.png
subject-04,1,218,0.896925926208496,bear,dog,180,0218_rot_s04_180_dog_20_n02101006_6694.png
subject-04,1,219,0.896788120269775,bottle,bottle,270,0219_rot_s04_270_bottle_20_n04591713_3663.png
subject-04,1,220,0.570704936981201,car,car,90,0220_rot_s04_90_car_20_n02814533_18148.png
subject-04,1,221,1.12426495552063,dog,dog,90,0221_rot_s04_90_dog_20_n02100236_1662.png
subject-04,1,222,0.594122886657715,bicycle,bicycle,90,0222_rot_s04_90_bicycle_20_n03792782_42978.png
subject-04,1,223,0.618058204650879,knife,knife,90,0223_rot_s04_90_knife_20_n03041632_50648.png
subject-04,1,224,0.806123971939087,bicycle,bicycle,90,0224_rot_s04_90_bicycle_20_n03792782_66159.png
subject-04,1,225,0.603847026824951,chair,chair,180,0225_rot_s04_180_chair_20_n04099969_10825.png
subject-04,1,226,0.761690139770508,bicycle,bicycle,270,0226_rot_s04_270_bicycle_20_n03792782_68417.png
subject-04,1,227,0.659217834472656,knife,knife,90,0227_rot_s04_90_knife_20_n03041632_4806.png
subject-04,1,228,0.871060132980347,bear,elephant,0,0228_rot_s04_0_elephant_20_n02504458_3628.png
subject-04,1,229,0.726746082305908,bear,bear,180,0229_rot_s04_180_bear_20_n02134084_20605.png
subject-04,1,230,0.582555055618286,boat,boat,180,0230_rot_s04_180_boat_20_n04273569_6586.png
subject-04,1,231,0.776410102844238,chair,chair,0,0231_rot_s04_0_chair_20_n04099969_17087.png
subject-04,1,232,0.970350980758667,bird,bird,0,0232_rot_s04_0_bird_20_n02013706_7808.png
subject-04,1,233,0.712355136871338,bottle,bottle,270,0233_rot_s04_270_bottle_20_n02823428_1495.png
subject-04,1,234,0.639904975891113,boat,boat,0,0234_rot_s04_0_boat_20_n03662601_17483.png
subject-04,1,235,1.01160883903503,bottle,chair,270,0235_rot_s04_270_chair_20_n03376595_9535.png
subject-04,1,236,0.883633136749268,bicycle,bicycle,270,0236_rot_s04_270_bicycle_20_n03792782_12844.png
subject-04,1,237,0.823282957077026,truck,truck,0,0237_rot_s04_0_truck_20_n03417042_21047.png
subject-04,1,238,0.777424097061157,bird,bird,270,0238_rot_s04_270_bird_20_n02028035_32824.png
subject-04,1,239,1.19295406341553,truck,truck,90,0239_rot_s04_90_truck_20_n04467665_8303.png
subject-04,1,240,0.804634094238281,cat,cat,0,0240_rot_s04_0_cat_20_n02123045_455.png
subject-04,1,241,0.615522146224976,bottle,bottle,0,0241_rot_s04_0_bottle_20_n03937543_1197.png
subject-04,1,242,0.757417917251587,airplane,airplane,90,0242_rot_s04_90_airplane_20_n02690373_9794.png
subject-04,1,243,0.877296924591064,bear,bear,180,0243_rot_s04_180_bear_20_n02132136_545.png
subject-04,1,244,0.533400058746338,bicycle,bicycle,180,0244_rot_s04_180_bicycle_20_n02835271_2625.png
subject-04,1,245,0.511136054992676,clock,clock,0,0245_rot_s04_0_clock_20_n04548280_253.png
subject-04,1,246,0.794620990753174,keyboard,keyboard,90,0246_rot_s04_90_keyboard_20_n04505470_816.png
subject-04,1,247,0.692254066467285,knife,knife,180,0247_rot_s04_180_knife_20_n03041632_33268.png
subject-04,1,248,1.02635383605957,elephant,cat,90,0248_rot_s04_90_cat_20_n02123159_6933.png
subject-04,1,249,0.794168949127197,elephant,elephant,270,0249_rot_s04_270_elephant_20_n02504013_522.png
subject-04,1,250,0.561962127685547,cat,cat,90,0250_rot_s04_90_cat_20_n02123045_7294.png
subject-04,1,251,0.886002063751221,oven,oven,90,0251_rot_s04_90_oven_20_n04111531_21011.png
subject-04,1,252,0.943549156188965,boat,boat,0,0252_rot_s04_0_boat_20_n04273569_1538.png
subject-04,1,253,0.883270025253296,keyboard,keyboard,270,0253_rot_s04_270_keyboard_20_n03085013_20716.png
subject-04,1,254,0.699009895324707,chair,chair,270,0254_rot_s04_270_chair_20_n02791124_3710.png
subject-04,1,255,0.796981811523438,cat,cat,270,0255_rot_s04_270_cat_20_n02123597_2219.png
subject-04,1,256,0.644793033599854,bottle,bottle,270,0256_rot_s04_270_bottle_20_n04579145_3729.png
subject-04,1,257,0.492596864700317,boat,boat,0,0257_rot_s04_0_boat_20_n03662601_28640.png
subject-04,1,258,0.712323904037476,clock,clock,270,0258_rot_s04_270_clock_20_n03196217_3600.png
subject-04,1,259,0.844235181808472,truck,truck,180,0259_rot_s04_180_truck_20_n03417042_29384.png
subject-04,1,260,0.704001188278198,boat,clock,270,0260_rot_s04_270_clock_20_n03196217_5433.png
subject-04,1,261,0.492043018341064,oven,oven,0,0261_rot_s04_0_oven_20_n04111531_1922.png
subject-04,1,262,0.581597089767456,boat,boat,0,0262_rot_s04_0_boat_20_n03344393_9251.png
subject-04,1,263,0.515282869338989,boat,boat,0,0263_rot_s04_0_boat_20_n02951358_14966.png
subject-04,1,264,0.719249963760376,oven,oven,180,0264_rot_s04_180_oven_20_n04111531_9779.png
subject-04,1,265,1.07912111282349,boat,chair,270,0265_rot_s04_270_chair_20_n03376595_6445.png
subject-04,1,266,0.42486310005188,clock,clock,90,0266_rot_s04_90_clock_20_n02708093_3623.png
subject-04,1,267,0.864614009857178,bottle,bottle,90,0267_rot_s04_90_bottle_20_n03937543_5257.png
subject-04,1,268,0.458789110183716,boat,boat,270,0268_rot_s04_270_boat_20_n04273569_10980.png
subject-04,1,269,1.28833293914795,bird,keyboard,0,0269_rot_s04_0_keyboard_20_n03085013_7613.png
subject-04,1,270,0.59608006477356,cat,cat,90,0270_rot_s04_90_cat_20_n02123045_6696.png
subject-04,1,271,0.971760988235474,dog,dog,90,0271_rot_s04_90_dog_20_n02090622_7692.png
subject-04,1,272,0.667691946029663,bear,bear,0,0272_rot_s04_0_bear_20_n02132136_5175.png
subject-04,1,273,1.45141696929932,truck,truck,180,0273_rot_s04_180_truck_20_n04467665_22637.png
subject-04,1,274,0.631435871124268,clock,clock,270,0274_rot_s04_270_clock_20_n04548280_4198.png
subject-04,1,275,0.671190977096558,bear,bear,90,0275_rot_s04_90_bear_20_n02132136_2691.png
subject-04,1,276,0.878915071487427,bear,oven,180,0276_rot_s04_180_oven_20_n04111531_114.png
subject-04,1,277,1.17469310760498,truck,truck,90,0277_rot_s04_90_truck_20_n03417042_11166.png
subject-04,1,278,0.6007080078125,oven,oven,270,0278_rot_s04_270_oven_20_n04111531_5429.png
subject-04,1,279,0.732333898544312,chair,chair,0,0279_rot_s04_0_chair_20_n02791124_3180.png
subject-04,1,280,0.728269100189209,bear,bear,180,0280_rot_s04_180_bear_20_n02134418_5260.png
subject-04,1,281,1.15993881225586,knife,knife,90,0281_rot_s04_90_knife_20_n03041632_33255.png
subject-04,1,282,0.665756940841675,clock,clock,180,0282_rot_s04_180_clock_20_n02708093_170.png
subject-04,1,283,1.37582492828369,elephant,elephant,0,0283_rot_s04_0_elephant_20_n02504458_1404.png
subject-04,1,284,0.857501983642578,keyboard,keyboard,270,0284_rot_s04_270_keyboard_20_n03085013_22417.png
subject-04,1,285,0.745691061019897,keyboard,keyboard,0,0285_rot_s04_0_keyboard_20_n03085013_22744.png
subject-04,1,286,0.751097202301025,bird,bird,180,0286_rot_s04_180_bird_20_n01514859_18430.png
subject-04,1,287,0.804917097091675,knife,knife,180,0287_rot_s04_180_knife_20_n03041632_31632.png
subject-04,1,288,1.31465888023376,bicycle,bicycle,270,0288_rot_s04_270_bicycle_20_n03792782_18308.png
subject-04,1,289,0.682543992996216,cat,cat,270,0289_rot_s04_270_cat_20_n02124075_11727.png
subject-04,1,290,0.760359048843384,knife,knife,180,0290_rot_s04_180_knife_20_n03041632_15174.png
subject-04,1,291,0.432311058044434,bicycle,bicycle,0,0291_rot_s04_0_bicycle_20_n02835271_12984.png
subject-04,1,292,0.901983022689819,oven,oven,90,0292_rot_s04_90_oven_20_n04111531_5328.png
subject-04,1,293,0.831738948822021,chair,chair,180,0293_rot_s04_180_chair_20_n04099969_4162.png
subject-04,1,294,0.663492918014526,bird,bird,0,0294_rot_s04_0_bird_20_n01817953_2043.png
subject-04,1,295,0.945317029953003,airplane,airplane,270,0295_rot_s04_270_airplane_20_n02690373_9346.png
subject-04,1,296,0.71337103843689,bird,bird,0,0296_rot_s04_0_bird_20_n01797886_2045.png
subject-04,1,297,0.803078174591064,truck,truck,90,0297_rot_s04_90_truck_20_n03796401_4571.png
subject-04,1,298,0.873130083084106,elephant,elephant,0,0298_rot_s04_0_elephant_20_n02504458_4482.png
subject-04,1,299,NaN,na,car,90,0299_rot_s04_90_car_20_n03100240_5044.png
subject-04,1,300,0.852447986602783,truck,truck,180,0300_rot_s04_180_truck_20_n03796401_6315.png
subject-04,1,301,0.944180011749268,dog,dog,90,0301_rot_s04_90_dog_20_n02093428_17633.png
subject-04,1,302,0.594035148620605,bottle,bottle,0,0302_rot_s04_0_bottle_20_n04591713_1717.png
subject-04,1,303,0.750022888183594,airplane,airplane,270,0303_rot_s04_270_airplane_20_n02690373_1946.png
subject-04,1,304,0.699630975723267,oven,chair,270,0304_rot_s04_270_chair_20_n02791124_10287.png
subject-04,1,305,0.723644971847534,knife,knife,90,0305_rot_s04_90_knife_20_n03041632_19571.png
subject-04,1,306,0.803725004196167,elephant,elephant,180,0306_rot_s04_180_elephant_20_n02504458_1504.png
subject-04,1,307,1.02521300315857,car,car,270,0307_rot_s04_270_car_20_n04285008_17151.png
subject-04,1,308,0.882930994033813,airplane,airplane,0,0308_rot_s04_0_airplane_20_n02690373_389.png
subject-04,1,309,0.963029861450195,bottle,bottle,270,0309_rot_s04_270_bottle_20_n04557648_581.png
subject-04,1,310,0.916929006576538,boat,bear,270,0310_rot_s04_270_bear_20_n02134418_5067.png
subject-04,1,311,1.096431016922,chair,chair,90,0311_rot_s04_90_chair_20_n03376595_8064.png
subject-04,1,312,0.576218128204346,car,car,0,0312_rot_s04_0_car_20_n02814533_27327.png
subject-04,1,313,0.796086072921753,chair,chair,0,0313_rot_s04_0_chair_20_n02791124_2898.png
subject-04,1,314,0.885954856872559,dog,dog,270,0314_rot_s04_270_dog_20_n02109047_66167.png
subject-04,1,315,0.98169207572937,truck,truck,270,0315_rot_s04_270_truck_20_n03417042_10744.png
subject-04,1,316,0.477842092514038,cat,cat,0,0316_rot_s04_0_cat_20_n02123394_937.png
subject-04,1,317,0.667188167572021,keyboard,keyboard,270,0317_rot_s04_270_keyboard_20_n03085013_1070.png
subject-04,1,318,0.659071922302246,keyboard,keyboard,270,0318_rot_s04_270_keyboard_20_n03085013_23109.png
subject-04,1,319,0.694961071014404,oven,oven,180,0319_rot_s04_180_oven_20_n04111531_704.png
subject-04,1,320,1.21880197525024,bird,bird,90,0320_rot_s04_90_bird_20_n02009912_12219.png
subject-04,1,321,0.784344911575317,bear,bear,90,0321_rot_s04_90_bear_20_n02133161_15177.png
subject-04,1,322,0.647911787033081,boat,boat,90,0322_rot_s04_90_boat_20_n04273569_12725.png
subject-04,1,323,0.749661922454834,bicycle,bicycle,0,0323_rot_s04_0_bicycle_20_n02835271_6383.png
subject-04,1,324,0.599799156188965,truck,truck,90,0324_rot_s04_90_truck_20_n03417042_8634.png
subject-04,1,325,0.933419942855835,dog,dog,0,0325_rot_s04_0_dog_20_n02102318_501.png
subject-04,1,326,1.24315309524536,chair,knife,90,0326_rot_s04_90_knife_20_n03041632_51339.png
subject-04,1,327,0.831029891967773,bicycle,bicycle,0,0327_rot_s04_0_bicycle_20_n02835271_8137.png
subject-04,1,328,0.781008958816528,airplane,airplane,270,0328_rot_s04_270_airplane_20_n02690373_2629.png
subject-04,1,329,0.808677911758423,bicycle,bicycle,180,0329_rot_s04_180_bicycle_20_n03792782_70555.png
subject-04,1,330,0.866501808166504,bicycle,bicycle,0,0330_rot_s04_0_bicycle_20_n03792782_15757.png
subject-04,1,331,0.568264007568359,clock,clock,90,0331_rot_s04_90_clock_20_n04548280_5937.png
subject-04,1,332,0.788332223892212,knife,knife,180,0332_rot_s04_180_knife_20_n03041632_34505.png
subject-04,1,333,0.640109062194824,bottle,bottle,90,0333_rot_s04_90_bottle_20_n03937543_4830.png
subject-04,1,334,0.811852931976318,bird,bird,90,0334_rot_s04_90_bird_20_n02018795_414.png
subject-04,1,335,1.00366282463074,knife,knife,180,0335_rot_s04_180_knife_20_n03041632_19971.png
subject-04,1,336,0.937395095825195,elephant,bear,180,0336_rot_s04_180_bear_20_n02133161_5235.png
subject-04,1,337,0.73731803894043,dog,dog,90,0337_rot_s04_90_dog_20_n02111500_8796.png
subject-04,1,338,0.661010026931763,bear,bear,0,0338_rot_s04_0_bear_20_n02134084_2598.png
subject-04,1,339,1.09867286682129,dog,dog,90,0339_rot_s04_90_dog_20_n02111277_2994.png
subject-04,1,340,1.15079092979431,bear,elephant,270,0340_rot_s04_270_elephant_20_n02504013_7883.png
subject-04,1,341,0.870436191558838,bear,bear,0,0341_rot_s04_0_bear_20_n02134418_1017.png
subject-04,1,342,0.640361070632935,truck,truck,90,0342_rot_s04_90_truck_20_n03417042_28657.png
subject-04,1,343,0.686183929443359,clock,clock,180,0343_rot_s04_180_clock_20_n04548280_5286.png
subject-04,1,344,0.737818956375122,bicycle,oven,270,0344_rot_s04_270_oven_20_n04111531_6533.png
subject-04,1,345,1.05967807769775,bear,bird,180,0345_rot_s04_180_bird_20_n02017213_6478.png
subject-04,1,346,0.641757965087891,boat,airplane,180,0346_rot_s04_180_airplane_20_n02690373_9175.png
subject-04,1,347,1.06547403335571,dog,dog,270,0347_rot_s04_270_dog_20_n02087394_1428.png
subject-04,1,348,1.08115100860596,bottle,oven,270,0348_rot_s04_270_oven_20_n04111531_8421.png
subject-04,1,349,0.611047029495239,cat,cat,180,0349_rot_s04_180_cat_20_n02125311_41650.png
subject-04,1,350,0.502932071685791,clock,clock,180,0350_rot_s04_180_clock_20_n04548280_7115.png
subject-04,1,351,0.792423009872437,keyboard,keyboard,270,0351_rot_s04_270_keyboard_20_n04505470_2055.png
subject-04,1,352,0.984342098236084,bottle,car,90,0352_rot_s04_90_car_20_n02814533_92229.png
subject-04,1,353,0.682139873504639,bottle,bottle,180,0353_rot_s04_180_bottle_20_n03983396_10896.png
subject-04,1,354,0.88985800743103,bear,boat,90,0354_rot_s04_90_boat_20_n02951358_12532.png
subject-04,1,355,0.903745889663696,bicycle,bicycle,180,0355_rot_s04_180_bicycle_20_n02835271_5861.png
subject-04,1,356,0.575883150100708,boat,boat,180,0356_rot_s04_180_boat_20_n04273569_7818.png
subject-04,1,357,0.817473888397217,cat,cat,270,0357_rot_s04_270_cat_20_n02124075_10542.png
subject-04,1,358,0.829306125640869,boat,boat,0,0358_rot_s04_0_boat_20_n03344393_9127.png
subject-04,1,359,0.755399942398071,bottle,bottle,180,0359_rot_s04_180_bottle_20_n04579145_1646.png
subject-04,1,360,0.688748121261597,bottle,bottle,90,0360_rot_s04_90_bottle_20_n04560804_2693.png
subject-04,1,361,0.94066309928894,clock,knife,180,0361_rot_s04_180_knife_20_n03041632_101810.png
subject-04,1,362,0.714670181274414,knife,knife,270,0362_rot_s04_270_knife_20_n03041632_50034.png
subject-04,1,363,0.67232608795166,oven,dog,180,0363_rot_s04_180_dog_20_n02100236_7671.png
subject-04,1,364,0.956060171127319,airplane,airplane,270,0364_rot_s04_270_airplane_20_n02690373_8214.png
subject-04,1,365,1.21817302703857,bird,bird,0,0365_rot_s04_0_bird_20_n01855672_55568.png
subject-04,1,366,0.951673984527588,truck,truck,90,0366_rot_s04_90_truck_20_n04467665_9812.png
subject-04,1,367,0.997482061386108,dog,dog,180,0367_rot_s04_180_dog_20_n02113978_2286.png
subject-04,1,368,0.945440053939819,bicycle,bicycle,90,0368_rot_s04_90_bicycle_20_n03792782_3202.png
subject-04,1,369,0.995443820953369,bear,bear,270,0369_rot_s04_270_bear_20_n02132136_9358.png
subject-04,1,370,0.620901107788086,boat,boat,0,0370_rot_s04_0_boat_20_n02951358_18762.png
subject-04,1,371,0.794807910919189,knife,chair,180,0371_rot_s04_180_chair_20_n02791124_880.png
subject-04,1,372,1.03657293319702,dog,dog,0,0372_rot_s04_0_dog_20_n02087394_9061.png
subject-04,1,373,1.07030701637268,elephant,elephant,0,0373_rot_s04_0_elephant_20_n02504013_6999.png
subject-04,1,374,0.680245876312256,car,car,0,0374_rot_s04_0_car_20_n03100240_18679.png
subject-04,1,375,1.2563488483429,car,car,90,0375_rot_s04_90_car_20_n04285008_5641.png
subject-04,1,376,0.64394998550415,bicycle,bicycle,90,0376_rot_s04_90_bicycle_20_n03792782_16117.png
subject-04,1,377,0.873899936676025,car,car,180,0377_rot_s04_180_car_20_n04285008_4834.png
subject-04,1,378,0.957870960235596,elephant,elephant,0,0378_rot_s04_0_elephant_20_n02504013_20486.png
subject-04,1,379,0.777415990829468,bicycle,bicycle,180,0379_rot_s04_180_bicycle_20_n02835271_10933.png
subject-04,1,380,0.738960027694702,bird,bird,270,0380_rot_s04_270_bird_20_n02028035_8327.png
subject-04,1,381,0.634891033172607,chair,chair,90,0381_rot_s04_90_chair_20_n03376595_4820.png
subject-04,1,382,0.722756862640381,bottle,bottle,0,0382_rot_s04_0_bottle_20_n04591713_2903.png
subject-04,1,383,0.834699869155884,bicycle,bicycle,90,0383_rot_s04_90_bicycle_20_n03792782_12010.png
subject-04,1,384,0.772420883178711,car,car,270,0384_rot_s04_270_car_20_n02814533_46458.png
subject-04,1,385,1.34823083877563,elephant,elephant,180,0385_rot_s04_180_elephant_20_n02504013_1078.png
subject-04,1,386,0.857927083969116,dog,dog,0,0386_rot_s04_0_dog_20_n02089973_9526.png
subject-04,1,387,0.885664939880371,keyboard,keyboard,180,0387_rot_s04_180_keyboard_20_n04505470_4384.png
subject-04,1,388,0.685600996017456,bicycle,bicycle,90,0388_rot_s04_90_bicycle_20_n02835271_27014.png
subject-04,1,389,0.701382875442505,airplane,airplane,90,0389_rot_s04_90_airplane_20_n02690373_4845.png
subject-04,1,390,0.819301843643188,bird,bird,270,0390_rot_s04_270_bird_20_n02018207_7930.png
subject-04,1,391,0.680938005447388,airplane,airplane,0,0391_rot_s04_0_airplane_20_n02690373_1972.png
subject-04,1,392,0.860728025436401,knife,clock,180,0392_rot_s04_180_clock_20_n04548280_13750.png
subject-04,1,393,0.778950929641724,elephant,elephant,90,0393_rot_s04_90_elephant_20_n02504013_4379.png
subject-04,1,394,0.700500011444092,airplane,airplane,90,0394_rot_s04_90_airplane_20_n02690373_2856.png
subject-04,1,395,0.704304933547974,bird,bird,90,0395_rot_s04_90_bird_20_n02025239_17065.png
subject-04,1,396,0.540114879608154,oven,oven,0,0396_rot_s04_0_oven_20_n04111531_73.png
subject-04,1,397,0.680078029632568,bear,bear,270,0397_rot_s04_270_bear_20_n02134084_17215.png
subject-04,1,398,0.579917192459106,clock,clock,90,0398_rot_s04_90_clock_20_n02708093_2740.png
subject-04,1,399,0.7135910987854,dog,dog,0,0399_rot_s04_0_dog_20_n02109525_63913.png
subject-04,1,400,0.677312850952148,oven,oven,270,0400_rot_s04_270_oven_20_n04111531_4332.png
subject-04,1,401,0.722935199737549,knife,knife,0,0401_rot_s04_0_knife_20_n03041632_3781.png
subject-04,1,402,0.518721103668213,chair,chair,270,0402_rot_s04_270_chair_20_n04099969_16.png
subject-04,1,403,0.688790082931519,bear,bear,90,0403_rot_s04_90_bear_20_n02134418_5783.png
subject-04,1,404,0.728537082672119,chair,truck,0,0404_rot_s04_0_truck_20_n03417042_889.png
subject-04,1,405,1.36026191711426,car,car,270,0405_rot_s04_270_car_20_n03100240_5946.png
subject-04,1,406,0.66016697883606,airplane,airplane,90,0406_rot_s04_90_airplane_20_n02690373_5748.png
subject-04,1,407,0.459997892379761,bicycle,bicycle,0,0407_rot_s04_0_bicycle_20_n02835271_23830.png
subject-04,1,408,0.71785306930542,elephant,elephant,180,0408_rot_s04_180_elephant_20_n02504458_2272.png
subject-04,1,409,0.447651863098145,cat,cat,0,0409_rot_s04_0_cat_20_n02125311_14054.png
subject-04,1,410,0.671480894088745,car,car,90,0410_rot_s04_90_car_20_n04285008_8677.png
subject-04,1,411,0.555003881454468,bear,bear,270,0411_rot_s04_270_bear_20_n02134084_3903.png
subject-04,1,412,0.978938817977905,bear,bear,180,0412_rot_s04_180_bear_20_n02134084_41588.png
subject-04,1,413,0.644804954528809,bird,bird,270,0413_rot_s04_270_bird_20_n01855032_5358.png
subject-04,1,414,0.728707075119019,clock,clock,270,0414_rot_s04_270_clock_20_n04548280_7978.png
subject-04,1,415,1.01841688156128,car,truck,270,0415_rot_s04_270_truck_20_n03417042_7755.png
subject-04,1,416,1.33813095092773,car,elephant,180,0416_rot_s04_180_elephant_20_n02504013_7926.png
subject-04,1,417,0.9460129737854,bird,bird,180,0417_rot_s04_180_bird_20_n02009912_18708.png
subject-04,1,418,0.899877786636353,elephant,elephant,90,0418_rot_s04_90_elephant_20_n02504013_5636.png
subject-04,1,419,0.763477087020874,bottle,bottle,270,0419_rot_s04_270_bottle_20_n02823428_12190.png
subject-04,1,420,1.40337109565735,bottle,bottle,0,0420_rot_s04_0_bottle_20_n03983396_9823.png
subject-04,1,421,0.607323169708252,keyboard,keyboard,0,0421_rot_s04_0_keyboard_20_n04505470_4651.png
subject-04,1,422,0.568933963775635,clock,clock,90,0422_rot_s04_90_clock_20_n04548280_7354.png
subject-04,1,423,0.968876123428345,truck,truck,180,0423_rot_s04_180_truck_20_n03796401_2258.png
subject-04,1,424,0.528999090194702,bicycle,bicycle,180,0424_rot_s04_180_bicycle_20_n02835271_2131.png
subject-04,1,425,0.58237886428833,airplane,airplane,270,0425_rot_s04_270_airplane_20_n02690373_1235.png
subject-04,1,426,1.34249091148376,bear,bear,0,0426_rot_s04_0_bear_20_n02133161_2040.png
subject-04,1,427,1.41241598129272,truck,truck,270,0427_rot_s04_270_truck_20_n03417042_9967.png
subject-04,1,428,0.71996808052063,elephant,elephant,180,0428_rot_s04_180_elephant_20_n02504013_10257.png
subject-04,1,429,0.917825937271118,chair,bear,180,0429_rot_s04_180_bear_20_n02134418_2122.png
subject-04,1,430,0.613688945770264,oven,oven,90,0430_rot_s04_90_oven_20_n04111531_4327.png
subject-04,1,431,0.919219017028809,bird,bird,180,0431_rot_s04_180_bird_20_n02051845_8617.png
subject-04,1,432,0.701192140579224,bird,bird,0,0432_rot_s04_0_bird_20_n01797886_6169.png
subject-04,1,433,0.533003091812134,clock,clock,270,0433_rot_s04_270_clock_20_n03196217_368.png
subject-04,1,434,0.717212915420532,chair,chair,0,0434_rot_s04_0_chair_20_n04099969_6431.png
subject-04,1,435,1.17489695549011,elephant,elephant,180,0435_rot_s04_180_elephant_20_n02504013_828.png
subject-04,1,436,1.10028386116028,airplane,airplane,180,0436_rot_s04_180_airplane_20_n02690373_9293.png
subject-04,1,437,0.724266052246094,cat,cat,180,0437_rot_s04_180_cat_20_n02123597_6186.png
subject-04,1,438,0.608018159866333,keyboard,keyboard,90,0438_rot_s04_90_keyboard_20_n03085013_12678.png
subject-04,1,439,0.802085876464844,cat,cat,0,0439_rot_s04_0_cat_20_n02124075_13577.png
subject-04,1,440,0.799559831619263,elephant,elephant,90,0440_rot_s04_90_elephant_20_n02504013_318.png
subject-04,1,441,0.739845991134644,cat,cat,270,0441_rot_s04_270_cat_20_n02124075_2986.png
subject-04,1,442,1.35361099243164,bird,boat,270,0442_rot_s04_270_boat_20_n02951358_11442.png
subject-04,1,443,0.529031991958618,oven,oven,0,0443_rot_s04_0_oven_20_n04111531_4845.png
subject-04,1,444,0.773215055465698,knife,knife,0,0444_rot_s04_0_knife_20_n03041632_43289.png
subject-04,1,445,0.552615880966187,cat,cat,270,0445_rot_s04_270_cat_20_n02124075_14662.png
subject-04,1,446,0.778501033782959,dog,dog,270,0446_rot_s04_270_dog_20_n02102177_255.png
subject-04,1,447,0.878365993499756,dog,dog,90,0447_rot_s04_90_dog_20_n02087394_7707.png
subject-04,1,448,0.86223316192627,chair,chair,180,0448_rot_s04_180_chair_20_n03376595_15468.png
subject-04,1,449,1.01828408241272,bottle,bottle,180,0449_rot_s04_180_bottle_20_n02823428_3298.png
subject-04,1,450,0.519850969314575,bicycle,bicycle,270,0450_rot_s04_270_bicycle_20_n03792782_586.png
subject-04,1,451,0.723896980285645,bird,bird,90,0451_rot_s04_90_bird_20_n01855032_1920.png
subject-04,1,452,0.523413181304932,clock,clock,180,0452_rot_s04_180_clock_20_n04548280_3701.png
subject-04,1,453,0.603271007537842,bicycle,bicycle,0,0453_rot_s04_0_bicycle_20_n03792782_7105.png
subject-04,1,454,0.845124006271362,bottle,bottle,270,0454_rot_s04_270_bottle_20_n03983396_5497.png
subject-04,1,455,0.820939064025879,elephant,elephant,90,0455_rot_s04_90_elephant_20_n02504013_344.png
subject-04,1,456,0.651068925857544,clock,clock,0,0456_rot_s04_0_clock_20_n02708093_2012.png
subject-04,1,457,0.768598794937134,bottle,bottle,270,0457_rot_s04_270_bottle_20_n04591713_6111.png
subject-04,1,458,0.868355989456177,elephant,elephant,180,0458_rot_s04_180_elephant_20_n02504458_1623.png
subject-04,1,459,0.7862229347229,bottle,bottle,90,0459_rot_s04_90_bottle_20_n03983396_618.png
subject-04,1,460,0.771997928619385,boat,bird,90,0460_rot_s04_90_bird_20_n02006656_10849.png
subject-04,1,461,0.919924020767212,truck,truck,0,0461_rot_s04_0_truck_20_n03417042_22196.png
subject-04,1,462,0.73559308052063,bear,bear,90,0462_rot_s04_90_bear_20_n02132136_19248.png
subject-04,1,463,1.25534009933472,cat,cat,270,0463_rot_s04_270_cat_20_n02125311_21290.png
subject-04,1,464,0.853478908538818,bear,bear,0,0464_rot_s04_0_bear_20_n02134418_5527.png
subject-04,1,465,1.25706195831299,keyboard,knife,270,0465_rot_s04_270_knife_20_n03041632_31367.png
subject-04,1,466,0.63287615776062,dog,dog,270,0466_rot_s04_270_dog_20_n02104365_1756.png
subject-04,1,467,0.992697954177856,airplane,airplane,270,0467_rot_s04_270_airplane_20_n02690373_8876.png
subject-04,1,468,1.15236401557922,truck,truck,90,0468_rot_s04_90_truck_20_n03417042_1344.png
subject-04,1,469,0.498379230499268,clock,clock,0,0469_rot_s04_0_clock_20_n04548280_8278.png
subject-04,1,470,1.04607677459717,chair,chair,90,0470_rot_s04_90_chair_20_n04429376_1754.png
subject-04,1,471,0.69575309753418,keyboard,keyboard,90,0471_rot_s04_90_keyboard_20_n04505470_4943.png
subject-04,1,472,0.749660015106201,elephant,elephant,270,0472_rot_s04_270_elephant_20_n02504013_4062.png
subject-04,1,473,0.701612949371338,cat,cat,90,0473_rot_s04_90_cat_20_n02124075_14998.png
subject-04,1,474,0.889184951782227,keyboard,keyboard,180,0474_rot_s04_180_keyboard_20_n04505470_10746.png
subject-04,1,475,1.03132510185242,clock,oven,0,0475_rot_s04_0_oven_20_n04111531_1230.png
subject-04,1,476,0.592993021011353,chair,chair,0,0476_rot_s04_0_chair_20_n04099969_5010.png
subject-04,1,477,0.684738874435425,clock,clock,180,0477_rot_s04_180_clock_20_n02708093_8255.png
subject-04,1,478,0.74495005607605,cat,cat,270,0478_rot_s04_270_cat_20_n02123045_6677.png
subject-04,1,479,0.538250923156738,keyboard,keyboard,0,0479_rot_s04_0_keyboard_20_n04505470_1903.png
subject-04,1,480,0.606261968612671,bicycle,bicycle,90,0480_rot_s04_90_bicycle_20_n02835271_1621.png
subject-04,1,481,1.09929394721985,keyboard,keyboard,0,0481_rot_s04_0_keyboard_20_n03085013_2073.png
subject-04,1,482,0.893228054046631,bear,bear,270,0482_rot_s04_270_bear_20_n02134084_18952.png
subject-04,1,483,0.619079113006592,clock,clock,0,0483_rot_s04_0_clock_20_n04548280_1305.png
subject-04,1,484,1.08662986755371,bicycle,truck,270,0484_rot_s04_270_truck_20_n04467665_46263.png
subject-04,1,485,0.734405040740967,car,car,270,0485_rot_s04_270_car_20_n04285008_12504.png
subject-04,1,486,0.632378101348877,chair,chair,0,0486_rot_s04_0_chair_20_n03376595_2368.png
subject-04,1,487,0.568177938461304,clock,clock,270,0487_rot_s04_270_clock_20_n03196217_2291.png
subject-04,1,488,0.990025043487549,bottle,bottle,0,0488_rot_s04_0_bottle_20_n03983396_17262.png
subject-04,1,489,0.552165985107422,bicycle,bicycle,90,0489_rot_s04_90_bicycle_20_n03792782_26383.png
subject-04,1,490,0.619750022888184,boat,boat,90,0490_rot_s04_90_boat_20_n02951358_4343.png
subject-04,1,491,1.04148101806641,clock,bottle,180,0491_rot_s04_180_bottle_20_n04560804_15267.png
subject-04,1,492,0.833216190338135,dog,dog,0,0492_rot_s04_0_dog_20_n02092339_659.png
subject-04,1,493,0.649328947067261,cat,cat,90,0493_rot_s04_90_cat_20_n02123394_2948.png
subject-04,1,494,0.844967126846313,keyboard,keyboard,270,0494_rot_s04_270_keyboard_20_n04505470_1416.png
subject-04,1,495,0.861025810241699,dog,dog,0,0495_rot_s04_0_dog_20_n02098105_385.png
subject-04,1,496,1.04262495040894,chair,chair,270,0496_rot_s04_270_chair_20_n02791124_2698.png
subject-04,1,497,0.546212911605835,clock,clock,270,0497_rot_s04_270_clock_20_n04548280_8552.png
subject-04,1,498,0.598306894302368,bicycle,bicycle,270,0498_rot_s04_270_bicycle_20_n03792782_3388.png
subject-04,1,499,0.913814067840576,car,car,0,0499_rot_s04_0_car_20_n03100240_2195.png
subject-04,1,500,0.907691955566406,bear,bear,90,0500_rot_s04_90_bear_20_n02134084_7817.png
subject-04,1,501,0.809713840484619,car,car,270,0501_rot_s04_270_car_20_n03100240_8898.png
subject-04,1,502,0.849467039108276,knife,knife,0,0502_rot_s04_0_knife_20_n03041632_26314.png
subject-04,1,503,0.589221954345703,cat,cat,90,0503_rot_s04_90_cat_20_n02123394_234.png
subject-04,1,504,0.670915126800537,bottle,bottle,0,0504_rot_s04_0_bottle_20_n03983396_1881.png
subject-04,1,505,0.950631141662598,bear,elephant,270,0505_rot_s04_270_elephant_20_n02504458_4001.png
subject-04,1,506,0.592923879623413,cat,cat,270,0506_rot_s04_270_cat_20_n02124075_8889.png
subject-04,1,507,0.752285957336426,bicycle,bicycle,270,0507_rot_s04_270_bicycle_20_n02835271_14123.png
subject-04,1,508,1.15652108192444,bear,dog,180,0508_rot_s04_180_dog_20_n02096051_892.png
subject-04,1,509,0.478095054626465,cat,cat,270,0509_rot_s04_270_cat_20_n02123394_686.png
subject-04,1,510,0.885757207870483,bicycle,bicycle,0,0510_rot_s04_0_bicycle_20_n03792782_3456.png
subject-04,1,511,0.885511875152588,car,car,90,0511_rot_s04_90_car_20_n04285008_8102.png
subject-04,1,512,1.36732602119446,cat,dog,180,0512_rot_s04_180_dog_20_n02093754_918.png
subject-04,1,513,0.901293992996216,truck,truck,0,0513_rot_s04_0_truck_20_n03796401_8463.png
subject-04,1,514,0.639144897460938,knife,knife,0,0514_rot_s04_0_knife_20_n03041632_4037.png
subject-04,1,515,0.904859066009521,airplane,airplane,0,0515_rot_s04_0_airplane_20_n02690373_4029.png
subject-04,1,516,0.853070020675659,cat,cat,0,0516_rot_s04_0_cat_20_n02123394_3695.png
subject-04,1,517,0.954640865325928,car,car,270,0517_rot_s04_270_car_20_n02814533_89061.png
subject-04,1,518,0.928197145462036,bottle,bottle,0,0518_rot_s04_0_bottle_20_n02823428_4282.png
subject-04,1,519,1.06408786773682,chair,cat,0,0519_rot_s04_0_cat_20_n02123159_3420.png
subject-04,1,520,0.560061931610107,clock,clock,180,0520_rot_s04_180_clock_20_n02708093_1038.png
subject-04,1,521,0.585750102996826,cat,cat,0,0521_rot_s04_0_cat_20_n02124075_9358.png
subject-04,1,522,0.94790506362915,bottle,bottle,90,0522_rot_s04_90_bottle_20_n04560804_13583.png
subject-04,1,523,1.36321997642517,chair,truck,90,0523_rot_s04_90_truck_20_n03796401_13226.png
subject-04,1,524,0.711059093475342,airplane,airplane,270,0524_rot_s04_270_airplane_20_n02690373_6459.png
subject-04,1,525,0.788940906524658,keyboard,keyboard,90,0525_rot_s04_90_keyboard_20_n04505470_4520.png
subject-04,1,526,1.00470590591431,dog,dog,90,0526_rot_s04_90_dog_20_n02097047_3817.png
subject-04,1,527,0.838496923446655,bird,bird,0,0527_rot_s04_0_bird_20_n02017213_15918.png
subject-04,1,528,0.710722208023071,bottle,bottle,180,0528_rot_s04_180_bottle_20_n04557648_5790.png
subject-04,1,529,0.982192039489746,car,car,180,0529_rot_s04_180_car_20_n02814533_33360.png
subject-04,1,530,0.664127111434937,clock,clock,180,0530_rot_s04_180_clock_20_n02708093_906.png
subject-04,1,531,0.619836091995239,boat,boat,270,0531_rot_s04_270_boat_20_n03662601_10090.png
subject-04,1,532,0.757627010345459,elephant,elephant,270,0532_rot_s04_270_elephant_20_n02504013_7724.png
subject-04,1,533,0.873377084732056,keyboard,keyboard,180,0533_rot_s04_180_keyboard_20_n04505470_3553.png
subject-04,1,534,0.721281051635742,clock,clock,90,0534_rot_s04_90_clock_20_n04548280_1947.png
subject-04,1,535,0.557163953781128,oven,oven,90,0535_rot_s04_90_oven_20_n04111531_9915.png
subject-04,1,536,1.42077112197876,boat,bear,180,0536_rot_s04_180_bear_20_n02132136_8650.png
subject-04,1,537,0.990626096725464,bird,bird,0,0537_rot_s04_0_bird_20_n02027492_7653.png
subject-04,1,538,0.692615032196045,boat,boat,180,0538_rot_s04_180_boat_20_n03662601_1197.png
subject-04,1,539,1.0861439704895,bear,elephant,0,0539_rot_s04_0_elephant_20_n02504013_6645.png
subject-04,1,540,0.752099990844727,keyboard,keyboard,270,0540_rot_s04_270_keyboard_20_n03085013_24385.png
subject-04,1,541,0.686097145080566,keyboard,keyboard,180,0541_rot_s04_180_keyboard_20_n03085013_3920.png
subject-04,1,542,0.965826988220215,dog,dog,0,0542_rot_s04_0_dog_20_n02106550_1763.png
subject-04,1,543,0.793564081192017,truck,truck,180,0543_rot_s04_180_truck_20_n03796401_26894.png
subject-04,1,544,0.719500064849854,knife,knife,90,0544_rot_s04_90_knife_20_n03041632_7448.png
subject-04,1,545,0.799229860305786,bicycle,bicycle,180,0545_rot_s04_180_bicycle_20_n03792782_15282.png
subject-04,1,546,1.05105590820312,truck,truck,0,0546_rot_s04_0_truck_20_n04467665_8189.png
subject-04,1,547,0.914757966995239,cat,elephant,0,0547_rot_s04_0_elephant_20_n02504458_5181.png
subject-04,1,548,0.702559947967529,truck,oven,180,0548_rot_s04_180_oven_20_n04111531_10375.png
subject-04,1,549,0.540544986724854,airplane,airplane,0,0549_rot_s04_0_airplane_20_n02690373_6753.png
subject-04,1,550,0.78847599029541,knife,knife,180,0550_rot_s04_180_knife_20_n03041632_30821.png
subject-04,1,551,0.978137969970703,bear,bear,270,0551_rot_s04_270_bear_20_n02132136_3207.png
subject-04,1,552,1.17599892616272,truck,truck,180,0552_rot_s04_180_truck_20_n03417042_21663.png
subject-04,1,553,1.0796799659729,dog,oven,90,0553_rot_s04_90_oven_20_n04111531_11157.png
subject-04,1,554,1.40381193161011,car,car,90,0554_rot_s04_90_car_20_n02814533_14121.png
subject-04,1,555,0.761373996734619,knife,knife,180,0555_rot_s04_180_knife_20_n03041632_2630.png
subject-04,1,556,0.71901798248291,truck,truck,180,0556_rot_s04_180_truck_20_n03796401_4149.png
subject-04,1,557,0.732887983322144,bottle,bottle,0,0557_rot_s04_0_bottle_20_n03937543_1929.png
subject-04,1,558,0.540781021118164,oven,oven,90,0558_rot_s04_90_oven_20_n04111531_12980.png
subject-04,1,559,0.826796054840088,truck,truck,180,0559_rot_s04_180_truck_20_n03796401_22323.png
subject-04,1,560,0.724358081817627,bear,dog,90,0560_rot_s04_90_dog_20_n02108551_7945.png
subject-04,1,561,0.891957998275757,bear,elephant,180,0561_rot_s04_180_elephant_20_n02504458_1041.png
subject-04,1,562,1.24196696281433,car,car,180,0562_rot_s04_180_car_20_n03100240_1703.png
subject-04,1,563,0.747709035873413,bicycle,knife,180,0563_rot_s04_180_knife_20_n03041632_39883.png
subject-04,1,564,0.779799938201904,cat,dog,90,0564_rot_s04_90_dog_20_n02100877_7302.png
subject-04,1,565,1.23330402374268,elephant,elephant,90,0565_rot_s04_90_elephant_20_n02504458_6470.png
subject-04,1,566,0.689071893692017,cat,cat,0,0566_rot_s04_0_cat_20_n02124075_7835.png
subject-04,1,567,1.12504506111145,airplane,airplane,90,0567_rot_s04_90_airplane_20_n02690373_4695.png
subject-04,1,568,0.788789987564087,boat,boat,270,0568_rot_s04_270_boat_20_n03662601_12969.png
subject-04,1,569,1.50014495849609,chair,bottle,270,0569_rot_s04_270_bottle_20_n04560804_14111.png
subject-04,1,570,0.742221117019653,car,car,270,0570_rot_s04_270_car_20_n02814533_88566.png
subject-04,1,571,1.03619980812073,car,car,0,0571_rot_s04_0_car_20_n02814533_52605.png
subject-04,1,572,0.960039854049683,airplane,truck,90,0572_rot_s04_90_truck_20_n03417042_28886.png
subject-04,1,573,0.964172840118408,knife,knife,180,0573_rot_s04_180_knife_20_n03041632_20413.png
subject-04,1,574,0.627859115600586,chair,chair,180,0574_rot_s04_180_chair_20_n03376595_6799.png
subject-04,1,575,1.38955402374268,bottle,clock,0,0575_rot_s04_0_clock_20_n04548280_6126.png
subject-04,1,576,1.24725794792175,bicycle,bottle,270,0576_rot_s04_270_bottle_20_n04560804_11386.png
subject-04,1,577,0.559135913848877,clock,clock,0,0577_rot_s04_0_clock_20_n04548280_3038.png
subject-04,1,578,0.689097166061401,oven,oven,0,0578_rot_s04_0_oven_20_n04111531_8077.png
subject-04,1,579,1.33866596221924,car,truck,90,0579_rot_s04_90_truck_20_n03796401_15105.png
subject-04,1,580,0.50444483757019,cat,cat,0,0580_rot_s04_0_cat_20_n02124075_13594.png
subject-04,1,581,0.694431066513062,chair,chair,270,0581_rot_s04_270_chair_20_n04099969_18678.png
subject-04,1,582,0.866189002990723,bottle,bird,90,0582_rot_s04_90_bird_20_n01860187_20081.png
subject-04,1,583,0.881910085678101,bicycle,bicycle,180,0583_rot_s04_180_bicycle_20_n02835271_14862.png
subject-04,1,584,1.00368404388428,chair,chair,90,0584_rot_s04_90_chair_20_n04429376_13191.png
subject-04,1,585,1.18747496604919,bear,elephant,270,0585_rot_s04_270_elephant_20_n02504458_8296.png
subject-04,1,586,0.797277927398682,bicycle,bicycle,0,0586_rot_s04_0_bicycle_20_n02835271_12743.png
subject-04,1,587,0.995316028594971,knife,oven,90,0587_rot_s04_90_oven_20_n04111531_1818.png
subject-04,1,588,1.21286416053772,bottle,bottle,270,0588_rot_s04_270_bottle_20_n03983396_22816.png
subject-04,1,589,0.720941066741943,cat,bear,270,0589_rot_s04_270_bear_20_n02132136_18303.png
subject-04,1,590,1.13664889335632,car,car,180,0590_rot_s04_180_car_20_n03100240_1750.png
subject-04,1,591,0.662351846694946,bicycle,bicycle,180,0591_rot_s04_180_bicycle_20_n03792782_14413.png
subject-04,1,592,0.484370946884155,clock,clock,0,0592_rot_s04_0_clock_20_n03196217_1255.png
subject-04,1,593,0.472187995910645,airplane,airplane,0,0593_rot_s04_0_airplane_20_n02690373_4310.png
subject-04,1,594,0.519958972930908,cat,cat,90,0594_rot_s04_90_cat_20_n02123159_5461.png
subject-04,1,595,0.781691074371338,chair,chair,180,0595_rot_s04_180_chair_20_n03376595_4937.png
subject-04,1,596,0.579623937606812,cat,cat,0,0596_rot_s04_0_cat_20_n02123045_5290.png
subject-04,1,597,0.639287948608398,cat,cat,90,0597_rot_s04_90_cat_20_n02125311_41284.png
subject-04,1,598,0.945019960403442,dog,dog,180,0598_rot_s04_180_dog_20_n02087394_9693.png
subject-04,1,599,1.50004696846008,chair,chair,0,0599_rot_s04_0_chair_20_n04429376_10994.png
subject-04,1,600,0.730544805526733,car,car,270,0600_rot_s04_270_car_20_n02814533_45480.png
subject-04,1,601,0.760555028915405,keyboard,keyboard,180,0601_rot_s04_180_keyboard_20_n03085013_24105.png
subject-04,1,602,1.50005388259888,bird,oven,180,0602_rot_s04_180_oven_20_n04111531_13644.png
subject-04,1,603,0.878258943557739,car,car,90,0603_rot_s04_90_car_20_n02814533_68219.png
subject-04,1,604,0.760349988937378,chair,chair,90,0604_rot_s04_90_chair_20_n04429376_14729.png
subject-04,1,605,0.581799983978271,clock,clock,90,0605_rot_s04_90_clock_20_n04548280_1254.png
subject-04,1,606,0.431764841079712,clock,clock,270,0606_rot_s04_270_clock_20_n04548280_7050.png
subject-04,1,607,0.675341844558716,airplane,airplane,180,0607_rot_s04_180_airplane_20_n02690373_852.png
subject-04,1,608,0.811285972595215,knife,knife,270,0608_rot_s04_270_knife_20_n03041632_424.png
subject-04,1,609,0.869027137756348,chair,chair,0,0609_rot_s04_0_chair_20_n04429376_1137.png
subject-04,1,610,0.854955911636353,car,car,0,0610_rot_s04_0_car_20_n02814533_12185.png
subject-04,1,611,0.676542043685913,boat,boat,90,0611_rot_s04_90_boat_20_n02951358_582.png
subject-04,1,612,0.894409894943237,elephant,elephant,270,0612_rot_s04_270_elephant_20_n02504458_1893.png
subject-04,1,613,0.96655797958374,car,car,270,0613_rot_s04_270_car_20_n02814533_8042.png
subject-04,1,614,1.28825783729553,knife,truck,180,0614_rot_s04_180_truck_20_n03417042_8867.png
subject-04,1,615,1.14224219322205,airplane,airplane,0,0615_rot_s04_0_airplane_20_n02690373_7142.png
subject-04,1,616,NaN,na,boat,90,0616_rot_s04_90_boat_20_n03344393_4773.png
subject-04,1,617,1.17375898361206,car,car,270,0617_rot_s04_270_car_20_n02814533_23563.png
subject-04,1,618,0.591516971588135,bear,bear,90,0618_rot_s04_90_bear_20_n02132136_18953.png
subject-04,1,619,0.711570978164673,airplane,airplane,90,0619_rot_s04_90_airplane_20_n02690373_3877.png
subject-04,1,620,0.87531590461731,bottle,bottle,0,0620_rot_s04_0_bottle_20_n04557648_3959.png
subject-04,1,621,0.814748048782349,bear,bear,90,0621_rot_s04_90_bear_20_n02132136_14056.png
subject-04,1,622,0.798697948455811,bird,bird,270,0622_rot_s04_270_bird_20_n02006656_6435.png
subject-04,1,623,0.596816062927246,bottle,bottle,90,0623_rot_s04_90_bottle_20_n04579145_6509.png
subject-04,1,624,0.486602067947388,bicycle,bicycle,180,0624_rot_s04_180_bicycle_20_n03792782_6030.png
subject-04,1,625,0.806036949157715,knife,knife,0,0625_rot_s04_0_knife_20_n03041632_6557.png
subject-04,1,626,0.775892972946167,boat,boat,270,0626_rot_s04_270_boat_20_n03662601_21408.png
subject-04,1,627,0.995788097381592,elephant,elephant,90,0627_rot_s04_90_elephant_20_n02504013_7316.png
subject-04,1,628,0.665453910827637,boat,boat,0,0628_rot_s04_0_boat_20_n03344393_6297.png
subject-04,1,629,0.745192766189575,keyboard,keyboard,0,0629_rot_s04_0_keyboard_20_n04505470_1744.png
subject-04,1,630,0.917145967483521,oven,oven,90,0630_rot_s04_90_oven_20_n04111531_4375.png
subject-04,1,631,0.894968032836914,bottle,bottle,90,0631_rot_s04_90_bottle_20_n03983396_5514.png
subject-04,1,632,0.668813943862915,bottle,bottle,270,0632_rot_s04_270_bottle_20_n04557648_4727.png
subject-04,1,633,0.628483057022095,keyboard,keyboard,0,0633_rot_s04_0_keyboard_20_n04505470_763.png
subject-04,1,634,0.922333955764771,bicycle,bicycle,0,0634_rot_s04_0_bicycle_20_n03792782_63201.png
subject-04,1,635,0.46036696434021,boat,boat,180,0635_rot_s04_180_boat_20_n02951358_3511.png
subject-04,1,636,1.01435399055481,boat,boat,270,0636_rot_s04_270_boat_20_n04612504_17610.png
subject-04,1,637,0.675804138183594,car,car,180,0637_rot_s04_180_car_20_n04285008_8530.png
subject-04,1,638,1.43552494049072,oven,airplane,180,0638_rot_s04_180_airplane_20_n02690373_5055.png
subject-04,1,639,1.32757496833801,dog,dog,270,0639_rot_s04_270_dog_20_n02092002_5845.png
subject-04,1,640,0.525184869766235,clock,clock,270,0640_rot_s04_270_clock_20_n02708093_3674.png
subject-04,1,641,0.682960987091064,knife,knife,0,0641_rot_s04_0_knife_20_n03041632_99912.png
subject-04,1,642,0.82295298576355,truck,truck,90,0642_rot_s04_90_truck_20_n03796401_16046.png
subject-04,1,643,1.11259698867798,car,car,0,0643_rot_s04_0_car_20_n02814533_6233.png
subject-04,1,644,0.672340154647827,oven,oven,270,0644_rot_s04_270_oven_20_n04111531_22386.png
subject-04,1,645,0.740494966506958,cat,cat,270,0645_rot_s04_270_cat_20_n02125311_33586.png
subject-04,1,646,0.715905904769897,bear,bear,0,0646_rot_s04_0_bear_20_n02132136_13975.png
subject-04,1,647,0.733690977096558,bicycle,bicycle,270,0647_rot_s04_270_bicycle_20_n03792782_10129.png
subject-04,1,648,0.903645038604736,knife,knife,180,0648_rot_s04_180_knife_20_n03041632_43634.png
subject-04,1,649,0.73570704460144,car,car,90,0649_rot_s04_90_car_20_n04285008_15503.png
subject-04,1,650,0.61335301399231,boat,boat,0,0650_rot_s04_0_boat_20_n04273569_30203.png
subject-04,1,651,0.829064130783081,bicycle,dog,180,0651_rot_s04_180_dog_20_n02090721_1449.png
subject-04,1,652,0.840767860412598,elephant,elephant,270,0652_rot_s04_270_elephant_20_n02504458_30.png
subject-04,1,653,0.584743022918701,airplane,airplane,0,0653_rot_s04_0_airplane_20_n02690373_10044.png
subject-04,1,654,0.910795927047729,bird,bird,90,0654_rot_s04_90_bird_20_n02011460_22646.png
subject-04,1,655,0.582857131958008,bottle,bottle,180,0655_rot_s04_180_bottle_20_n04591713_2359.png
subject-04,1,656,0.886092901229858,keyboard,oven,0,0656_rot_s04_0_oven_20_n04111531_7045.png
subject-04,1,657,0.610291957855225,car,car,0,0657_rot_s04_0_car_20_n04285008_8281.png
subject-04,1,658,0.587857961654663,boat,airplane,270,0658_rot_s04_270_airplane_20_n02690373_6104.png
subject-04,1,659,1.1815779209137,boat,boat,90,0659_rot_s04_90_boat_20_n04612504_3286.png
subject-04,1,660,0.911242008209229,oven,oven,90,0660_rot_s04_90_oven_20_n04111531_7728.png
subject-04,1,661,0.731127977371216,keyboard,keyboard,0,0661_rot_s04_0_keyboard_20_n03085013_3795.png
subject-04,1,662,0.708855867385864,airplane,airplane,270,0662_rot_s04_270_airplane_20_n02690373_9247.png
subject-04,1,663,0.656731128692627,truck,truck,0,0663_rot_s04_0_truck_20_n03796401_8176.png
subject-04,1,664,1.44463205337524,dog,dog,0,0664_rot_s04_0_dog_20_n02112018_7786.png
subject-04,1,665,0.612620830535889,bicycle,bicycle,180,0665_rot_s04_180_bicycle_20_n03792782_13680.png
subject-04,1,666,0.658172845840454,knife,knife,270,0666_rot_s04_270_knife_20_n03041632_46112.png
subject-04,1,667,0.503973007202148,bicycle,bicycle,270,0667_rot_s04_270_bicycle_20_n02835271_22206.png
subject-04,1,668,0.876187086105347,truck,truck,270,0668_rot_s04_270_truck_20_n04467665_69882.png
subject-04,1,669,0.979617118835449,dog,dog,0,0669_rot_s04_0_dog_20_n02104029_4770.png
subject-04,1,670,0.697444915771484,keyboard,keyboard,270,0670_rot_s04_270_keyboard_20_n03085013_7382.png
subject-04,1,671,0.563447952270508,bicycle,bicycle,0,0671_rot_s04_0_bicycle_20_n02835271_9310.png
subject-04,1,672,0.443182945251465,boat,boat,270,0672_rot_s04_270_boat_20_n03344393_3877.png
subject-04,1,673,0.843049049377441,chair,knife,90,0673_rot_s04_90_knife_20_n03041632_84012.png
subject-04,1,674,0.518730878829956,oven,oven,270,0674_rot_s04_270_oven_20_n04111531_18430.png
subject-04,1,675,0.830627918243408,oven,oven,0,0675_rot_s04_0_oven_20_n04111531_27.png
subject-04,1,676,0.894381046295166,bicycle,bird,180,0676_rot_s04_180_bird_20_n01530575_7990.png
subject-04,1,677,0.494059085845947,car,car,270,0677_rot_s04_270_car_20_n03100240_7741.png
subject-04,1,678,0.709951877593994,knife,knife,270,0678_rot_s04_270_knife_20_n03041632_36215.png
subject-04,1,679,0.59201192855835,chair,chair,0,0679_rot_s04_0_chair_20_n04099969_16669.png
subject-04,1,680,1.04754710197449,dog,dog,0,0680_rot_s04_0_dog_20_n02109525_7478.png
subject-04,1,681,0.931440114974976,dog,dog,180,0681_rot_s04_180_dog_20_n02109961_36163.png
subject-04,1,682,0.721242904663086,chair,chair,90,0682_rot_s04_90_chair_20_n03376595_14588.png
subject-04,1,683,0.779006004333496,bottle,bottle,0,0683_rot_s04_0_bottle_20_n03937543_6698.png
subject-04,1,684,0.730731010437012,keyboard,keyboard,270,0684_rot_s04_270_keyboard_20_n03085013_24228.png
subject-04,1,685,0.450674057006836,clock,clock,180,0685_rot_s04_180_clock_20_n04548280_2313.png
subject-04,1,686,1.18844199180603,truck,truck,270,0686_rot_s04_270_truck_20_n03417042_9552.png
subject-04,1,687,0.816141128540039,chair,chair,90,0687_rot_s04_90_chair_20_n04099969_6944.png
subject-04,1,688,0.52996301651001,bicycle,bicycle,90,0688_rot_s04_90_bicycle_20_n02835271_2915.png
subject-04,1,689,1.00614213943481,bottle,bottle,0,0689_rot_s04_0_bottle_20_n03983396_4313.png
subject-04,1,690,0.439612150192261,clock,clock,180,0690_rot_s04_180_clock_20_n02708093_8311.png
subject-04,1,691,0.60742712020874,bear,bear,90,0691_rot_s04_90_bear_20_n02133161_5267.png
subject-04,1,692,0.871279954910278,elephant,elephant,180,0692_rot_s04_180_elephant_20_n02504458_193.png
subject-04,1,693,0.983155012130737,bird,bird,90,0693_rot_s04_90_bird_20_n02011460_13994.png
subject-04,1,694,0.84926700592041,truck,truck,0,0694_rot_s04_0_truck_20_n03417042_6975.png
subject-04,1,695,0.708731889724731,bottle,bottle,90,0695_rot_s04_90_bottle_20_n03983396_3315.png
subject-04,1,696,0.814625978469849,dog,dog,90,0696_rot_s04_90_dog_20_n02090379_13010.png
subject-04,1,697,0.766371965408325,knife,knife,0,0697_rot_s04_0_knife_20_n03041632_100645.png
subject-04,1,698,0.836179971694946,truck,truck,180,0698_rot_s04_180_truck_20_n03796401_1150.png
subject-04,1,699,0.965987920761108,dog,dog,0,0699_rot_s04_0_dog_20_n02101006_4807.png
subject-04,1,700,0.917780876159668,car,car,90,0700_rot_s04_90_car_20_n03100240_7495.png
subject-04,1,701,0.862059116363525,bicycle,bear,270,0701_rot_s04_270_bear_20_n02134418_1388.png
subject-04,1,702,0.737511157989502,elephant,elephant,270,0702_rot_s04_270_elephant_20_n02504013_4339.png
subject-04,1,703,0.599622964859009,boat,boat,180,0703_rot_s04_180_boat_20_n03344393_7967.png
subject-04,1,704,0.725104093551636,boat,truck,0,0704_rot_s04_0_truck_20_n03417042_9378.png
subject-04,1,705,0.871018886566162,chair,chair,270,0705_rot_s04_270_chair_20_n03376595_497.png
subject-04,1,706,0.636721134185791,boat,airplane,270,0706_rot_s04_270_airplane_20_n02690373_3818.png
subject-04,1,707,0.664553165435791,bird,bird,180,0707_rot_s04_180_bird_20_n01560419_17392.png
subject-04,1,708,0.680668115615845,clock,clock,0,0708_rot_s04_0_clock_20_n02708093_2030.png
subject-04,1,709,0.710132837295532,cat,cat,180,0709_rot_s04_180_cat_20_n02125311_24813.png
subject-04,1,710,0.619907140731812,clock,bear,90,0710_rot_s04_90_bear_20_n02134418_2661.png
subject-04,1,711,0.599656105041504,cat,keyboard,0,0711_rot_s04_0_keyboard_20_n03085013_21004.png
subject-04,1,712,0.815499067306519,keyboard,keyboard,0,0712_rot_s04_0_keyboard_20_n03085013_23834.png
subject-04,1,713,0.819411039352417,airplane,airplane,0,0713_rot_s04_0_airplane_20_n02690373_10188.png
subject-04,1,714,0.857303142547607,boat,chair,270,0714_rot_s04_270_chair_20_n04099969_130.png
subject-04,1,715,1.05902695655823,bird,bird,180,0715_rot_s04_180_bird_20_n02018795_16942.png
subject-04,1,716,0.69281792640686,elephant,elephant,0,0716_rot_s04_0_elephant_20_n02504458_3458.png
subject-04,1,717,0.58454418182373,keyboard,keyboard,180,0717_rot_s04_180_keyboard_20_n04505470_3566.png
subject-04,1,718,0.924284934997559,airplane,airplane,270,0718_rot_s04_270_airplane_20_n02690373_1348.png
subject-04,1,719,1.07031607627869,dog,dog,0,0719_rot_s04_0_dog_20_n02091467_2974.png
subject-04,1,720,0.599958896636963,bird,bird,90,0720_rot_s04_90_bird_20_n01614925_2052.png
subject-04,1,721,0.699503898620605,bicycle,bicycle,0,0721_rot_s04_0_bicycle_20_n02835271_6873.png
subject-04,1,722,0.947344064712524,bottle,bottle,180,0722_rot_s04_180_bottle_20_n02823428_3.png
subject-04,1,723,0.567564964294434,bicycle,bicycle,270,0723_rot_s04_270_bicycle_20_n03792782_50904.png
subject-04,1,724,0.639006853103638,elephant,elephant,270,0724_rot_s04_270_elephant_20_n02504013_5364.png
subject-04,1,725,0.586711883544922,bird,bird,0,0725_rot_s04_0_bird_20_n01582220_8827.png
subject-04,1,726,0.820966958999634,bird,bird,0,0726_rot_s04_0_bird_20_n01534433_1227.png
subject-04,1,727,0.728303909301758,bear,bear,180,0727_rot_s04_180_bear_20_n02133161_1962.png
subject-04,1,728,0.674206972122192,cat,bird,270,0728_rot_s04_270_bird_20_n01819313_17231.png
subject-04,1,729,0.35819411277771,clock,clock,180,0729_rot_s04_180_clock_20_n04548280_4686.png
subject-04,1,730,1.17585897445679,oven,oven,90,0730_rot_s04_90_oven_20_n04111531_22291.png
subject-04,1,731,0.545813083648682,boat,airplane,180,0731_rot_s04_180_airplane_20_n02690373_3588.png
subject-04,1,732,0.609573125839233,oven,oven,270,0732_rot_s04_270_oven_20_n04111531_12952.png
subject-04,1,733,0.919127941131592,bicycle,bicycle,270,0733_rot_s04_270_bicycle_20_n02835271_7900.png
subject-04,1,734,0.677151918411255,bottle,bottle,0,0734_rot_s04_0_bottle_20_n04560804_9710.png
subject-04,1,735,0.692952871322632,bicycle,bicycle,0,0735_rot_s04_0_bicycle_20_n03792782_19083.png
subject-04,1,736,0.694589853286743,knife,knife,270,0736_rot_s04_270_knife_20_n03041632_11700.png
subject-04,1,737,1.05051398277283,bird,bird,90,0737_rot_s04_90_bird_20_n01534433_1271.png
subject-04,1,738,0.92637300491333,bottle,bottle,0,0738_rot_s04_0_bottle_20_n04591713_7476.png
subject-04,1,739,0.992197036743164,chair,oven,270,0739_rot_s04_270_oven_20_n04111531_46651.png
subject-04,1,740,0.486274003982544,cat,cat,270,0740_rot_s04_270_cat_20_n02123597_2549.png
subject-04,1,741,0.605792999267578,keyboard,keyboard,270,0741_rot_s04_270_keyboard_20_n04505470_6662.png
subject-04,1,742,0.751454830169678,bird,bird,180,0742_rot_s04_180_bird_20_n01843383_6001.png
subject-04,1,743,1.04172992706299,airplane,airplane,0,0743_rot_s04_0_airplane_20_n02690373_764.png
subject-04,1,744,0.545125007629395,airplane,airplane,0,0744_rot_s04_0_airplane_20_n02690373_8163.png
subject-04,1,745,1.03498601913452,bear,elephant,180,0745_rot_s04_180_elephant_20_n02504458_5816.png
subject-04,1,746,0.856996059417725,dog,dog,270,0746_rot_s04_270_dog_20_n02113624_393.png
subject-04,1,747,0.74259090423584,bear,bear,0,0747_rot_s04_0_bear_20_n02134084_572.png
subject-04,1,748,0.734589815139771,keyboard,keyboard,270,0748_rot_s04_270_keyboard_20_n03085013_21444.png
subject-04,1,749,0.750365972518921,elephant,elephant,180,0749_rot_s04_180_elephant_20_n02504458_259.png
subject-04,1,750,1.2620689868927,car,car,90,0750_rot_s04_90_car_20_n04285008_12737.png
subject-04,1,751,0.84385085105896,cat,bear,180,0751_rot_s04_180_bear_20_n02132136_4512.png
subject-04,1,752,0.85199499130249,chair,chair,180,0752_rot_s04_180_chair_20_n04429376_4296.png
subject-04,1,753,0.699610948562622,bottle,bottle,180,0753_rot_s04_180_bottle_20_n04579145_579.png
subject-04,1,754,0.79929518699646,boat,boat,180,0754_rot_s04_180_boat_20_n03662601_9140.png
subject-04,1,755,0.679423093795776,cat,cat,90,0755_rot_s04_90_cat_20_n02124075_1121.png
subject-04,1,756,0.890897989273071,bottle,oven,90,0756_rot_s04_90_oven_20_n04111531_9611.png
subject-04,1,757,0.738711833953857,bottle,bottle,270,0757_rot_s04_270_bottle_20_n04591713_2123.png
subject-04,1,758,0.86070990562439,truck,truck,90,0758_rot_s04_90_truck_20_n04467665_15994.png
subject-04,1,759,0.818335056304932,dog,dog,270,0759_rot_s04_270_dog_20_n02107683_7183.png
subject-04,1,760,0.684509038925171,bottle,bottle,0,0760_rot_s04_0_bottle_20_n04560804_15562.png
subject-04,1,761,1.50000190734863,dog,dog,90,0761_rot_s04_90_dog_20_n02110806_8971.png
subject-04,1,762,0.969820022583008,airplane,airplane,90,0762_rot_s04_90_airplane_20_n02690373_4714.png
subject-04,1,763,0.79577898979187,bottle,bottle,270,0763_rot_s04_270_bottle_20_n03983396_11236.png
subject-04,1,764,0.679446935653687,clock,clock,90,0764_rot_s04_90_clock_20_n02708093_1986.png
subject-04,1,765,0.779191970825195,chair,knife,180,0765_rot_s04_180_knife_20_n03041632_22330.png
subject-04,1,766,0.969033002853394,cat,oven,90,0766_rot_s04_90_oven_20_n04111531_6933.png
subject-04,1,767,0.578999996185303,boat,boat,90,0767_rot_s04_90_boat_20_n04273569_17255.png
subject-04,1,768,1.32270908355713,airplane,car,270,0768_rot_s04_270_car_20_n02814533_41670.png
subject-04,1,769,0.976502895355225,dog,dog,0,0769_rot_s04_0_dog_20_n02091831_332.png
subject-04,1,770,0.674424886703491,elephant,elephant,180,0770_rot_s04_180_elephant_20_n02504013_10719.png
subject-04,1,771,0.580196142196655,clock,clock,0,0771_rot_s04_0_clock_20_n04548280_7792.png
subject-04,1,772,0.562242984771729,oven,oven,270,0772_rot_s04_270_oven_20_n04111531_6863.png
subject-04,1,773,1.18571496009827,bottle,knife,90,0773_rot_s04_90_knife_20_n03041632_30248.png
subject-04,1,774,1.09588718414307,dog,bird,180,0774_rot_s04_180_bird_20_n01616318_1164.png
subject-04,1,775,1.50013494491577,truck,truck,90,0775_rot_s04_90_truck_20_n04467665_90715.png
subject-04,1,776,0.69923210144043,car,car,0,0776_rot_s04_0_car_20_n02814533_39547.png
subject-04,1,777,0.917062997817993,dog,dog,270,0777_rot_s04_270_dog_20_n02113023_291.png
subject-04,1,778,0.834946155548096,oven,oven,180,0778_rot_s04_180_oven_20_n04111531_2795.png
subject-04,1,779,1.36249899864197,truck,truck,0,0779_rot_s04_0_truck_20_n03417042_6838.png
subject-04,1,780,0.938761949539185,cat,cat,270,0780_rot_s04_270_cat_20_n02123159_7369.png
subject-04,1,781,0.878309011459351,bird,bird,90,0781_rot_s04_90_bird_20_n02006656_4486.png
subject-04,1,782,0.782273054122925,keyboard,keyboard,180,0782_rot_s04_180_keyboard_20_n03085013_20960.png
subject-04,1,783,0.850045919418335,bicycle,bicycle,90,0783_rot_s04_90_bicycle_20_n02835271_3308.png
subject-04,1,784,0.699725866317749,elephant,elephant,270,0784_rot_s04_270_elephant_20_n02504458_9922.png
subject-04,1,785,0.677508115768433,knife,knife,90,0785_rot_s04_90_knife_20_n03041632_36834.png
subject-04,1,786,0.509467840194702,oven,oven,90,0786_rot_s04_90_oven_20_n04111531_21055.png
subject-04,1,787,0.553092002868652,cat,cat,180,0787_rot_s04_180_cat_20_n02123159_2285.png
subject-04,1,788,0.655150890350342,elephant,elephant,270,0788_rot_s04_270_elephant_20_n02504458_485.png
subject-04,1,789,0.568845987319946,bicycle,bicycle,180,0789_rot_s04_180_bicycle_20_n03792782_3591.png
subject-04,1,790,0.932526111602783,bicycle,car,0,0790_rot_s04_0_car_20_n03100240_17587.png
subject-04,1,791,0.990377187728882,dog,dog,180,0791_rot_s04_180_dog_20_n02112350_10026.png
subject-04,1,792,0.700279951095581,bird,bird,90,0792_rot_s04_90_bird_20_n01534433_14389.png
subject-04,1,793,0.857877016067505,bear,bear,90,0793_rot_s04_90_bear_20_n02134418_5219.png
subject-04,1,794,0.605729103088379,truck,truck,0,0794_rot_s04_0_truck_20_n03796401_1791.png
subject-04,1,795,0.765566110610962,chair,truck,180,0795_rot_s04_180_truck_20_n03417042_5004.png
subject-04,1,796,0.761415958404541,oven,oven,270,0796_rot_s04_270_oven_20_n04111531_6934.png
subject-04,1,797,1.21117210388184,cat,bear,270,0797_rot_s04_270_bear_20_n02134418_5827.png
subject-04,1,798,0.559403896331787,bird,bird,180,0798_rot_s04_180_bird_20_n01531178_17239.png
subject-04,1,799,0.828877925872803,elephant,elephant,0,0799_rot_s04_0_elephant_20_n02504013_18792.png
subject-04,1,800,0.518744945526123,clock,clock,90,0800_rot_s04_90_clock_20_n04548280_6865.png
subject-04,1,801,0.950330972671509,chair,chair,180,0801_rot_s04_180_chair_20_n04099969_3485.png
subject-04,1,802,0.790085792541504,bottle,bottle,180,0802_rot_s04_180_bottle_20_n04557648_1871.png
subject-04,1,803,0.553944826126099,chair,chair,270,0803_rot_s04_270_chair_20_n04099969_9243.png
subject-04,1,804,0.6877760887146,cat,cat,270,0804_rot_s04_270_cat_20_n02123394_4700.png
subject-04,1,805,0.665572166442871,boat,boat,0,0805_rot_s04_0_boat_20_n03662601_7324.png
subject-04,1,806,0.497565984725952,boat,boat,180,0806_rot_s04_180_boat_20_n03344393_7705.png
subject-04,1,807,1.08134293556213,cat,elephant,90,0807_rot_s04_90_elephant_20_n02504458_113.png
subject-04,1,808,1.01525688171387,keyboard,keyboard,90,0808_rot_s04_90_keyboard_20_n03085013_24294.png
subject-04,1,809,0.794891119003296,oven,oven,90,0809_rot_s04_90_oven_20_n04111531_2618.png
subject-04,1,810,1.09867596626282,elephant,elephant,270,0810_rot_s04_270_elephant_20_n02504013_15219.png
subject-04,1,811,0.838512897491455,oven,oven,270,0811_rot_s04_270_oven_20_n04111531_845.png
subject-04,1,812,0.824339866638184,bird,bird,270,0812_rot_s04_270_bird_20_n01582220_6459.png
subject-04,1,813,0.830108165740967,bottle,bottle,90,0813_rot_s04_90_bottle_20_n03937543_5619.png
subject-04,1,814,0.693853855133057,cat,cat,270,0814_rot_s04_270_cat_20_n02123597_5927.png
subject-04,1,815,0.869789123535156,bear,bear,180,0815_rot_s04_180_bear_20_n02134418_4458.png
subject-04,1,816,0.651609897613525,oven,oven,180,0816_rot_s04_180_oven_20_n04111531_2937.png
subject-04,1,817,0.64768385887146,bottle,bottle,270,0817_rot_s04_270_bottle_20_n02823428_12656.png
subject-04,1,818,1.03102898597717,cat,cat,90,0818_rot_s04_90_cat_20_n02123159_5678.png
subject-04,1,819,1.16097903251648,bicycle,bicycle,180,0819_rot_s04_180_bicycle_20_n02835271_24.png
subject-04,1,820,0.798807859420776,car,car,90,0820_rot_s04_90_car_20_n02814533_34149.png
subject-04,1,821,0.660943031311035,bottle,bottle,90,0821_rot_s04_90_bottle_20_n02823428_6252.png
subject-04,1,822,0.948716878890991,bear,bear,90,0822_rot_s04_90_bear_20_n02132136_17349.png
subject-04,1,823,0.846545219421387,airplane,airplane,0,0823_rot_s04_0_airplane_20_n02690373_2379.png
subject-04,1,824,0.814143896102905,boat,car,180,0824_rot_s04_180_car_20_n03100240_7781.png
subject-04,1,825,1.38218212127686,dog,dog,180,0825_rot_s04_180_dog_20_n02107142_4461.png
subject-04,1,826,0.725694894790649,cat,cat,180,0826_rot_s04_180_cat_20_n02123394_2059.png
subject-04,1,827,0.945488214492798,car,car,180,0827_rot_s04_180_car_20_n03100240_5752.png
subject-04,1,828,1.07520294189453,bear,cat,90,0828_rot_s04_90_cat_20_n02125311_1896.png
subject-04,1,829,1.31921720504761,bicycle,elephant,180,0829_rot_s04_180_elephant_20_n02504458_5641.png
subject-04,1,830,0.944845914840698,chair,chair,90,0830_rot_s04_90_chair_20_n02791124_5749.png
subject-04,1,831,1.20478010177612,bicycle,dog,180,0831_rot_s04_180_dog_20_n02107908_2754.png
subject-04,1,832,1.30093312263489,airplane,airplane,90,0832_rot_s04_90_airplane_20_n02690373_5534.png
subject-04,1,833,0.578316926956177,keyboard,keyboard,90,0833_rot_s04_90_keyboard_20_n04505470_961.png
subject-04,1,834,0.732424974441528,bottle,bottle,90,0834_rot_s04_90_bottle_20_n03983396_5452.png
subject-04,1,835,0.956062793731689,boat,boat,180,0835_rot_s04_180_boat_20_n03662601_1740.png
subject-04,1,836,0.810175895690918,bicycle,bicycle,180,0836_rot_s04_180_bicycle_20_n03792782_26168.png
subject-04,1,837,0.705575942993164,bird,bird,0,0837_rot_s04_0_bird_20_n02033041_3924.png
subject-04,1,838,1.03369688987732,truck,truck,180,0838_rot_s04_180_truck_20_n04467665_69063.png
subject-04,1,839,1.05322003364563,cat,bear,90,0839_rot_s04_90_bear_20_n02134418_998.png
subject-04,1,840,1.3469660282135,chair,chair,270,0840_rot_s04_270_chair_20_n04429376_44914.png
subject-04,1,841,0.562853813171387,airplane,airplane,180,0841_rot_s04_180_airplane_20_n02690373_9441.png
subject-04,1,842,0.696691036224365,bear,bear,180,0842_rot_s04_180_bear_20_n02134418_1825.png
subject-04,1,843,0.542458057403564,oven,oven,0,0843_rot_s04_0_oven_20_n04111531_17006.png
subject-04,1,844,0.774231910705566,bottle,knife,90,0844_rot_s04_90_knife_20_n03041632_32774.png
subject-04,1,845,0.506317138671875,bicycle,bicycle,90,0845_rot_s04_90_bicycle_20_n03792782_15016.png
subject-04,1,846,0.610322952270508,knife,knife,0,0846_rot_s04_0_knife_20_n03041632_54191.png
subject-04,1,847,0.508105039596558,boat,boat,180,0847_rot_s04_180_boat_20_n03344393_8749.png
subject-04,1,848,0.993623971939087,dog,dog,270,0848_rot_s04_270_dog_20_n02094433_1289.png
subject-04,1,849,0.67737889289856,truck,truck,270,0849_rot_s04_270_truck_20_n04467665_44390.png
subject-04,1,850,0.445184946060181,clock,clock,90,0850_rot_s04_90_clock_20_n03196217_4578.png
subject-04,1,851,0.656956911087036,keyboard,keyboard,90,0851_rot_s04_90_keyboard_20_n03085013_7317.png
subject-04,1,852,0.562917947769165,bicycle,bicycle,0,0852_rot_s04_0_bicycle_20_n03792782_4895.png
subject-04,1,853,0.824604988098145,chair,knife,0,0853_rot_s04_0_knife_20_n03041632_49570.png
subject-04,1,854,0.920644044876099,knife,knife,90,0854_rot_s04_90_knife_20_n03041632_26710.png
subject-04,1,855,0.93830680847168,truck,truck,270,0855_rot_s04_270_truck_20_n04467665_5275.png
subject-04,1,856,1.02998304367065,boat,truck,270,0856_rot_s04_270_truck_20_n03796401_6346.png
subject-04,1,857,0.879772186279297,bicycle,bicycle,180,0857_rot_s04_180_bicycle_20_n03792782_42626.png
subject-04,1,858,1.1097559928894,knife,knife,270,0858_rot_s04_270_knife_20_n03041632_18995.png
subject-04,1,859,0.759800910949707,chair,chair,90,0859_rot_s04_90_chair_20_n04099969_1941.png
subject-04,1,860,0.811453104019165,chair,chair,0,0860_rot_s04_0_chair_20_n02791124_3220.png
subject-04,1,861,0.635401010513306,bottle,bottle,90,0861_rot_s04_90_bottle_20_n03983396_4115.png
subject-04,1,862,1.14684009552002,bear,bear,270,0862_rot_s04_270_bear_20_n02133161_14397.png
subject-04,1,863,1.02060914039612,knife,knife,180,0863_rot_s04_180_knife_20_n03041632_80317.png
subject-04,1,864,0.630845069885254,boat,boat,0,0864_rot_s04_0_boat_20_n03662601_26140.png
subject-04,1,865,0.806353807449341,chair,chair,90,0865_rot_s04_90_chair_20_n02791124_1740.png
subject-04,1,866,0.972292900085449,dog,dog,180,0866_rot_s04_180_dog_20_n02099267_4999.png
subject-04,1,867,1.00990700721741,knife,knife,0,0867_rot_s04_0_knife_20_n03041632_24113.png
subject-04,1,868,0.825775861740112,chair,chair,270,0868_rot_s04_270_chair_20_n03376595_14240.png
subject-04,1,869,0.915514945983887,clock,clock,180,0869_rot_s04_180_clock_20_n04548280_1190.png
subject-04,1,870,0.631344079971313,bird,bird,180,0870_rot_s04_180_bird_20_n01601694_19236.png
subject-04,1,871,0.603292226791382,oven,oven,270,0871_rot_s04_270_oven_20_n04111531_9429.png
subject-04,1,872,0.811023950576782,bottle,bottle,180,0872_rot_s04_180_bottle_20_n03983396_2002.png
subject-04,1,873,0.584765911102295,keyboard,keyboard,180,0873_rot_s04_180_keyboard_20_n04505470_4473.png
subject-04,1,874,0.878703832626343,oven,chair,90,0874_rot_s04_90_chair_20_n04429376_19916.png
subject-04,1,875,1.08244490623474,keyboard,keyboard,180,0875_rot_s04_180_keyboard_20_n03085013_25419.png
subject-04,1,876,0.596308946609497,car,car,90,0876_rot_s04_90_car_20_n04285008_8641.png
subject-04,1,877,0.792316913604736,cat,cat,180,0877_rot_s04_180_cat_20_n02123045_11787.png
subject-04,1,878,0.682123899459839,keyboard,keyboard,270,0878_rot_s04_270_keyboard_20_n03085013_7879.png
subject-04,1,879,0.773869037628174,cat,cat,180,0879_rot_s04_180_cat_20_n02123045_11545.png
subject-04,1,880,1.13339281082153,oven,oven,180,0880_rot_s04_180_oven_20_n04111531_1938.png
subject-04,1,881,0.821135997772217,dog,bear,90,0881_rot_s04_90_bear_20_n02134418_5071.png
subject-04,1,882,0.73887300491333,elephant,elephant,90,0882_rot_s04_90_elephant_20_n02504013_565.png
subject-04,1,883,0.496862888336182,airplane,airplane,90,0883_rot_s04_90_airplane_20_n02690373_8872.png
subject-04,1,884,0.626719951629639,oven,oven,90,0884_rot_s04_90_oven_20_n04111531_3099.png
subject-04,1,885,0.746367931365967,knife,knife,270,0885_rot_s04_270_knife_20_n03041632_26236.png
subject-04,1,886,0.784474849700928,dog,bird,270,0886_rot_s04_270_bird_20_n01531178_4324.png
subject-04,1,887,0.804184913635254,bear,bear,180,0887_rot_s04_180_bear_20_n02134084_3696.png
subject-04,1,888,0.903649091720581,bird,bear,270,0888_rot_s04_270_bear_20_n02134084_7345.png
subject-04,1,889,0.81806206703186,keyboard,keyboard,0,0889_rot_s04_0_keyboard_20_n04505470_7312.png
subject-04,1,890,0.707679986953735,airplane,airplane,270,0890_rot_s04_270_airplane_20_n02690373_5909.png
subject-04,1,891,0.403201103210449,clock,clock,180,0891_rot_s04_180_clock_20_n03196217_571.png
subject-04,1,892,0.705148935317993,bottle,bottle,180,0892_rot_s04_180_bottle_20_n02823428_8392.png
subject-04,1,893,0.638822078704834,airplane,airplane,180,0893_rot_s04_180_airplane_20_n02690373_5838.png
subject-04,1,894,0.814858913421631,dog,dog,0,0894_rot_s04_0_dog_20_n02110958_14369.png
subject-04,1,895,0.854657888412476,bear,bear,180,0895_rot_s04_180_bear_20_n02133161_3896.png
subject-04,1,896,0.724660873413086,keyboard,keyboard,180,0896_rot_s04_180_keyboard_20_n03085013_20330.png
subject-04,1,897,0.592189073562622,cat,cat,90,0897_rot_s04_90_cat_20_n02123394_2269.png
subject-04,1,898,0.92618203163147,elephant,elephant,270,0898_rot_s04_270_elephant_20_n02504013_13512.png
subject-04,1,899,0.863900899887085,bottle,bottle,270,0899_rot_s04_270_bottle_20_n04557648_16525.png
subject-04,1,900,0.637585878372192,bicycle,bottle,90,0900_rot_s04_90_bottle_20_n04560804_570.png
subject-04,1,901,0.545316934585571,oven,oven,90,0901_rot_s04_90_oven_20_n04111531_5216.png
subject-04,1,902,0.597176074981689,oven,oven,0,0902_rot_s04_0_oven_20_n04111531_10339.png
subject-04,1,903,1.01530694961548,bear,bear,0,0903_rot_s04_0_bear_20_n02134418_2398.png
subject-04,1,904,0.576770067214966,boat,boat,0,0904_rot_s04_0_boat_20_n04273569_11502.png
subject-04,1,905,0.446601867675781,clock,clock,90,0905_rot_s04_90_clock_20_n04548280_5631.png
subject-04,1,906,1.23864603042603,airplane,airplane,180,0906_rot_s04_180_airplane_20_n02690373_15097.png
subject-04,1,907,0.544182062149048,boat,boat,180,0907_rot_s04_180_boat_20_n04273569_29113.png
subject-04,1,908,0.780174016952515,bicycle,bicycle,0,0908_rot_s04_0_bicycle_20_n02835271_18188.png
subject-04,1,909,0.89634895324707,elephant,bear,180,0909_rot_s04_180_bear_20_n02134418_200.png
subject-04,1,910,0.735597133636475,cat,cat,180,0910_rot_s04_180_cat_20_n02123597_1901.png
subject-04,1,911,0.565335988998413,airplane,airplane,0,0911_rot_s04_0_airplane_20_n02690373_1171.png
subject-04,1,912,0.87726902961731,bear,bear,270,0912_rot_s04_270_bear_20_n02133161_5020.png
subject-04,1,913,0.83760404586792,cat,bird,90,0913_rot_s04_90_bird_20_n01797886_2347.png
subject-04,1,914,0.916951179504395,boat,boat,180,0914_rot_s04_180_boat_20_n02951358_34766.png
subject-04,1,915,0.926796913146973,bicycle,bicycle,90,0915_rot_s04_90_bicycle_20_n02835271_8747.png
subject-04,1,916,1.05053806304932,elephant,elephant,90,0916_rot_s04_90_elephant_20_n02504013_3861.png
subject-04,1,917,1.27445602416992,chair,elephant,90,0917_rot_s04_90_elephant_20_n02504458_2613.png
subject-04,1,918,1.1640989780426,dog,dog,270,0918_rot_s04_270_dog_20_n02109047_13710.png
subject-04,1,919,1.33802795410156,truck,truck,0,0919_rot_s04_0_truck_20_n03417042_11000.png
subject-04,1,920,0.565769195556641,boat,boat,270,0920_rot_s04_270_boat_20_n04273569_1495.png
subject-04,1,921,0.939638137817383,bear,bear,0,0921_rot_s04_0_bear_20_n02132136_2799.png
subject-04,1,922,0.665503978729248,bicycle,bicycle,180,0922_rot_s04_180_bicycle_20_n03792782_6058.png
subject-04,1,923,0.849287986755371,boat,boat,90,0923_rot_s04_90_boat_20_n04612504_30766.png
subject-04,1,924,0.69713020324707,chair,chair,180,0924_rot_s04_180_chair_20_n03376595_9079.png
subject-04,1,925,0.736727952957153,truck,truck,0,0925_rot_s04_0_truck_20_n03796401_6294.png
subject-04,1,926,0.710551023483276,keyboard,keyboard,270,0926_rot_s04_270_keyboard_20_n03085013_22175.png
subject-04,1,927,1.16483497619629,chair,clock,270,0927_rot_s04_270_clock_20_n03196217_2022.png
subject-04,1,928,0.70843505859375,bicycle,bicycle,270,0928_rot_s04_270_bicycle_20_n03792782_40932.png
subject-04,1,929,0.626338005065918,cat,cat,0,0929_rot_s04_0_cat_20_n02125311_18366.png
subject-04,1,930,0.861841917037964,truck,truck,270,0930_rot_s04_270_truck_20_n04467665_70509.png
subject-04,1,931,0.745821952819824,keyboard,keyboard,0,0931_rot_s04_0_keyboard_20_n04505470_1067.png
subject-04,1,932,0.905635118484497,dog,dog,180,0932_rot_s04_180_dog_20_n02104365_1592.png
subject-04,1,933,0.899297952651978,oven,oven,0,0933_rot_s04_0_oven_20_n04111531_7134.png
subject-04,1,934,0.911388158798218,chair,chair,270,0934_rot_s04_270_chair_20_n03376595_426.png
subject-04,1,935,0.778852939605713,bird,bird,0,0935_rot_s04_0_bird_20_n01592084_2639.png
subject-04,1,936,0.728908061981201,bicycle,bicycle,0,0936_rot_s04_0_bicycle_20_n03792782_5517.png
subject-04,1,937,0.692440986633301,chair,chair,0,0937_rot_s04_0_chair_20_n02791124_422.png
subject-04,1,938,1.06431913375854,chair,bicycle,0,0938_rot_s04_0_bicycle_20_n02835271_30318.png
subject-04,1,939,0.784251928329468,keyboard,keyboard,180,0939_rot_s04_180_keyboard_20_n04505470_4477.png
subject-04,1,940,0.792082071304321,oven,oven,180,0940_rot_s04_180_oven_20_n04111531_13906.png
subject-04,1,941,0.609750986099243,keyboard,keyboard,90,0941_rot_s04_90_keyboard_20_n03085013_22665.png
subject-04,1,942,1.26970911026001,boat,boat,270,0942_rot_s04_270_boat_20_n02951358_15412.png
subject-04,1,943,0.645606994628906,cat,cat,0,0943_rot_s04_0_cat_20_n02123159_2137.png
subject-04,1,944,0.53718900680542,boat,boat,270,0944_rot_s04_270_boat_20_n03344393_2961.png
subject-04,1,945,0.583065986633301,clock,clock,0,0945_rot_s04_0_clock_20_n04548280_7211.png
subject-04,1,946,0.888978004455566,elephant,elephant,0,0946_rot_s04_0_elephant_20_n02504458_6119.png
subject-04,1,947,0.556864976882935,elephant,elephant,0,0947_rot_s04_0_elephant_20_n02504013_9299.png
subject-04,1,948,0.814987897872925,bear,oven,0,0948_rot_s04_0_oven_20_n04111531_21248.png
subject-04,1,949,0.642525911331177,bottle,bottle,0,0949_rot_s04_0_bottle_20_n03937543_7357.png
subject-04,1,950,0.644140958786011,airplane,airplane,90,0950_rot_s04_90_airplane_20_n02690373_4024.png
subject-04,1,951,0.872122049331665,bottle,dog,180,0951_rot_s04_180_dog_20_n02097658_3358.png
subject-04,1,952,0.517729997634888,boat,boat,0,0952_rot_s04_0_boat_20_n03662601_11764.png
subject-04,1,953,0.685603141784668,car,car,0,0953_rot_s04_0_car_20_n02814533_40531.png
subject-04,1,954,0.643395900726318,knife,knife,180,0954_rot_s04_180_knife_20_n03041632_21017.png
subject-04,1,955,0.513208150863647,keyboard,keyboard,270,0955_rot_s04_270_keyboard_20_n04505470_1649.png
subject-04,1,956,1.02509808540344,elephant,elephant,180,0956_rot_s04_180_elephant_20_n02504458_5277.png
subject-04,1,957,0.644755125045776,bird,bird,180,0957_rot_s04_180_bird_20_n02027492_20576.png
subject-04,1,958,0.480633020401001,boat,boat,90,0958_rot_s04_90_boat_20_n04273569_7296.png
subject-04,1,959,1.24436807632446,oven,oven,270,0959_rot_s04_270_oven_20_n04111531_9380.png
subject-04,1,960,0.412304878234863,clock,clock,180,0960_rot_s04_180_clock_20_n03196217_1271.png
subject-04,1,961,0.570013046264648,boat,bear,270,0961_rot_s04_270_bear_20_n02132136_15174.png
subject-04,1,962,0.921881914138794,chair,chair,90,0962_rot_s04_90_chair_20_n02791124_8775.png
subject-04,1,963,0.893468141555786,bird,bird,90,0963_rot_s04_90_bird_20_n01582220_7400.png
subject-04,1,964,0.907323122024536,bicycle,oven,0,0964_rot_s04_0_oven_20_n04111531_10403.png
subject-04,1,965,0.929227113723755,knife,knife,0,0965_rot_s04_0_knife_20_n03041632_26053.png
subject-04,1,966,1.43700289726257,car,truck,0,0966_rot_s04_0_truck_20_n03796401_5058.png
subject-04,1,967,0.762878894805908,dog,dog,180,0967_rot_s04_180_dog_20_n02093428_11151.png
subject-04,1,968,1.16470098495483,elephant,oven,270,0968_rot_s04_270_oven_20_n04111531_5015.png
subject-04,1,969,0.75049901008606,keyboard,keyboard,0,0969_rot_s04_0_keyboard_20_n03085013_24103.png
subject-04,1,970,0.560221195220947,bear,bear,180,0970_rot_s04_180_bear_20_n02133161_15427.png
subject-04,1,971,0.847992897033691,bird,dog,90,0971_rot_s04_90_dog_20_n02095570_7633.png
subject-04,1,972,1.03582715988159,keyboard,keyboard,180,0972_rot_s04_180_keyboard_20_n03085013_22069.png
subject-04,1,973,0.805768013000488,keyboard,keyboard,0,0973_rot_s04_0_keyboard_20_n03085013_23566.png
subject-04,1,974,0.513484954833984,boat,boat,180,0974_rot_s04_180_boat_20_n04273569_15761.png
subject-04,1,975,0.661338090896606,car,car,180,0975_rot_s04_180_car_20_n03100240_4288.png
subject-04,1,976,0.455263137817383,boat,boat,90,0976_rot_s04_90_boat_20_n04273569_17340.png
subject-04,1,977,0.709074020385742,knife,knife,0,0977_rot_s04_0_knife_20_n03041632_4279.png
subject-04,1,978,0.833166837692261,chair,chair,180,0978_rot_s04_180_chair_20_n02791124_4369.png
subject-04,1,979,1.37666010856628,bear,bear,0,0979_rot_s04_0_bear_20_n02132136_9797.png
subject-04,1,980,0.980480909347534,truck,truck,0,0980_rot_s04_0_truck_20_n04467665_7093.png
subject-04,1,981,0.710372924804688,boat,airplane,90,0981_rot_s04_90_airplane_20_n02690373_4982.png
subject-04,1,982,0.82431697845459,dog,bird,90,0982_rot_s04_90_bird_20_n01817953_6970.png
subject-04,1,983,0.698271036148071,elephant,elephant,180,0983_rot_s04_180_elephant_20_n02504013_5035.png
subject-04,1,984,0.949800968170166,truck,elephant,270,0984_rot_s04_270_elephant_20_n02504013_4762.png
subject-04,1,985,0.461651086807251,clock,clock,90,0985_rot_s04_90_clock_20_n02708093_8069.png
subject-04,1,986,0.75736403465271,bird,bird,0,0986_rot_s04_0_bird_20_n02006656_5079.png
subject-04,1,987,0.501024961471558,cat,cat,180,0987_rot_s04_180_cat_20_n02123045_436.png
subject-04,1,988,0.794893980026245,boat,boat,0,0988_rot_s04_0_boat_20_n03344393_8032.png
subject-04,1,989,0.898653984069824,bicycle,bicycle,90,0989_rot_s04_90_bicycle_20_n02835271_4797.png
subject-04,1,990,1.01252102851868,boat,boat,90,0990_rot_s04_90_boat_20_n03662601_12581.png
subject-04,1,991,0.912743806838989,car,boat,90,0991_rot_s04_90_boat_20_n02951358_15422.png
subject-04,1,992,0.580496788024902,cat,cat,0,0992_rot_s04_0_cat_20_n02123394_5301.png
subject-04,1,993,0.73203706741333,car,car,270,0993_rot_s04_270_car_20_n02814533_458.png
subject-04,1,994,0.488085031509399,clock,clock,0,0994_rot_s04_0_clock_20_n02708093_3535.png
subject-04,1,995,0.944087028503418,car,car,180,0995_rot_s04_180_car_20_n02814533_85971.png
subject-04,1,996,0.721743106842041,cat,dog,90,0996_rot_s04_90_dog_20_n02095570_11263.png
subject-04,1,997,0.76728081703186,bear,bear,270,0997_rot_s04_270_bear_20_n02134084_147.png
subject-04,1,998,0.71710205078125,car,car,270,0998_rot_s04_270_car_20_n02814533_38596.png
subject-04,1,999,0.970831871032715,boat,boat,90,0999_rot_s04_90_boat_20_n03344393_2790.png
subject-04,1,1000,1.02096700668335,boat,boat,270,1000_rot_s04_270_boat_20_n03344393_11886.png
subject-04,1,1001,0.666285037994385,boat,boat,180,1001_rot_s04_180_boat_20_n04273569_13053.png
subject-04,1,1002,0.576245069503784,bottle,bottle,270,1002_rot_s04_270_bottle_20_n04557648_11000.png
subject-04,1,1003,0.939959049224854,car,car,0,1003_rot_s04_0_car_20_n03100240_24420.png
subject-04,1,1004,0.69392991065979,knife,knife,0,1004_rot_s04_0_knife_20_n03041632_10263.png
subject-04,1,1005,0.717728853225708,boat,truck,180,1005_rot_s04_180_truck_20_n03417042_6539.png
subject-04,1,1006,0.489639043807983,clock,clock,270,1006_rot_s04_270_clock_20_n02708093_1862.png
subject-04,1,1007,0.995368003845215,dog,elephant,180,1007_rot_s04_180_elephant_20_n02504013_1644.png
subject-04,1,1008,0.7951819896698,elephant,elephant,270,1008_rot_s04_270_elephant_20_n02504013_5173.png
subject-04,1,1009,0.694905996322632,truck,truck,180,1009_rot_s04_180_truck_20_n03796401_4582.png
subject-04,1,1010,0.740655183792114,bicycle,bicycle,270,1010_rot_s04_270_bicycle_20_n02835271_21640.png
subject-04,1,1011,1.03504586219788,bicycle,bicycle,90,1011_rot_s04_90_bicycle_20_n03792782_442.png
subject-04,1,1012,1.12054586410522,bear,bear,180,1012_rot_s04_180_bear_20_n02133161_4393.png
subject-04,1,1013,0.744244813919067,truck,truck,180,1013_rot_s04_180_truck_20_n04467665_13225.png
subject-04,1,1014,0.582085132598877,bicycle,bicycle,90,1014_rot_s04_90_bicycle_20_n03792782_5048.png
subject-04,1,1015,0.556166887283325,boat,boat,90,1015_rot_s04_90_boat_20_n04273569_1050.png
subject-04,1,1016,0.787885904312134,boat,bird,90,1016_rot_s04_90_bird_20_n02037110_8716.png
subject-04,1,1017,1.11950302124023,bird,bird,180,1017_rot_s04_180_bird_20_n02018207_5735.png
subject-04,1,1018,0.757300853729248,bottle,bottle,180,1018_rot_s04_180_bottle_20_n03983396_5883.png
subject-04,1,1019,0.803011894226074,bear,bear,0,1019_rot_s04_0_bear_20_n02133161_4218.png
subject-04,1,1020,0.628880977630615,bear,bear,270,1020_rot_s04_270_bear_20_n02134418_1094.png
subject-04,1,1021,1.06881499290466,dog,dog,270,1021_rot_s04_270_dog_20_n02108000_1044.png
subject-04,1,1022,0.74857497215271,boat,dog,90,1022_rot_s04_90_dog_20_n02090721_1002.png
subject-04,1,1023,0.556390047073364,knife,knife,180,1023_rot_s04_180_knife_20_n03041632_24228.png
subject-04,1,1024,1.21020698547363,bicycle,oven,0,1024_rot_s04_0_oven_20_n04111531_13255.png
subject-04,1,1025,0.440321922302246,boat,boat,90,1025_rot_s04_90_boat_20_n04273569_8951.png
subject-04,1,1026,0.529644966125488,oven,oven,180,1026_rot_s04_180_oven_20_n04111531_16708.png
subject-04,1,1027,0.533720016479492,oven,oven,180,1027_rot_s04_180_oven_20_n04111531_4939.png
subject-04,1,1028,1.24527621269226,elephant,elephant,180,1028_rot_s04_180_elephant_20_n02504013_6618.png
subject-04,1,1029,0.595237970352173,clock,clock,0,1029_rot_s04_0_clock_20_n04548280_5798.png
subject-04,1,1030,0.639135122299194,car,car,0,1030_rot_s04_0_car_20_n03100240_3927.png
subject-04,1,1031,0.974896907806396,car,car,0,1031_rot_s04_0_car_20_n03100240_19550.png
subject-04,1,1032,1.11868000030518,chair,clock,0,1032_rot_s04_0_clock_20_n03196217_5103.png
subject-04,1,1033,0.974403858184814,dog,dog,0,1033_rot_s04_0_dog_20_n02102177_7968.png
subject-04,1,1034,0.620636940002441,cat,dog,270,1034_rot_s04_270_dog_20_n02108551_1207.png
subject-04,1,1035,0.664044857025146,car,car,0,1035_rot_s04_0_car_20_n02814533_486.png
subject-04,1,1036,0.671905040740967,cat,cat,0,1036_rot_s04_0_cat_20_n02123045_10433.png
subject-04,1,1037,0.831818819046021,bicycle,bird,270,1037_rot_s04_270_bird_20_n01558993_7871.png
subject-04,1,1038,0.911462068557739,knife,knife,90,1038_rot_s04_90_knife_20_n03041632_14817.png
subject-04,1,1039,0.929250001907349,chair,chair,270,1039_rot_s04_270_chair_20_n04099969_42125.png
subject-04,1,1040,0.487360000610352,boat,boat,90,1040_rot_s04_90_boat_20_n03662601_3893.png
subject-04,1,1041,0.788151979446411,boat,boat,270,1041_rot_s04_270_boat_20_n02951358_1362.png
subject-04,1,1042,0.651919841766357,truck,truck,270,1042_rot_s04_270_truck_20_n03417042_2153.png
subject-04,1,1043,0.759871959686279,bird,bird,180,1043_rot_s04_180_bird_20_n01560419_19599.png
subject-04,1,1044,0.639695882797241,truck,airplane,90,1044_rot_s04_90_airplane_20_n02690373_3492.png
subject-04,1,1045,0.791553974151611,elephant,elephant,270,1045_rot_s04_270_elephant_20_n02504013_10301.png
subject-04,1,1046,0.545417785644531,keyboard,keyboard,90,1046_rot_s04_90_keyboard_20_n03085013_23625.png
subject-04,1,1047,0.541011095046997,cat,cat,90,1047_rot_s04_90_cat_20_n02123597_10141.png
subject-04,1,1048,0.558890819549561,bottle,bottle,90,1048_rot_s04_90_bottle_20_n04591713_1824.png
subject-04,1,1049,0.686962842941284,boat,boat,0,1049_rot_s04_0_boat_20_n03662601_8410.png
subject-04,1,1050,0.620625019073486,airplane,airplane,180,1050_rot_s04_180_airplane_20_n02690373_139.png
subject-04,1,1051,0.532164096832275,airplane,airplane,180,1051_rot_s04_180_airplane_20_n02690373_2038.png
subject-04,1,1052,0.836036920547485,chair,chair,0,1052_rot_s04_0_chair_20_n02791124_12707.png
subject-04,1,1053,0.563955783843994,cat,dog,0,1053_rot_s04_0_dog_20_n02107908_8891.png
subject-04,1,1054,0.602102041244507,bear,bear,90,1054_rot_s04_90_bear_20_n02132136_11339.png
