subj,Session,trial,rt,object_response,category,condition,imagename
subject-01,1,1,0.945574045181274,cat,chair,40,0001_lp_s01_40_chair_10_n04099969_7577.png
subject-01,1,2,1.04752802848816,bird,cat,40,0002_lp_s01_40_cat_10_n02124075_12815.png
subject-01,1,3,1.06327795982361,truck,truck,5,0003_lp_s01_5_truck_10_n04467665_34253.png
subject-01,1,4,0.67748498916626,clock,clock,1,0004_lp_s01_1_clock_10_n04548280_5320.png
subject-01,1,5,0.784923076629639,dog,dog,3,0005_lp_s01_3_dog_10_n02108915_3652.png
subject-01,1,6,0.773025989532471,keyboard,keyboard,7,0006_lp_s01_7_keyboard_10_n04505470_578.png
subject-01,1,7,0.560640096664429,cat,cat,7,0007_lp_s01_7_cat_10_n02123597_3842.png
subject-01,1,8,0.66037392616272,bear,bear,1,0008_lp_s01_1_bear_10_n02134418_14.png
subject-01,1,9,1.23815107345581,clock,knife,10,0009_lp_s01_10_knife_10_n03041632_29920.png
subject-01,1,10,1.3380811214447,elephant,bird,5,0010_lp_s01_5_bird_10_n01795545_952.png
subject-01,1,11,0.661682844161987,bear,bear,3,0011_lp_s01_3_bear_10_n02132136_6441.png
subject-01,1,12,0.871724843978882,bird,bird,3,0012_lp_s01_3_bird_10_n01829413_8792.png
subject-01,1,13,0.905469179153442,keyboard,keyboard,7,0013_lp_s01_7_keyboard_10_n04505470_4458.png
subject-01,1,14,0.903282165527344,bird,chair,10,0014_lp_s01_10_chair_10_n03376595_9176.png
subject-01,1,15,0.913019895553589,oven,clock,40,0015_lp_s01_40_clock_10_n04548280_7662.png
subject-01,1,16,1.07485818862915,boat,keyboard,40,0016_lp_s01_40_keyboard_10_n03085013_25809.png
subject-01,1,17,1.22871994972229,boat,oven,5,0017_lp_s01_5_oven_10_n04111531_1580.png
subject-01,1,18,0.850517988204956,elephant,elephant,1,0018_lp_s01_1_elephant_10_n02504458_900.png
subject-01,1,19,0.998322010040283,bird,dog,7,0019_lp_s01_7_dog_10_n02106662_2384.png
subject-01,1,20,0.83623194694519,truck,truck,10,0020_lp_s01_10_truck_10_n03796401_22618.png
subject-01,1,21,1.16389608383179,airplane,elephant,15,0021_lp_s01_15_elephant_10_n02504013_5463.png
subject-01,1,22,0.881666898727417,bottle,chair,10,0022_lp_s01_10_chair_10_n04429376_16459.png
subject-01,1,23,0.671563148498535,cat,cat,1,0023_lp_s01_1_cat_10_n02123045_12206.png
subject-01,1,24,1.09135603904724,truck,truck,7,0024_lp_s01_7_truck_10_n03417042_2633.png
subject-01,1,25,1.03543496131897,car,keyboard,15,0025_lp_s01_15_keyboard_10_n03085013_24416.png
subject-01,1,26,0.71924614906311,car,car,7,0026_lp_s01_7_car_10_n02814533_44503.png
subject-01,1,27,1.39068412780762,bear,elephant,5,0027_lp_s01_5_elephant_10_n02504458_5797.png
subject-01,1,28,1.04275703430176,clock,chair,0,0028_lp_s01_0_chair_10_n04429376_8237.png
subject-01,1,29,1.32446193695068,bear,cat,7,0029_lp_s01_7_cat_10_n02123159_587.png
subject-01,1,30,1.35230302810669,bear,bird,10,0030_lp_s01_10_bird_10_n02028035_17238.png
subject-01,1,31,0.944100856781006,oven,cat,40,0031_lp_s01_40_cat_10_n02123159_4348.png
subject-01,1,32,0.816042184829712,boat,boat,5,0032_lp_s01_5_boat_10_n04273569_22332.png
subject-01,1,33,0.963618040084839,elephant,elephant,1,0033_lp_s01_1_elephant_10_n02504013_1244.png
subject-01,1,34,1.02164506912231,bicycle,bicycle,7,0034_lp_s01_7_bicycle_10_n03792782_30229.png
subject-01,1,35,0.831116199493408,bottle,keyboard,10,0035_lp_s01_10_keyboard_10_n03085013_7573.png
subject-01,1,36,1.0949170589447,keyboard,keyboard,3,0036_lp_s01_3_keyboard_10_n03085013_24578.png
subject-01,1,37,0.898877143859863,bicycle,truck,15,0037_lp_s01_15_truck_10_n03417042_1336.png
subject-01,1,38,1.29295802116394,knife,knife,3,0038_lp_s01_3_knife_10_n03041632_7495.png
subject-01,1,39,0.702468156814575,car,car,0,0039_lp_s01_0_car_10_n03100240_9625.png
subject-01,1,40,0.740413188934326,boat,elephant,10,0040_lp_s01_10_elephant_10_n02504458_6107.png
subject-01,1,41,0.586249828338623,bicycle,bicycle,0,0041_lp_s01_0_bicycle_10_n03792782_33649.png
subject-01,1,42,0.583881139755249,clock,clock,1,0042_lp_s01_1_clock_10_n03196217_8282.png
subject-01,1,43,0.988144159317017,keyboard,keyboard,7,0043_lp_s01_7_keyboard_10_n03085013_21534.png
subject-01,1,44,1.20372414588928,bottle,elephant,15,0044_lp_s01_15_elephant_10_n02504013_22813.png
subject-01,1,45,0.943784952163696,car,truck,10,0045_lp_s01_10_truck_10_n03796401_16425.png
subject-01,1,46,0.833286046981812,boat,airplane,15,0046_lp_s01_15_airplane_10_n02690373_9427.png
subject-01,1,47,0.721282958984375,bird,bird,7,0047_lp_s01_7_bird_10_n02009912_11907.png
subject-01,1,48,0.726969003677368,airplane,airplane,1,0048_lp_s01_1_airplane_10_n02690373_5773.png
subject-01,1,49,1.21064901351929,clock,chair,40,0049_lp_s01_40_chair_10_n02791124_2972.png
subject-01,1,50,0.958699941635132,bird,bird,1,0050_lp_s01_1_bird_10_n01819313_18188.png
subject-01,1,51,0.964357852935791,car,car,5,0051_lp_s01_5_car_10_n04285008_7428.png
subject-01,1,52,1.11013412475586,bird,bottle,7,0052_lp_s01_7_bottle_10_n04591713_6923.png
subject-01,1,53,1.48005819320679,knife,knife,0,0053_lp_s01_0_knife_10_n03041632_22570.png
subject-01,1,54,0.969741106033325,bear,bear,0,0054_lp_s01_0_bear_10_n02132136_7586.png
subject-01,1,55,1.21772217750549,clock,clock,5,0055_lp_s01_5_clock_10_n04548280_9144.png
subject-01,1,56,1.07158708572388,bottle,bottle,0,0056_lp_s01_0_bottle_10_n04591713_2680.png
subject-01,1,57,0.967350959777832,cat,cat,3,0057_lp_s01_3_cat_10_n02123045_1596.png
subject-01,1,58,1.49999690055847,dog,cat,10,0058_lp_s01_10_cat_10_n02123597_19450.png
subject-01,1,59,0.98685097694397,bird,chair,15,0059_lp_s01_15_chair_10_n03376595_3462.png
subject-01,1,60,0.818646907806396,bottle,bottle,3,0060_lp_s01_3_bottle_10_n04591713_3683.png
subject-01,1,61,0.74637508392334,clock,clock,7,0061_lp_s01_7_clock_10_n03196217_4309.png
subject-01,1,62,1.09416079521179,bear,bear,15,0062_lp_s01_15_bear_10_n02134084_4923.png
subject-01,1,63,0.910207986831665,chair,chair,1,0063_lp_s01_1_chair_10_n04429376_5238.png
subject-01,1,64,0.757980823516846,clock,clock,0,0064_lp_s01_0_clock_10_n03196217_2414.png
subject-01,1,65,0.887727022171021,bird,bird,3,0065_lp_s01_3_bird_10_n01797886_2711.png
subject-01,1,66,0.815497875213623,boat,truck,15,0066_lp_s01_15_truck_10_n04467665_68463.png
subject-01,1,67,0.685385942459106,truck,truck,0,0067_lp_s01_0_truck_10_n03417042_10099.png
subject-01,1,68,0.979398012161255,bear,bear,10,0068_lp_s01_10_bear_10_n02134418_3793.png
subject-01,1,69,1.080806016922,bicycle,bottle,10,0069_lp_s01_10_bottle_10_n03937543_9524.png
subject-01,1,70,0.926982879638672,cat,cat,3,0070_lp_s01_3_cat_10_n02123394_1038.png
subject-01,1,71,1.02467107772827,bird,dog,5,0071_lp_s01_5_dog_10_n02110185_7886.png
subject-01,1,72,0.710386991500854,clock,clock,3,0072_lp_s01_3_clock_10_n02708093_4912.png
subject-01,1,73,1.02795910835266,dog,dog,15,0073_lp_s01_15_dog_10_n02108422_932.png
subject-01,1,74,0.709995985031128,truck,truck,0,0074_lp_s01_0_truck_10_n04467665_18621.png
subject-01,1,75,0.660068035125732,truck,truck,1,0075_lp_s01_1_truck_10_n04467665_50932.png
subject-01,1,76,0.995585918426514,dog,dog,1,0076_lp_s01_1_dog_10_n02102480_7293.png
subject-01,1,77,0.883418083190918,bottle,bottle,1,0077_lp_s01_1_bottle_10_n04591713_4764.png
subject-01,1,78,1.12331891059875,clock,clock,15,0078_lp_s01_15_clock_10_n02708093_274.png
subject-01,1,79,0.981349945068359,bottle,bottle,5,0079_lp_s01_5_bottle_10_n04557648_29772.png
subject-01,1,80,0.970896005630493,car,car,15,0080_lp_s01_15_car_10_n03100240_22499.png
subject-01,1,81,0.634299039840698,clock,clock,3,0081_lp_s01_3_clock_10_n02708093_6252.png
subject-01,1,82,0.920046806335449,airplane,airplane,10,0082_lp_s01_10_airplane_10_n02690373_5427.png
subject-01,1,83,1.38555693626404,dog,dog,15,0083_lp_s01_15_dog_10_n02107142_46045.png
subject-01,1,84,1.27559089660645,oven,keyboard,40,0084_lp_s01_40_keyboard_10_n03085013_23793.png
subject-01,1,85,0.811471939086914,bicycle,bicycle,3,0085_lp_s01_3_bicycle_10_n03792782_12421.png
subject-01,1,86,0.691252946853638,airplane,airplane,0,0086_lp_s01_0_airplane_10_n02690373_1310.png
subject-01,1,87,0.836870193481445,oven,oven,15,0087_lp_s01_15_oven_10_n04111531_8793.png
subject-01,1,88,0.982817888259888,airplane,airplane,5,0088_lp_s01_5_airplane_10_n02690373_633.png
subject-01,1,89,0.660526037216187,clock,clock,5,0089_lp_s01_5_clock_10_n02708093_2307.png
subject-01,1,90,1.07249689102173,car,oven,10,0090_lp_s01_10_oven_10_n04111531_13795.png
subject-01,1,91,1.24249005317688,boat,boat,3,0091_lp_s01_3_boat_10_n03662601_1427.png
subject-01,1,92,0.856132984161377,boat,boat,5,0092_lp_s01_5_boat_10_n04612504_15944.png
subject-01,1,93,1.05799603462219,bear,airplane,40,0093_lp_s01_40_airplane_10_n02690373_3561.png
subject-01,1,94,0.903770923614502,elephant,elephant,7,0094_lp_s01_7_elephant_10_n02504458_1848.png
subject-01,1,95,0.981543064117432,oven,oven,5,0095_lp_s01_5_oven_10_n04111531_4155.png
subject-01,1,96,0.955271005630493,car,car,0,0096_lp_s01_0_car_10_n03100240_8327.png
subject-01,1,97,1.20109891891479,knife,chair,0,0097_lp_s01_0_chair_10_n04429376_24319.png
subject-01,1,98,1.27523493766785,oven,chair,3,0098_lp_s01_3_chair_10_n03376595_5112.png
subject-01,1,99,1.13288307189941,dog,cat,1,0099_lp_s01_1_cat_10_n02124075_2268.png
subject-01,1,100,0.684573888778687,boat,boat,3,0100_lp_s01_3_boat_10_n04273569_1137.png
subject-01,1,101,0.722359180450439,chair,chair,1,0101_lp_s01_1_chair_10_n02791124_15383.png
subject-01,1,102,1.43214011192322,keyboard,clock,15,0102_lp_s01_15_clock_10_n04548280_8998.png
subject-01,1,103,1.10819888114929,dog,dog,0,0103_lp_s01_0_dog_10_n02097047_2800.png
subject-01,1,104,0.871841907501221,bicycle,bicycle,15,0104_lp_s01_15_bicycle_10_n03792782_18294.png
subject-01,1,105,0.867796182632446,elephant,elephant,0,0105_lp_s01_0_elephant_10_n02504013_24486.png
subject-01,1,106,1.30342197418213,bicycle,airplane,7,0106_lp_s01_7_airplane_10_n02690373_2923.png
subject-01,1,107,0.737205982208252,airplane,airplane,3,0107_lp_s01_3_airplane_10_n02690373_15392.png
subject-01,1,108,0.937201023101807,oven,oven,5,0108_lp_s01_5_oven_10_n04111531_6080.png
subject-01,1,109,1.17683792114258,bear,bear,15,0109_lp_s01_15_bear_10_n02134084_22736.png
subject-01,1,110,0.978652000427246,knife,knife,1,0110_lp_s01_1_knife_10_n03041632_33326.png
subject-01,1,111,1.25844216346741,truck,truck,40,0111_lp_s01_40_truck_10_n04467665_66876.png
subject-01,1,112,1.49999499320984,bicycle,truck,40,0112_lp_s01_40_truck_10_n03796401_10234.png
subject-01,1,113,1.19820189476013,bicycle,bicycle,7,0113_lp_s01_7_bicycle_10_n03792782_5416.png
subject-01,1,114,1.50004196166992,bird,knife,7,0114_lp_s01_7_knife_10_n03041632_25772.png
subject-01,1,115,0.927854061126709,boat,bicycle,10,0115_lp_s01_10_bicycle_10_n03792782_7108.png
subject-01,1,116,0.791553020477295,chair,chair,0,0116_lp_s01_0_chair_10_n03376595_1981.png
subject-01,1,117,1.3755099773407,oven,oven,15,0117_lp_s01_15_oven_10_n04111531_6508.png
subject-01,1,118,1.50013995170593,car,bird,15,0118_lp_s01_15_bird_10_n01843383_2843.png
subject-01,1,119,0.683223009109497,cat,cat,5,0119_lp_s01_5_cat_10_n02123597_5887.png
subject-01,1,120,0.852648973464966,boat,clock,40,0120_lp_s01_40_clock_10_n04548280_9801.png
subject-01,1,121,0.890959978103638,bird,bird,1,0121_lp_s01_1_bird_10_n01530575_10332.png
subject-01,1,122,0.934519052505493,dog,elephant,15,0122_lp_s01_15_elephant_10_n02504013_5887.png
subject-01,1,123,0.792210817337036,cat,cat,3,0123_lp_s01_3_cat_10_n02124075_8693.png
subject-01,1,124,0.806146860122681,car,boat,15,0124_lp_s01_15_boat_10_n04612504_26151.png
subject-01,1,125,0.677931070327759,cat,cat,7,0125_lp_s01_7_cat_10_n02125311_53412.png
subject-01,1,126,0.689755916595459,boat,knife,7,0126_lp_s01_7_knife_10_n03041632_46914.png
subject-01,1,127,1.40562391281128,elephant,bicycle,15,0127_lp_s01_15_bicycle_10_n03792782_5629.png
subject-01,1,128,0.997520923614502,bear,bottle,40,0128_lp_s01_40_bottle_10_n02823428_79.png
subject-01,1,129,1.48143482208252,dog,dog,3,0129_lp_s01_3_dog_10_n02101006_5024.png
subject-01,1,130,1.0710289478302,cat,oven,15,0130_lp_s01_15_oven_10_n04111531_2350.png
subject-01,1,131,1.20889806747437,airplane,airplane,7,0131_lp_s01_7_airplane_10_n02690373_4839.png
subject-01,1,132,0.862811088562012,car,car,5,0132_lp_s01_5_car_10_n03100240_2075.png
subject-01,1,133,1.50015807151794,keyboard,cat,5,0133_lp_s01_5_cat_10_n02123159_3729.png
subject-01,1,134,1.44415187835693,knife,knife,10,0134_lp_s01_10_knife_10_n03041632_3079.png
subject-01,1,135,1.05790495872498,cat,elephant,15,0135_lp_s01_15_elephant_10_n02504013_2052.png
subject-01,1,136,0.979912996292114,car,cat,40,0136_lp_s01_40_cat_10_n02123159_3724.png
subject-01,1,137,0.71165919303894,oven,keyboard,15,0137_lp_s01_15_keyboard_10_n03085013_7955.png
subject-01,1,138,0.983698844909668,cat,bird,40,0138_lp_s01_40_bird_10_n02056570_9872.png
subject-01,1,139,1.19926500320435,boat,cat,10,0139_lp_s01_10_cat_10_n02125311_44401.png
subject-01,1,140,0.909025192260742,airplane,airplane,10,0140_lp_s01_10_airplane_10_n02690373_10657.png
subject-01,1,141,1.25880312919617,bear,bird,5,0141_lp_s01_5_bird_10_n02025239_7919.png
subject-01,1,142,1.31669497489929,oven,bear,40,0142_lp_s01_40_bear_10_n02134084_23165.png
subject-01,1,143,1.22044610977173,chair,knife,40,0143_lp_s01_40_knife_10_n03041632_28658.png
subject-01,1,144,0.836342811584473,clock,keyboard,5,0144_lp_s01_5_keyboard_10_n04505470_4371.png
subject-01,1,145,0.660132884979248,keyboard,keyboard,0,0145_lp_s01_0_keyboard_10_n03085013_14237.png
subject-01,1,146,0.618165016174316,clock,clock,0,0146_lp_s01_0_clock_10_n03196217_6163.png
subject-01,1,147,1.0557918548584,bear,chair,15,0147_lp_s01_15_chair_10_n02791124_3857.png
subject-01,1,148,1.03541302680969,car,truck,40,0148_lp_s01_40_truck_10_n03417042_20650.png
subject-01,1,149,1.00748491287231,truck,truck,0,0149_lp_s01_0_truck_10_n04467665_17101.png
subject-01,1,150,0.831255197525024,chair,chair,1,0150_lp_s01_1_chair_10_n04429376_19354.png
subject-01,1,151,0.947005987167358,knife,knife,0,0151_lp_s01_0_knife_10_n03041632_42156.png
subject-01,1,152,0.752919912338257,car,car,1,0152_lp_s01_1_car_10_n04285008_39.png
subject-01,1,153,0.588653087615967,boat,boat,1,0153_lp_s01_1_boat_10_n03662601_1319.png
subject-01,1,154,1.19074606895447,chair,truck,7,0154_lp_s01_7_truck_10_n03796401_4119.png
subject-01,1,155,0.998296976089478,bottle,bottle,15,0155_lp_s01_15_bottle_10_n03937543_2333.png
subject-01,1,156,0.716232061386108,bottle,bottle,3,0156_lp_s01_3_bottle_10_n04591713_7134.png
subject-01,1,157,0.815875053405762,dog,dog,0,0157_lp_s01_0_dog_10_n02107312_3673.png
subject-01,1,158,0.781574964523315,oven,oven,3,0158_lp_s01_3_oven_10_n04111531_8373.png
subject-01,1,159,0.903436899185181,car,car,3,0159_lp_s01_3_car_10_n03100240_13707.png
subject-01,1,160,0.633337020874023,chair,chair,1,0160_lp_s01_1_chair_10_n02791124_241.png
subject-01,1,161,0.876687049865723,airplane,airplane,7,0161_lp_s01_7_airplane_10_n02690373_5628.png
subject-01,1,162,0.75035285949707,cat,boat,40,0162_lp_s01_40_boat_10_n02951358_1461.png
subject-01,1,163,0.708322048187256,keyboard,keyboard,7,0163_lp_s01_7_keyboard_10_n04505470_4501.png
subject-01,1,164,0.750208854675293,bird,bird,1,0164_lp_s01_1_bird_10_n02033041_11415.png
subject-01,1,165,0.743854999542236,knife,knife,1,0165_lp_s01_1_knife_10_n03041632_6446.png
subject-01,1,166,1.15988397598267,bird,bird,0,0166_lp_s01_0_bird_10_n02011460_3892.png
subject-01,1,167,0.75964093208313,cat,cat,1,0167_lp_s01_1_cat_10_n02125311_3174.png
subject-01,1,168,1.12543201446533,dog,dog,10,0168_lp_s01_10_dog_10_n02088364_7448.png
subject-01,1,169,0.565194845199585,cat,cat,1,0169_lp_s01_1_cat_10_n02123394_4299.png
subject-01,1,170,1.10313701629639,oven,keyboard,15,0170_lp_s01_15_keyboard_10_n03085013_23731.png
subject-01,1,171,0.882927894592285,knife,knife,5,0171_lp_s01_5_knife_10_n03041632_29285.png
subject-01,1,172,0.744504928588867,keyboard,keyboard,0,0172_lp_s01_0_keyboard_10_n03085013_12164.png
subject-01,1,173,0.722329139709473,cat,bird,5,0173_lp_s01_5_bird_10_n01582220_9023.png
subject-01,1,174,1.04839277267456,bottle,bottle,3,0174_lp_s01_3_bottle_10_n03983396_12728.png
subject-01,1,175,0.849967002868652,dog,dog,7,0175_lp_s01_7_dog_10_n02111277_50807.png
subject-01,1,176,1.05198788642883,boat,boat,5,0176_lp_s01_5_boat_10_n04273569_2037.png
subject-01,1,177,1.23980784416199,airplane,keyboard,40,0177_lp_s01_40_keyboard_10_n04505470_4672.png
subject-01,1,178,1.3534779548645,bicycle,boat,10,0178_lp_s01_10_boat_10_n03662601_12034.png
subject-01,1,179,1.25146007537842,bear,airplane,15,0179_lp_s01_15_airplane_10_n02690373_5845.png
subject-01,1,180,0.868916988372803,truck,truck,5,0180_lp_s01_5_truck_10_n03417042_12128.png
subject-01,1,181,1.1951220035553,oven,keyboard,10,0181_lp_s01_10_keyboard_10_n03085013_2432.png
subject-01,1,182,0.738754987716675,chair,chair,5,0182_lp_s01_5_chair_10_n03376595_9692.png
subject-01,1,183,NaN,na,chair,3,0183_lp_s01_3_chair_10_n03376595_12583.png
subject-01,1,184,0.702229022979736,bear,bear,0,0184_lp_s01_0_bear_10_n02133161_2135.png
subject-01,1,185,1.1020519733429,boat,airplane,10,0185_lp_s01_10_airplane_10_n02690373_5176.png
subject-01,1,186,0.694052934646606,elephant,elephant,0,0186_lp_s01_0_elephant_10_n02504013_10990.png
subject-01,1,187,0.675846099853516,boat,boat,10,0187_lp_s01_10_boat_10_n02951358_3155.png
subject-01,1,188,0.773524045944214,knife,knife,1,0188_lp_s01_1_knife_10_n03041632_2644.png
subject-01,1,189,0.989307880401611,airplane,airplane,5,0189_lp_s01_5_airplane_10_n02690373_5184.png
subject-01,1,190,0.643165111541748,chair,chair,0,0190_lp_s01_0_chair_10_n04099969_16161.png
subject-01,1,191,0.765079975128174,boat,boat,10,0191_lp_s01_10_boat_10_n03344393_5343.png
subject-01,1,192,0.642910003662109,oven,oven,0,0192_lp_s01_0_oven_10_n04111531_15052.png
subject-01,1,193,1.02457404136658,car,bicycle,15,0193_lp_s01_15_bicycle_10_n02835271_317.png
subject-01,1,194,0.960523128509521,bird,bird,0,0194_lp_s01_0_bird_10_n02002556_15721.png
subject-01,1,195,0.722450017929077,chair,chair,5,0195_lp_s01_5_chair_10_n03376595_11280.png
subject-01,1,196,0.752470016479492,clock,keyboard,3,0196_lp_s01_3_keyboard_10_n04505470_4621.png
subject-01,1,197,0.653877973556519,boat,boat,7,0197_lp_s01_7_boat_10_n03662601_6042.png
subject-01,1,198,0.901659965515137,dog,dog,1,0198_lp_s01_1_dog_10_n02086646_2810.png
subject-01,1,199,1.24748611450195,oven,elephant,15,0199_lp_s01_15_elephant_10_n02504458_7835.png
subject-01,1,200,1.09526515007019,bird,cat,15,0200_lp_s01_15_cat_10_n02123159_6281.png
subject-01,1,201,1.36724495887756,knife,knife,5,0201_lp_s01_5_knife_10_n03041632_1661.png
subject-01,1,202,0.714801073074341,clock,clock,1,0202_lp_s01_1_clock_10_n02708093_2806.png
subject-01,1,203,0.570855855941772,boat,boat,1,0203_lp_s01_1_boat_10_n04273569_1201.png
subject-01,1,204,1.11660385131836,truck,bird,40,0204_lp_s01_40_bird_10_n01614925_13283.png
subject-01,1,205,0.762481927871704,car,car,40,0205_lp_s01_40_car_10_n02814533_51701.png
subject-01,1,206,1.44839406013489,oven,chair,7,0206_lp_s01_7_chair_10_n04099969_34325.png
subject-01,1,207,0.826411008834839,truck,truck,0,0207_lp_s01_0_truck_10_n04467665_71305.png
subject-01,1,208,0.650014877319336,boat,boat,5,0208_lp_s01_5_boat_10_n03344393_5916.png
subject-01,1,209,0.897798776626587,car,car,7,0209_lp_s01_7_car_10_n02814533_28783.png
subject-01,1,210,1.40345907211304,oven,boat,15,0210_lp_s01_15_boat_10_n03662601_16825.png
subject-01,1,211,0.827337980270386,dog,dog,0,0211_lp_s01_0_dog_10_n02100583_10960.png
subject-01,1,212,0.997515916824341,elephant,elephant,10,0212_lp_s01_10_elephant_10_n02504458_4587.png
subject-01,1,213,1.04886102676392,bear,bottle,10,0213_lp_s01_10_bottle_10_n03983396_12670.png
subject-01,1,214,0.728940010070801,bicycle,bicycle,3,0214_lp_s01_3_bicycle_10_n02835271_18205.png
subject-01,1,215,0.884902954101562,bird,truck,40,0215_lp_s01_40_truck_10_n04467665_67527.png
subject-01,1,216,1.23222303390503,keyboard,keyboard,10,0216_lp_s01_10_keyboard_10_n03085013_4374.png
subject-01,1,217,1.46413111686707,oven,clock,3,0217_lp_s01_3_clock_10_n03196217_3086.png
subject-01,1,218,0.798337936401367,clock,clock,15,0218_lp_s01_15_clock_10_n04548280_254.png
subject-01,1,219,1.28211498260498,boat,bicycle,15,0219_lp_s01_15_bicycle_10_n02835271_21707.png
subject-01,1,220,0.943814992904663,bicycle,bird,15,0220_lp_s01_15_bird_10_n01819313_6340.png
subject-01,1,221,1.20740103721619,oven,bicycle,5,0221_lp_s01_5_bicycle_10_n02835271_10556.png
subject-01,1,222,1.35128593444824,car,chair,15,0222_lp_s01_15_chair_10_n04099969_3312.png
subject-01,1,223,1.23132586479187,car,car,15,0223_lp_s01_15_car_10_n04285008_2781.png
subject-01,1,224,0.65688681602478,clock,clock,3,0224_lp_s01_3_clock_10_n04548280_21263.png
subject-01,1,225,0.822700023651123,car,car,15,0225_lp_s01_15_car_10_n02814533_9785.png
subject-01,1,226,1.17655205726624,car,truck,0,0226_lp_s01_0_truck_10_n03417042_24100.png
subject-01,1,227,NaN,na,dog,15,0227_lp_s01_15_dog_10_n02091244_10926.png
subject-01,1,228,1.14608502388,car,bottle,40,0228_lp_s01_40_bottle_10_n04591713_2537.png
subject-01,1,229,0.978044033050537,bear,bear,10,0229_lp_s01_10_bear_10_n02134418_1311.png
subject-01,1,230,1.19365811347961,bicycle,bicycle,3,0230_lp_s01_3_bicycle_10_n03792782_210.png
subject-01,1,231,0.665569067001343,cat,cat,3,0231_lp_s01_3_cat_10_n02123045_5371.png
subject-01,1,232,1.35120606422424,bird,boat,15,0232_lp_s01_15_boat_10_n04612504_19111.png
subject-01,1,233,0.935019969940186,clock,clock,1,0233_lp_s01_1_clock_10_n03196217_7836.png
subject-01,1,234,0.807063102722168,dog,dog,0,0234_lp_s01_0_dog_10_n02086910_9742.png
subject-01,1,235,0.646878957748413,bottle,bottle,1,0235_lp_s01_1_bottle_10_n03937543_4723.png
subject-01,1,236,1.37293720245361,bear,dog,5,0236_lp_s01_5_dog_10_n02111129_6495.png
subject-01,1,237,0.986306190490723,knife,knife,1,0237_lp_s01_1_knife_10_n03041632_3101.png
subject-01,1,238,0.922340154647827,bear,bear,0,0238_lp_s01_0_bear_10_n02134084_7373.png
subject-01,1,239,1.47402000427246,bicycle,bird,7,0239_lp_s01_7_bird_10_n02009229_11916.png
subject-01,1,240,0.921970129013062,bird,oven,7,0240_lp_s01_7_oven_10_n04111531_14208.png
subject-01,1,241,0.922299146652222,bird,bird,3,0241_lp_s01_3_bird_10_n01601694_20287.png
subject-01,1,242,1.22397208213806,car,oven,15,0242_lp_s01_15_oven_10_n04111531_5519.png
subject-01,1,243,0.627871036529541,car,car,1,0243_lp_s01_1_car_10_n04285008_10893.png
subject-01,1,244,1.43187189102173,car,boat,40,0244_lp_s01_40_boat_10_n02951358_16196.png
subject-01,1,245,0.895519971847534,bottle,clock,7,0245_lp_s01_7_clock_10_n04548280_532.png
subject-01,1,246,0.781494855880737,keyboard,keyboard,0,0246_lp_s01_0_keyboard_10_n04505470_73.png
subject-01,1,247,0.64525318145752,bottle,bottle,10,0247_lp_s01_10_bottle_10_n02823428_6766.png
subject-01,1,248,1.12679219245911,boat,boat,15,0248_lp_s01_15_boat_10_n02951358_26579.png
subject-01,1,249,0.968770980834961,dog,dog,10,0249_lp_s01_10_dog_10_n02085782_7651.png
subject-01,1,250,0.582943916320801,clock,clock,3,0250_lp_s01_3_clock_10_n02708093_1747.png
subject-01,1,251,0.80651593208313,truck,truck,3,0251_lp_s01_3_truck_10_n04467665_19645.png
subject-01,1,252,1.10217905044556,bicycle,airplane,15,0252_lp_s01_15_airplane_10_n02690373_17262.png
subject-01,1,253,0.870253086090088,elephant,elephant,0,0253_lp_s01_0_elephant_10_n02504458_10428.png
subject-01,1,254,0.591840982437134,cat,cat,7,0254_lp_s01_7_cat_10_n02124075_9149.png
subject-01,1,255,1.3338680267334,bird,elephant,10,0255_lp_s01_10_elephant_10_n02504013_7923.png
subject-01,1,256,0.82958722114563,cat,cat,3,0256_lp_s01_3_cat_10_n02123394_4789.png
subject-01,1,257,1.23523283004761,chair,clock,5,0257_lp_s01_5_clock_10_n03196217_2530.png
subject-01,1,258,0.831056118011475,airplane,airplane,5,0258_lp_s01_5_airplane_10_n02690373_6992.png
subject-01,1,259,0.977101802825928,airplane,airplane,3,0259_lp_s01_3_airplane_10_n02690373_5056.png
subject-01,1,260,0.858781099319458,bear,bear,1,0260_lp_s01_1_bear_10_n02134418_2231.png
subject-01,1,261,0.986569881439209,oven,truck,10,0261_lp_s01_10_truck_10_n03796401_180.png
subject-01,1,262,0.764194965362549,bicycle,bicycle,3,0262_lp_s01_3_bicycle_10_n02835271_3246.png
subject-01,1,263,0.7864830493927,truck,truck,3,0263_lp_s01_3_truck_10_n03796401_599.png
subject-01,1,264,1.25978708267212,car,oven,7,0264_lp_s01_7_oven_10_n04111531_13862.png
subject-01,1,265,0.997628927230835,truck,oven,0,0265_lp_s01_0_oven_10_n04111531_10420.png
subject-01,1,266,0.955549955368042,bear,car,10,0266_lp_s01_10_car_10_n03100240_15531.png
subject-01,1,267,0.913458108901978,bicycle,dog,7,0267_lp_s01_7_dog_10_n02099849_3128.png
subject-01,1,268,1.30299997329712,oven,chair,5,0268_lp_s01_5_chair_10_n02791124_3222.png
subject-01,1,269,0.851018190383911,keyboard,keyboard,5,0269_lp_s01_5_keyboard_10_n04505470_8364.png
subject-01,1,270,0.886765956878662,clock,clock,0,0270_lp_s01_0_clock_10_n04548280_9294.png
subject-01,1,271,0.892580032348633,bottle,bottle,7,0271_lp_s01_7_bottle_10_n03937543_3358.png
subject-01,1,272,1.04665613174438,knife,knife,7,0272_lp_s01_7_knife_10_n03041632_2058.png
subject-01,1,273,0.722567081451416,boat,elephant,1,0273_lp_s01_1_elephant_10_n02504458_5671.png
subject-01,1,274,0.814287185668945,bottle,chair,10,0274_lp_s01_10_chair_10_n02791124_6281.png
subject-01,1,275,1.08390784263611,boat,cat,15,0275_lp_s01_15_cat_10_n02125311_44920.png
subject-01,1,276,0.811620950698853,airplane,airplane,5,0276_lp_s01_5_airplane_10_n02690373_2981.png
subject-01,1,277,1.14569091796875,knife,knife,1,0277_lp_s01_1_knife_10_n03041632_2468.png
subject-01,1,278,0.673232078552246,clock,clock,1,0278_lp_s01_1_clock_10_n02708093_3605.png
subject-01,1,279,0.701133966445923,bicycle,bicycle,1,0279_lp_s01_1_bicycle_10_n02835271_19019.png
subject-01,1,280,1.01090002059937,keyboard,keyboard,7,0280_lp_s01_7_keyboard_10_n03085013_1188.png
subject-01,1,281,0.71284294128418,bicycle,oven,1,0281_lp_s01_1_oven_10_n04111531_2715.png
subject-01,1,282,1.0144989490509,oven,keyboard,10,0282_lp_s01_10_keyboard_10_n03085013_9533.png
subject-01,1,283,0.6924729347229,cat,cat,3,0283_lp_s01_3_cat_10_n02123045_20366.png
subject-01,1,284,0.932426929473877,chair,chair,5,0284_lp_s01_5_chair_10_n03376595_302.png
subject-01,1,285,0.570165872573853,cat,cat,7,0285_lp_s01_7_cat_10_n02123597_14267.png
subject-01,1,286,0.991637945175171,bear,dog,15,0286_lp_s01_15_dog_10_n02098286_2582.png
subject-01,1,287,0.817637920379639,boat,boat,1,0287_lp_s01_1_boat_10_n03344393_4001.png
subject-01,1,288,1.00933504104614,boat,bicycle,15,0288_lp_s01_15_bicycle_10_n02835271_6122.png
subject-01,1,289,0.771199941635132,dog,dog,3,0289_lp_s01_3_dog_10_n02091134_3075.png
subject-01,1,290,1.30100297927856,elephant,oven,40,0290_lp_s01_40_oven_10_n04111531_4795.png
subject-01,1,291,0.717254161834717,bottle,bottle,10,0291_lp_s01_10_bottle_10_n04591713_4876.png
subject-01,1,292,0.682744979858398,bottle,bottle,0,0292_lp_s01_0_bottle_10_n02823428_2510.png
subject-01,1,293,0.820736169815063,keyboard,keyboard,1,0293_lp_s01_1_keyboard_10_n03085013_5950.png
subject-01,1,294,0.928368091583252,dog,bear,5,0294_lp_s01_5_bear_10_n02133161_1490.png
subject-01,1,295,1.03417491912842,truck,truck,10,0295_lp_s01_10_truck_10_n03796401_28465.png
subject-01,1,296,1.07196497917175,bottle,bottle,15,0296_lp_s01_15_bottle_10_n02823428_6627.png
subject-01,1,297,0.870162010192871,truck,truck,5,0297_lp_s01_5_truck_10_n04467665_69582.png
subject-01,1,298,1.05584001541138,clock,bird,40,0298_lp_s01_40_bird_10_n02006656_10568.png
subject-01,1,299,1.50004506111145,airplane,car,40,0299_lp_s01_40_car_10_n04285008_11748.png
subject-01,1,300,0.939242839813232,truck,truck,5,0300_lp_s01_5_truck_10_n04467665_44714.png
subject-01,1,301,0.724967002868652,airplane,airplane,3,0301_lp_s01_3_airplane_10_n02690373_7487.png
subject-01,1,302,1.18319296836853,bird,elephant,15,0302_lp_s01_15_elephant_10_n02504458_7472.png
subject-01,1,303,0.946524858474731,boat,boat,3,0303_lp_s01_3_boat_10_n03662601_25023.png
subject-01,1,304,1.23849701881409,knife,knife,0,0304_lp_s01_0_knife_10_n03041632_101673.png
subject-01,1,305,1.05415296554565,bottle,bottle,7,0305_lp_s01_7_bottle_10_n03983396_587.png
subject-01,1,306,1.32631683349609,bottle,cat,3,0306_lp_s01_3_cat_10_n02124075_7692.png
subject-01,1,307,0.694344997406006,oven,oven,0,0307_lp_s01_0_oven_10_n04111531_6313.png
subject-01,1,308,1.00569009780884,bird,bird,7,0308_lp_s01_7_bird_10_n02018795_5770.png
subject-01,1,309,0.771369934082031,bottle,bottle,3,0309_lp_s01_3_bottle_10_n02823428_4658.png
subject-01,1,310,0.715744972229004,airplane,airplane,1,0310_lp_s01_1_airplane_10_n02690373_2724.png
subject-01,1,311,1.14296197891235,elephant,boat,40,0311_lp_s01_40_boat_10_n04612504_7446.png
subject-01,1,312,0.575005054473877,boat,boat,7,0312_lp_s01_7_boat_10_n02951358_34783.png
subject-01,1,313,0.822740077972412,cat,cat,0,0313_lp_s01_0_cat_10_n02123597_680.png
subject-01,1,314,1.11652112007141,bear,bear,10,0314_lp_s01_10_bear_10_n02133161_9863.png
subject-01,1,315,0.692276000976562,bear,bear,1,0315_lp_s01_1_bear_10_n02133161_2100.png
subject-01,1,316,1.09429407119751,oven,oven,3,0316_lp_s01_3_oven_10_n04111531_8009.png
subject-01,1,317,1.31991386413574,bear,car,40,0317_lp_s01_40_car_10_n03100240_16525.png
subject-01,1,318,1.00382304191589,bicycle,bird,5,0318_lp_s01_5_bird_10_n01824575_4941.png
subject-01,1,319,NaN,na,knife,15,0319_lp_s01_15_knife_10_n03041632_289.png
subject-01,1,320,NaN,na,dog,10,0320_lp_s01_10_dog_10_n02101006_15350.png
subject-01,1,321,1.01716804504395,cat,elephant,5,0321_lp_s01_5_elephant_10_n02504458_1636.png
subject-01,1,322,0.881173849105835,bird,car,7,0322_lp_s01_7_car_10_n04285008_8666.png
subject-01,1,323,0.864982843399048,bottle,bottle,5,0323_lp_s01_5_bottle_10_n02823428_5451.png
subject-01,1,324,0.876752138137817,car,car,3,0324_lp_s01_3_car_10_n03100240_2495.png
subject-01,1,325,0.896859884262085,boat,bicycle,10,0325_lp_s01_10_bicycle_10_n02835271_19565.png
subject-01,1,326,0.792557001113892,airplane,airplane,1,0326_lp_s01_1_airplane_10_n02690373_349.png
subject-01,1,327,0.626137971878052,cat,cat,7,0327_lp_s01_7_cat_10_n02123045_20512.png
subject-01,1,328,0.989798069000244,keyboard,keyboard,1,0328_lp_s01_1_keyboard_10_n03085013_23619.png
subject-01,1,329,0.689780950546265,boat,boat,7,0329_lp_s01_7_boat_10_n03662601_16925.png
subject-01,1,330,0.703385829925537,oven,oven,10,0330_lp_s01_10_oven_10_n04111531_12830.png
subject-01,1,331,0.613661050796509,boat,boat,5,0331_lp_s01_5_boat_10_n02951358_33277.png
subject-01,1,332,0.951183080673218,cat,bear,15,0332_lp_s01_15_bear_10_n02133161_156.png
subject-01,1,333,1.15291500091553,car,cat,40,0333_lp_s01_40_cat_10_n02124075_6638.png
subject-01,1,334,0.946654081344604,oven,keyboard,10,0334_lp_s01_10_keyboard_10_n04505470_4587.png
subject-01,1,335,1.35063505172729,bear,bear,10,0335_lp_s01_10_bear_10_n02134084_27899.png
subject-01,1,336,0.840343952178955,keyboard,keyboard,0,0336_lp_s01_0_keyboard_10_n03085013_10984.png
subject-01,1,337,0.688232898712158,bottle,bottle,5,0337_lp_s01_5_bottle_10_n03983396_10469.png
subject-01,1,338,1.07807016372681,bicycle,knife,10,0338_lp_s01_10_knife_10_n03041632_20707.png
subject-01,1,339,0.864272117614746,car,car,1,0339_lp_s01_1_car_10_n04285008_9411.png
subject-01,1,340,1.1956639289856,clock,airplane,40,0340_lp_s01_40_airplane_10_n02690373_4671.png
subject-01,1,341,0.959488868713379,airplane,knife,7,0341_lp_s01_7_knife_10_n03041632_16206.png
subject-01,1,342,0.76171088218689,bicycle,bicycle,5,0342_lp_s01_5_bicycle_10_n03792782_7180.png
subject-01,1,343,1.17300701141357,bear,bear,0,0343_lp_s01_0_bear_10_n02134418_2719.png
subject-01,1,344,0.636791229248047,chair,chair,0,0344_lp_s01_0_chair_10_n04099969_2038.png
subject-01,1,345,0.930801868438721,dog,dog,1,0345_lp_s01_1_dog_10_n02113023_5237.png
subject-01,1,346,0.958404064178467,car,airplane,40,0346_lp_s01_40_airplane_10_n02690373_2525.png
subject-01,1,347,0.714330911636353,clock,clock,7,0347_lp_s01_7_clock_10_n04548280_219.png
subject-01,1,348,1.05403780937195,bicycle,boat,15,0348_lp_s01_15_boat_10_n04612504_2805.png
subject-01,1,349,0.630084991455078,clock,clock,7,0349_lp_s01_7_clock_10_n02708093_7020.png
subject-01,1,350,1.01166391372681,oven,oven,3,0350_lp_s01_3_oven_10_n04111531_5171.png
subject-01,1,351,0.969798803329468,cat,cat,3,0351_lp_s01_3_cat_10_n02125311_37322.png
subject-01,1,352,1.50012707710266,car,cat,7,0352_lp_s01_7_cat_10_n02123597_14094.png
subject-01,1,353,1.19920301437378,cat,boat,15,0353_lp_s01_15_boat_10_n02951358_13352.png
subject-01,1,354,0.837135076522827,bicycle,bicycle,10,0354_lp_s01_10_bicycle_10_n02835271_20445.png
subject-01,1,355,0.74685001373291,keyboard,knife,7,0355_lp_s01_7_knife_10_n03041632_4708.png
subject-01,1,356,0.908565044403076,oven,oven,7,0356_lp_s01_7_oven_10_n04111531_505.png
subject-01,1,357,0.73670506477356,bicycle,bicycle,1,0357_lp_s01_1_bicycle_10_n03792782_104.png
subject-01,1,358,1.23456406593323,truck,bottle,40,0358_lp_s01_40_bottle_10_n04591713_5204.png
subject-01,1,359,0.832128047943115,bicycle,bicycle,5,0359_lp_s01_5_bicycle_10_n03792782_5578.png
subject-01,1,360,1.12611293792725,bicycle,truck,10,0360_lp_s01_10_truck_10_n03417042_1437.png
subject-01,1,361,1.21376490592957,bear,cat,0,0361_lp_s01_0_cat_10_n02123045_7482.png
subject-01,1,362,1.27377605438232,elephant,bird,10,0362_lp_s01_10_bird_10_n02037110_554.png
subject-01,1,363,1.03520202636719,bear,bicycle,5,0363_lp_s01_5_bicycle_10_n03792782_15.png
subject-01,1,364,0.939291000366211,bird,bicycle,5,0364_lp_s01_5_bicycle_10_n02835271_7450.png
subject-01,1,365,0.636829137802124,boat,boat,5,0365_lp_s01_5_boat_10_n03344393_3881.png
subject-01,1,366,0.885220050811768,cat,chair,10,0366_lp_s01_10_chair_10_n04099969_3623.png
subject-01,1,367,0.890646934509277,airplane,airplane,5,0367_lp_s01_5_airplane_10_n02690373_2579.png
subject-01,1,368,1.37477493286133,car,dog,15,0368_lp_s01_15_dog_10_n02093859_3707.png
subject-01,1,369,1.10669708251953,bottle,bottle,1,0369_lp_s01_1_bottle_10_n04560804_22426.png
subject-01,1,370,0.916211843490601,dog,clock,15,0370_lp_s01_15_clock_10_n03196217_82.png
subject-01,1,371,0.973903894424438,car,car,5,0371_lp_s01_5_car_10_n03100240_16907.png
subject-01,1,372,1.32351994514465,bear,oven,5,0372_lp_s01_5_oven_10_n04111531_9548.png
subject-01,1,373,0.68742299079895,clock,clock,7,0373_lp_s01_7_clock_10_n02708093_3751.png
subject-01,1,374,0.895461082458496,car,car,7,0374_lp_s01_7_car_10_n02814533_6593.png
subject-01,1,375,0.791019916534424,airplane,airplane,0,0375_lp_s01_0_airplane_10_n02690373_3212.png
subject-01,1,376,0.842898845672607,bottle,cat,1,0376_lp_s01_1_cat_10_n02123045_5820.png
subject-01,1,377,1.00501704216003,elephant,elephant,3,0377_lp_s01_3_elephant_10_n02504458_205.png
subject-01,1,378,1.36242413520813,car,elephant,10,0378_lp_s01_10_elephant_10_n02504013_3425.png
subject-01,1,379,1.30230402946472,clock,bird,15,0379_lp_s01_15_bird_10_n02056570_9572.png
subject-01,1,380,0.940229892730713,truck,elephant,40,0380_lp_s01_40_elephant_10_n02504013_7635.png
subject-01,1,381,1.39804100990295,bear,boat,10,0381_lp_s01_10_boat_10_n04273569_10716.png
subject-01,1,382,0.993646144866943,cat,bear,15,0382_lp_s01_15_bear_10_n02134084_19849.png
subject-01,1,383,0.843449115753174,bird,boat,40,0383_lp_s01_40_boat_10_n03662601_35800.png
subject-01,1,384,1.11563014984131,oven,bicycle,40,0384_lp_s01_40_bicycle_10_n03792782_29276.png
subject-01,1,385,1.50006794929504,keyboard,oven,10,0385_lp_s01_10_oven_10_n04111531_4392.png
subject-01,1,386,0.765212059020996,airplane,airplane,0,0386_lp_s01_0_airplane_10_n02690373_7099.png
subject-01,1,387,1.04314398765564,bear,cat,5,0387_lp_s01_5_cat_10_n02124075_13187.png
subject-01,1,388,0.986694097518921,knife,knife,0,0388_lp_s01_0_knife_10_n03041632_32048.png
subject-01,1,389,0.826411008834839,airplane,airplane,3,0389_lp_s01_3_airplane_10_n02690373_20074.png
subject-01,1,390,0.668249130249023,car,car,1,0390_lp_s01_1_car_10_n02814533_83577.png
subject-01,1,391,1.20390200614929,car,airplane,40,0391_lp_s01_40_airplane_10_n02690373_19134.png
subject-01,1,392,0.844105005264282,knife,knife,3,0392_lp_s01_3_knife_10_n03041632_13130.png
subject-01,1,393,1.00356602668762,knife,knife,0,0393_lp_s01_0_knife_10_n03041632_1006.png
subject-01,1,394,1.00131893157959,elephant,elephant,1,0394_lp_s01_1_elephant_10_n02504458_7634.png
subject-01,1,395,0.647212028503418,bicycle,bicycle,1,0395_lp_s01_1_bicycle_10_n02835271_17184.png
subject-01,1,396,0.94126296043396,bottle,oven,0,0396_lp_s01_0_oven_10_n04111531_2189.png
subject-01,1,397,1.20480608940125,boat,cat,15,0397_lp_s01_15_cat_10_n02124075_11888.png
subject-01,1,398,0.840742111206055,bicycle,cat,10,0398_lp_s01_10_cat_10_n02123394_1690.png
subject-01,1,399,0.722722053527832,dog,dog,1,0399_lp_s01_1_dog_10_n02111500_2905.png
subject-01,1,400,1.21259188652039,bicycle,knife,5,0400_lp_s01_5_knife_10_n03041632_20433.png
subject-01,1,401,0.590049028396606,clock,clock,15,0401_lp_s01_15_clock_10_n04548280_22641.png
subject-01,1,402,0.931643009185791,cat,bottle,15,0402_lp_s01_15_bottle_10_n04557648_634.png
subject-01,1,403,0.803377866744995,truck,truck,1,0403_lp_s01_1_truck_10_n04467665_69447.png
subject-01,1,404,0.791079044342041,elephant,elephant,3,0404_lp_s01_3_elephant_10_n02504013_1777.png
subject-01,1,405,0.785156011581421,truck,truck,0,0405_lp_s01_0_truck_10_n03796401_2559.png
subject-01,1,406,1.18265986442566,car,car,1,0406_lp_s01_1_car_10_n02814533_42547.png
subject-01,1,407,1.03882694244385,boat,clock,15,0407_lp_s01_15_clock_10_n04548280_7181.png
subject-01,1,408,0.594685792922974,boat,boat,1,0408_lp_s01_1_boat_10_n03344393_5030.png
subject-01,1,409,1.06621885299683,bear,bottle,15,0409_lp_s01_15_bottle_10_n04591713_2952.png
subject-01,1,410,0.828385829925537,keyboard,keyboard,5,0410_lp_s01_5_keyboard_10_n04505470_4742.png
subject-01,1,411,0.738133907318115,bear,bear,7,0411_lp_s01_7_bear_10_n02134418_4696.png
subject-01,1,412,1.23798179626465,cat,bear,40,0412_lp_s01_40_bear_10_n02132136_5815.png
subject-01,1,413,1.10331511497498,elephant,bicycle,15,0413_lp_s01_15_bicycle_10_n02835271_8203.png
subject-01,1,414,1.15538191795349,cat,car,40,0414_lp_s01_40_car_10_n04285008_12868.png
subject-01,1,415,0.86699104309082,dog,bear,40,0415_lp_s01_40_bear_10_n02132136_7074.png
subject-01,1,416,0.653156995773315,boat,boat,3,0416_lp_s01_3_boat_10_n03344393_8265.png
subject-01,1,417,0.862573146820068,truck,truck,10,0417_lp_s01_10_truck_10_n04467665_12177.png
subject-01,1,418,0.664524078369141,car,car,3,0418_lp_s01_3_car_10_n03100240_8987.png
subject-01,1,419,1.39632201194763,bird,bird,15,0419_lp_s01_15_bird_10_n01530575_10601.png
subject-01,1,420,0.784073829650879,keyboard,keyboard,15,0420_lp_s01_15_keyboard_10_n04505470_313.png
subject-01,1,421,0.844052076339722,car,truck,1,0421_lp_s01_1_truck_10_n03417042_5371.png
subject-01,1,422,0.739715814590454,truck,truck,0,0422_lp_s01_0_truck_10_n03796401_29952.png
subject-01,1,423,0.565578937530518,bicycle,bicycle,5,0423_lp_s01_5_bicycle_10_n03792782_6159.png
subject-01,1,424,0.78925895690918,elephant,elephant,7,0424_lp_s01_7_elephant_10_n02504458_1336.png
subject-01,1,425,0.841166973114014,bicycle,bicycle,10,0425_lp_s01_10_bicycle_10_n02835271_8597.png
subject-01,1,426,0.847033977508545,keyboard,keyboard,3,0426_lp_s01_3_keyboard_10_n04505470_3615.png
subject-01,1,427,0.907033205032349,dog,dog,7,0427_lp_s01_7_dog_10_n02090721_7040.png
subject-01,1,428,0.614683866500854,cat,cat,0,0428_lp_s01_0_cat_10_n02124075_17347.png
subject-01,1,429,0.8125159740448,keyboard,keyboard,0,0429_lp_s01_0_keyboard_10_n03085013_23018.png
subject-01,1,430,0.96429705619812,car,car,40,0430_lp_s01_40_car_10_n03100240_5018.png
subject-01,1,431,0.978207111358643,oven,dog,40,0431_lp_s01_40_dog_10_n02105056_12631.png
subject-01,1,432,0.895740032196045,cat,knife,15,0432_lp_s01_15_knife_10_n03041632_27848.png
subject-01,1,433,0.905735969543457,keyboard,keyboard,3,0433_lp_s01_3_keyboard_10_n04505470_4432.png
subject-01,1,434,0.89543604850769,bird,bear,15,0434_lp_s01_15_bear_10_n02132136_786.png
subject-01,1,435,0.775082111358643,keyboard,truck,15,0435_lp_s01_15_truck_10_n03796401_10519.png
subject-01,1,436,0.825333833694458,airplane,airplane,5,0436_lp_s01_5_airplane_10_n02690373_9086.png
subject-01,1,437,0.650990962982178,boat,boat,0,0437_lp_s01_0_boat_10_n02951358_512.png
subject-01,1,438,0.758833885192871,bear,bear,10,0438_lp_s01_10_bear_10_n02132136_10468.png
subject-01,1,439,1.01878714561462,cat,bear,5,0439_lp_s01_5_bear_10_n02134084_13175.png
subject-01,1,440,1.18847608566284,bicycle,dog,10,0440_lp_s01_10_dog_10_n02088364_2119.png
subject-01,1,441,0.72222113609314,boat,boat,1,0441_lp_s01_1_boat_10_n04612504_26238.png
subject-01,1,442,1.0960910320282,boat,bear,3,0442_lp_s01_3_bear_10_n02134084_20142.png
subject-01,1,443,0.77989387512207,dog,dog,5,0443_lp_s01_5_dog_10_n02107683_1076.png
subject-01,1,444,1.0894730091095,car,car,3,0444_lp_s01_3_car_10_n02814533_35386.png
subject-01,1,445,NaN,na,bird,3,0445_lp_s01_3_bird_10_n01531178_15380.png
subject-01,1,446,0.863393068313599,car,bear,7,0446_lp_s01_7_bear_10_n02134084_17529.png
subject-01,1,447,1.05713486671448,bicycle,bicycle,10,0447_lp_s01_10_bicycle_10_n02835271_22623.png
subject-01,1,448,0.978924989700317,cat,chair,15,0448_lp_s01_15_chair_10_n02791124_3160.png
subject-01,1,449,0.796621084213257,bottle,bottle,0,0449_lp_s01_0_bottle_10_n02823428_2422.png
subject-01,1,450,1.16858291625977,bicycle,bear,7,0450_lp_s01_7_bear_10_n02134084_34902.png
subject-01,1,451,0.862406015396118,bottle,bicycle,15,0451_lp_s01_15_bicycle_10_n02835271_3535.png
subject-01,1,452,0.726104974746704,oven,oven,1,0452_lp_s01_1_oven_10_n04111531_10640.png
subject-01,1,453,1.13223099708557,knife,keyboard,40,0453_lp_s01_40_keyboard_10_n04505470_1338.png
subject-01,1,454,1.0976939201355,keyboard,keyboard,0,0454_lp_s01_0_keyboard_10_n03085013_26656.png
subject-01,1,455,1.02548289299011,bicycle,boat,5,0455_lp_s01_5_boat_10_n03344393_9575.png
subject-01,1,456,0.747390985488892,boat,boat,1,0456_lp_s01_1_boat_10_n03344393_4616.png
subject-01,1,457,0.961225986480713,bicycle,bicycle,0,0457_lp_s01_0_bicycle_10_n02835271_11929.png
subject-01,1,458,0.715411901473999,keyboard,keyboard,3,0458_lp_s01_3_keyboard_10_n03085013_20515.png
subject-01,1,459,0.798724174499512,car,dog,40,0459_lp_s01_40_dog_10_n02088364_3791.png
subject-01,1,460,0.718729019165039,airplane,airplane,0,0460_lp_s01_0_airplane_10_n02690373_10114.png
subject-01,1,461,0.88836407661438,airplane,airplane,10,0461_lp_s01_10_airplane_10_n02690373_8543.png
subject-01,1,462,1.22227311134338,chair,chair,7,0462_lp_s01_7_chair_10_n04429376_14967.png
subject-01,1,463,1.02417492866516,bear,cat,15,0463_lp_s01_15_cat_10_n02125311_24439.png
subject-01,1,464,0.740041017532349,car,truck,5,0464_lp_s01_5_truck_10_n03417042_4665.png
subject-01,1,465,0.971566915512085,truck,elephant,40,0465_lp_s01_40_elephant_10_n02504013_4044.png
subject-01,1,466,0.811623811721802,bird,bird,1,0466_lp_s01_1_bird_10_n01843065_3596.png
subject-01,1,467,1.08327078819275,cat,bird,10,0467_lp_s01_10_bird_10_n02011460_17499.png
subject-01,1,468,0.728975057601929,elephant,elephant,0,0468_lp_s01_0_elephant_10_n02504458_7506.png
subject-01,1,469,1.094801902771,oven,keyboard,40,0469_lp_s01_40_keyboard_10_n03085013_21955.png
subject-01,1,470,0.912764072418213,bicycle,clock,40,0470_lp_s01_40_clock_10_n02708093_7810.png
subject-01,1,471,1.10241603851318,bear,car,40,0471_lp_s01_40_car_10_n02814533_7984.png
subject-01,1,472,0.966410160064697,bicycle,dog,5,0472_lp_s01_5_dog_10_n02106382_1806.png
subject-01,1,473,0.860211849212646,car,chair,15,0473_lp_s01_15_chair_10_n02791124_3890.png
subject-01,1,474,0.842387914657593,elephant,elephant,7,0474_lp_s01_7_elephant_10_n02504013_16929.png
subject-01,1,475,0.934123992919922,elephant,elephant,7,0475_lp_s01_7_elephant_10_n02504013_8052.png
subject-01,1,476,1.00970196723938,bear,bear,1,0476_lp_s01_1_bear_10_n02132136_1584.png
subject-01,1,477,0.663415908813477,keyboard,keyboard,1,0477_lp_s01_1_keyboard_10_n04505470_532.png
subject-01,1,478,0.847220182418823,airplane,airplane,1,0478_lp_s01_1_airplane_10_n02690373_3988.png
subject-01,1,479,1.08695793151855,car,bicycle,15,0479_lp_s01_15_bicycle_10_n03792782_13051.png
subject-01,1,480,0.969012022018433,bear,bear,3,0480_lp_s01_3_bear_10_n02134084_4818.png
subject-01,1,481,0.814005136489868,boat,boat,10,0481_lp_s01_10_boat_10_n02951358_9146.png
subject-01,1,482,1.09361100196838,bear,keyboard,40,0482_lp_s01_40_keyboard_10_n03085013_19317.png
subject-01,1,483,0.997550964355469,oven,bicycle,40,0483_lp_s01_40_bicycle_10_n03792782_17666.png
subject-01,1,484,0.965264081954956,bear,bear,40,0484_lp_s01_40_bear_10_n02133161_20090.png
subject-01,1,485,1.32088303565979,bird,bottle,3,0485_lp_s01_3_bottle_10_n03937543_11101.png
subject-01,1,486,0.86278510093689,bear,bear,7,0486_lp_s01_7_bear_10_n02133161_2281.png
subject-01,1,487,1.01668310165405,keyboard,airplane,10,0487_lp_s01_10_airplane_10_n02690373_8813.png
subject-01,1,488,1.00443196296692,car,boat,40,0488_lp_s01_40_boat_10_n03662601_33625.png
subject-01,1,489,1.40439581871033,truck,cat,40,0489_lp_s01_40_cat_10_n02124075_9066.png
subject-01,1,490,1.1199848651886,bicycle,oven,3,0490_lp_s01_3_oven_10_n04111531_10216.png
subject-01,1,491,1.28178405761719,elephant,bird,7,0491_lp_s01_7_bird_10_n01614925_1097.png
subject-01,1,492,0.763706922531128,bird,bird,0,0492_lp_s01_0_bird_10_n02017213_1163.png
subject-01,1,493,1.00344300270081,car,oven,40,0493_lp_s01_40_oven_10_n04111531_283.png
subject-01,1,494,1.02145195007324,oven,truck,15,0494_lp_s01_15_truck_10_n04467665_39317.png
subject-01,1,495,1.45937705039978,dog,dog,1,0495_lp_s01_1_dog_10_n02093754_5037.png
subject-01,1,496,1.22880816459656,oven,bicycle,40,0496_lp_s01_40_bicycle_10_n02835271_2580.png
subject-01,1,497,0.966930866241455,airplane,airplane,7,0497_lp_s01_7_airplane_10_n02690373_2564.png
subject-01,1,498,0.910469055175781,car,truck,40,0498_lp_s01_40_truck_10_n04467665_62626.png
subject-01,1,499,1.02645206451416,oven,chair,10,0499_lp_s01_10_chair_10_n04429376_2450.png
subject-01,1,500,0.664096832275391,keyboard,keyboard,0,0500_lp_s01_0_keyboard_10_n04505470_4044.png
subject-01,1,501,0.894327163696289,oven,oven,15,0501_lp_s01_15_oven_10_n04111531_8269.png
subject-01,1,502,1.01567697525024,clock,clock,7,0502_lp_s01_7_clock_10_n02708093_6890.png
subject-01,1,503,1.10950422286987,car,oven,40,0503_lp_s01_40_oven_10_n04111531_15947.png
subject-01,1,504,0.88779616355896,bicycle,bicycle,15,0504_lp_s01_15_bicycle_10_n03792782_24734.png
subject-01,1,505,0.949275970458984,cat,chair,40,0505_lp_s01_40_chair_10_n04099969_10401.png
subject-01,1,506,0.779367923736572,elephant,elephant,3,0506_lp_s01_3_elephant_10_n02504458_2994.png
subject-01,1,507,0.900895118713379,dog,dog,0,0507_lp_s01_0_dog_10_n02108422_1164.png
subject-01,1,508,0.780661821365356,clock,clock,5,0508_lp_s01_5_clock_10_n04548280_2421.png
subject-01,1,509,1.1143319606781,cat,oven,5,0509_lp_s01_5_oven_10_n04111531_2930.png
subject-01,1,510,0.752230882644653,bear,bear,1,0510_lp_s01_1_bear_10_n02132136_4271.png
subject-01,1,511,1.12619304656982,knife,oven,7,0511_lp_s01_7_oven_10_n04111531_8603.png
subject-01,1,512,0.763808012008667,bottle,bicycle,40,0512_lp_s01_40_bicycle_10_n02835271_16850.png
subject-01,1,513,0.776087045669556,knife,knife,3,0513_lp_s01_3_knife_10_n03041632_47410.png
subject-01,1,514,1.08761978149414,boat,elephant,15,0514_lp_s01_15_elephant_10_n02504458_1000.png
subject-01,1,515,0.615584850311279,cat,cat,1,0515_lp_s01_1_cat_10_n02124075_8884.png
subject-01,1,516,1.39529204368591,bird,bird,7,0516_lp_s01_7_bird_10_n01622779_1370.png
subject-01,1,517,0.624918937683105,cat,cat,0,0517_lp_s01_0_cat_10_n02123045_8215.png
subject-01,1,518,0.904808044433594,car,car,5,0518_lp_s01_5_car_10_n03100240_3083.png
subject-01,1,519,1.18249821662903,bicycle,bicycle,3,0519_lp_s01_3_bicycle_10_n03792782_9280.png
subject-01,1,520,1.03838300704956,bird,bird,5,0520_lp_s01_5_bird_10_n01819313_3505.png
subject-01,1,521,0.97614598274231,bottle,bird,15,0521_lp_s01_15_bird_10_n01531178_5130.png
subject-01,1,522,1.15039706230164,knife,clock,15,0522_lp_s01_15_clock_10_n02708093_2867.png
subject-01,1,523,1.12383008003235,cat,bear,7,0523_lp_s01_7_bear_10_n02134418_258.png
subject-01,1,524,0.975712060928345,bottle,bottle,1,0524_lp_s01_1_bottle_10_n02823428_8280.png
subject-01,1,525,1.03336095809937,bird,elephant,7,0525_lp_s01_7_elephant_10_n02504013_24811.png
subject-01,1,526,0.953084945678711,boat,bicycle,40,0526_lp_s01_40_bicycle_10_n02835271_14499.png
subject-01,1,527,0.716928005218506,bottle,bottle,0,0527_lp_s01_0_bottle_10_n02823428_14536.png
subject-01,1,528,1.10504198074341,knife,knife,5,0528_lp_s01_5_knife_10_n03041632_21723.png
subject-01,1,529,1.25069499015808,car,cat,10,0529_lp_s01_10_cat_10_n02123159_8396.png
subject-01,1,530,1.21658897399902,boat,bottle,40,0530_lp_s01_40_bottle_10_n02823428_3486.png
subject-01,1,531,0.804292917251587,bird,bird,0,0531_lp_s01_0_bird_10_n01514859_12705.png
subject-01,1,532,0.914292097091675,dog,dog,7,0532_lp_s01_7_dog_10_n02097047_911.png
subject-01,1,533,0.957821130752563,car,keyboard,10,0533_lp_s01_10_keyboard_10_n04505470_3132.png
subject-01,1,534,0.795740127563477,airplane,airplane,1,0534_lp_s01_1_airplane_10_n02690373_11908.png
subject-01,1,535,0.927757978439331,boat,elephant,40,0535_lp_s01_40_elephant_10_n02504458_5169.png
subject-01,1,536,0.859547138214111,knife,bottle,15,0536_lp_s01_15_bottle_10_n03937543_5375.png
subject-01,1,537,0.755234956741333,bottle,bottle,1,0537_lp_s01_1_bottle_10_n04591713_6138.png
subject-01,1,538,0.699030160903931,boat,bottle,15,0538_lp_s01_15_bottle_10_n04557648_12559.png
subject-01,1,539,0.831151962280273,car,clock,40,0539_lp_s01_40_clock_10_n03196217_3903.png
subject-01,1,540,1.04457116127014,oven,keyboard,15,0540_lp_s01_15_keyboard_10_n04505470_4732.png
subject-01,1,541,1.07453894615173,car,knife,40,0541_lp_s01_40_knife_10_n03041632_8468.png
subject-01,1,542,1.1423659324646,oven,chair,3,0542_lp_s01_3_chair_10_n02791124_14040.png
subject-01,1,543,0.646095037460327,boat,boat,15,0543_lp_s01_15_boat_10_n04273569_3095.png
subject-01,1,544,0.937923192977905,bird,bird,1,0544_lp_s01_1_bird_10_n02002724_18548.png
subject-01,1,545,1.00556492805481,chair,oven,10,0545_lp_s01_10_oven_10_n04111531_8537.png
subject-01,1,546,1.29364585876465,truck,chair,40,0546_lp_s01_40_chair_10_n02791124_1935.png
subject-01,1,547,0.743290901184082,dog,dog,5,0547_lp_s01_5_dog_10_n02102040_1660.png
subject-01,1,548,0.827221870422363,bear,bear,0,0548_lp_s01_0_bear_10_n02134084_7790.png
subject-01,1,549,1.14496803283691,oven,knife,10,0549_lp_s01_10_knife_10_n03041632_17091.png
subject-01,1,550,1.11872696876526,chair,keyboard,5,0550_lp_s01_5_keyboard_10_n04505470_9331.png
subject-01,1,551,0.858615159988403,airplane,airplane,5,0551_lp_s01_5_airplane_10_n02690373_6887.png
subject-01,1,552,1.30839395523071,bottle,chair,1,0552_lp_s01_1_chair_10_n02791124_2540.png
subject-01,1,553,0.906718969345093,truck,truck,3,0553_lp_s01_3_truck_10_n03796401_23774.png
subject-01,1,554,0.842072010040283,car,knife,40,0554_lp_s01_40_knife_10_n03041632_28201.png
subject-01,1,555,0.73584508895874,clock,clock,5,0555_lp_s01_5_clock_10_n04548280_3563.png
subject-01,1,556,0.803668975830078,bicycle,bicycle,0,0556_lp_s01_0_bicycle_10_n03792782_8287.png
subject-01,1,557,0.597524881362915,clock,clock,3,0557_lp_s01_3_clock_10_n04548280_4225.png
subject-01,1,558,0.873614072799683,car,car,0,0558_lp_s01_0_car_10_n04285008_11931.png
subject-01,1,559,0.94317889213562,bear,elephant,5,0559_lp_s01_5_elephant_10_n02504013_9396.png
subject-01,1,560,1.23274803161621,keyboard,boat,40,0560_lp_s01_40_boat_10_n03344393_2915.png
subject-01,1,561,0.883669853210449,bicycle,bicycle,7,0561_lp_s01_7_bicycle_10_n03792782_9692.png
subject-01,1,562,0.865792036056519,car,chair,7,0562_lp_s01_7_chair_10_n02791124_57.png
subject-01,1,563,1.22528600692749,car,car,40,0563_lp_s01_40_car_10_n04285008_3185.png
subject-01,1,564,0.807181119918823,boat,boat,1,0564_lp_s01_1_boat_10_n02951358_34917.png
subject-01,1,565,0.630690813064575,clock,clock,0,0565_lp_s01_0_clock_10_n02708093_2762.png
subject-01,1,566,0.832751989364624,knife,knife,5,0566_lp_s01_5_knife_10_n03041632_4879.png
subject-01,1,567,0.782364130020142,car,car,0,0567_lp_s01_0_car_10_n02814533_4689.png
subject-01,1,568,0.570436954498291,boat,boat,1,0568_lp_s01_1_boat_10_n02951358_2445.png
subject-01,1,569,1.26218295097351,oven,truck,40,0569_lp_s01_40_truck_10_n03417042_10038.png
subject-01,1,570,0.633903026580811,car,car,10,0570_lp_s01_10_car_10_n02814533_32924.png
subject-01,1,571,1.17769002914429,oven,bottle,10,0571_lp_s01_10_bottle_10_n02823428_5135.png
subject-01,1,572,0.835702896118164,keyboard,keyboard,1,0572_lp_s01_1_keyboard_10_n03085013_9066.png
subject-01,1,573,1.13750195503235,car,oven,10,0573_lp_s01_10_oven_10_n04111531_11279.png
subject-01,1,574,0.979231119155884,car,car,10,0574_lp_s01_10_car_10_n04285008_12182.png
subject-01,1,575,1.05281591415405,bird,bear,0,0575_lp_s01_0_bear_10_n02133161_5681.png
subject-01,1,576,0.880660057067871,dog,dog,5,0576_lp_s01_5_dog_10_n02108915_5514.png
subject-01,1,577,0.936477899551392,boat,airplane,15,0577_lp_s01_15_airplane_10_n02690373_7239.png
subject-01,1,578,0.800487995147705,dog,dog,0,0578_lp_s01_0_dog_10_n02094258_4979.png
subject-01,1,579,0.812368869781494,chair,chair,3,0579_lp_s01_3_chair_10_n04429376_15078.png
subject-01,1,580,1.0140528678894,bear,clock,40,0580_lp_s01_40_clock_10_n02708093_8276.png
subject-01,1,581,0.767966032028198,keyboard,keyboard,3,0581_lp_s01_3_keyboard_10_n04505470_3947.png
subject-01,1,582,0.685646057128906,car,car,15,0582_lp_s01_15_car_10_n03100240_2996.png
subject-01,1,583,0.927418947219849,cat,cat,10,0583_lp_s01_10_cat_10_n02123159_3226.png
subject-01,1,584,1.38331604003906,knife,truck,7,0584_lp_s01_7_truck_10_n03417042_19905.png
subject-01,1,585,0.81543493270874,bear,bird,0,0585_lp_s01_0_bird_10_n02009229_4838.png
subject-01,1,586,0.730894804000854,oven,oven,1,0586_lp_s01_1_oven_10_n04111531_14383.png
subject-01,1,587,0.947102069854736,bird,bear,5,0587_lp_s01_5_bear_10_n02132136_1152.png
subject-01,1,588,0.568517923355103,cat,cat,0,0588_lp_s01_0_cat_10_n02123597_10952.png
subject-01,1,589,0.618309020996094,boat,boat,0,0589_lp_s01_0_boat_10_n04273569_12318.png
subject-01,1,590,1.00830292701721,oven,bottle,40,0590_lp_s01_40_bottle_10_n03937543_1391.png
subject-01,1,591,0.979882001876831,bear,dog,10,0591_lp_s01_10_dog_10_n02091032_9464.png
subject-01,1,592,0.923617839813232,keyboard,oven,7,0592_lp_s01_7_oven_10_n04111531_5218.png
subject-01,1,593,0.787729024887085,car,airplane,5,0593_lp_s01_5_airplane_10_n02690373_9423.png
subject-01,1,594,0.785305976867676,bird,bird,1,0594_lp_s01_1_bird_10_n01860187_348.png
subject-01,1,595,1.19735407829285,bicycle,bird,40,0595_lp_s01_40_bird_10_n02006656_8975.png
subject-01,1,596,0.985017061233521,bottle,oven,10,0596_lp_s01_10_oven_10_n04111531_7619.png
subject-01,1,597,0.730759859085083,bicycle,bicycle,3,0597_lp_s01_3_bicycle_10_n02835271_9202.png
subject-01,1,598,0.634844064712524,boat,boat,10,0598_lp_s01_10_boat_10_n03344393_7826.png
subject-01,1,599,0.834730863571167,elephant,elephant,3,0599_lp_s01_3_elephant_10_n02504013_10330.png
subject-01,1,600,0.934570074081421,truck,truck,10,0600_lp_s01_10_truck_10_n04467665_69202.png
subject-01,1,601,0.734447956085205,keyboard,keyboard,7,0601_lp_s01_7_keyboard_10_n04505470_1120.png
subject-01,1,602,0.645979166030884,car,car,5,0602_lp_s01_5_car_10_n04285008_434.png
subject-01,1,603,1.24575209617615,cat,cat,1,0603_lp_s01_1_cat_10_n02123597_7592.png
subject-01,1,604,0.8995521068573,dog,dog,15,0604_lp_s01_15_dog_10_n02090721_583.png
subject-01,1,605,1.28733515739441,knife,knife,1,0605_lp_s01_1_knife_10_n03041632_86783.png
subject-01,1,606,0.895214080810547,bicycle,dog,10,0606_lp_s01_10_dog_10_n02112018_11708.png
subject-01,1,607,1.04695701599121,bird,bird,0,0607_lp_s01_0_bird_10_n02018795_5662.png
subject-01,1,608,1.29890489578247,bear,elephant,5,0608_lp_s01_5_elephant_10_n02504013_1088.png
subject-01,1,609,0.724594831466675,elephant,elephant,5,0609_lp_s01_5_elephant_10_n02504458_66.png
subject-01,1,610,0.848326921463013,bicycle,dog,10,0610_lp_s01_10_dog_10_n02105056_9099.png
subject-01,1,611,0.682124137878418,boat,boat,10,0611_lp_s01_10_boat_10_n04273569_19699.png
subject-01,1,612,0.716267824172974,dog,dog,1,0612_lp_s01_1_dog_10_n02097047_2376.png
subject-01,1,613,0.641810894012451,boat,boat,1,0613_lp_s01_1_boat_10_n03662601_11901.png
subject-01,1,614,1.31962490081787,knife,oven,1,0614_lp_s01_1_oven_10_n04111531_7667.png
subject-01,1,615,0.925441980361938,bottle,knife,10,0615_lp_s01_10_knife_10_n03041632_24384.png
subject-01,1,616,0.719575166702271,car,car,7,0616_lp_s01_7_car_10_n03100240_1216.png
subject-01,1,617,0.803191184997559,bicycle,bicycle,0,0617_lp_s01_0_bicycle_10_n03792782_3136.png
subject-01,1,618,1.27707600593567,car,keyboard,5,0618_lp_s01_5_keyboard_10_n03085013_26573.png
subject-01,1,619,0.938802003860474,clock,chair,0,0619_lp_s01_0_chair_10_n04429376_7888.png
subject-01,1,620,0.6767258644104,chair,chair,5,0620_lp_s01_5_chair_10_n03376595_899.png
subject-01,1,621,1.49999284744263,airplane,bicycle,5,0621_lp_s01_5_bicycle_10_n02835271_24207.png
subject-01,1,622,0.758233070373535,oven,oven,3,0622_lp_s01_3_oven_10_n04111531_7329.png
subject-01,1,623,1.08205986022949,oven,oven,5,0623_lp_s01_5_oven_10_n04111531_12942.png
subject-01,1,624,1.15811204910278,dog,bear,15,0624_lp_s01_15_bear_10_n02134418_1978.png
subject-01,1,625,1.15357184410095,cat,cat,40,0625_lp_s01_40_cat_10_n02123159_5872.png
subject-01,1,626,1.05786204338074,boat,keyboard,15,0626_lp_s01_15_keyboard_10_n03085013_18797.png
subject-01,1,627,1.28522419929504,car,airplane,15,0627_lp_s01_15_airplane_10_n02690373_5496.png
subject-01,1,628,0.857082843780518,truck,oven,15,0628_lp_s01_15_oven_10_n04111531_21963.png
subject-01,1,629,0.702964782714844,bottle,bottle,0,0629_lp_s01_0_bottle_10_n02823428_2918.png
subject-01,1,630,1.26306915283203,keyboard,keyboard,10,0630_lp_s01_10_keyboard_10_n04505470_9570.png
subject-01,1,631,0.654532909393311,bird,bird,1,0631_lp_s01_1_bird_10_n02002556_5977.png
subject-01,1,632,1.12828087806702,bear,airplane,40,0632_lp_s01_40_airplane_10_n02690373_5961.png
subject-01,1,633,1.02402400970459,clock,clock,3,0633_lp_s01_3_clock_10_n04548280_5765.png
subject-01,1,634,1.38829612731934,bicycle,cat,15,0634_lp_s01_15_cat_10_n02123597_11940.png
subject-01,1,635,0.829601049423218,airplane,airplane,3,0635_lp_s01_3_airplane_10_n02690373_3993.png
subject-01,1,636,1.38159012794495,bottle,chair,7,0636_lp_s01_7_chair_10_n04099969_3984.png
subject-01,1,637,0.893435955047607,airplane,airplane,3,0637_lp_s01_3_airplane_10_n02690373_939.png
subject-01,1,638,0.693248987197876,car,car,1,0638_lp_s01_1_car_10_n02814533_48541.png
subject-01,1,639,0.714848041534424,oven,clock,10,0639_lp_s01_10_clock_10_n03196217_3986.png
subject-01,1,640,0.849018096923828,bottle,clock,7,0640_lp_s01_7_clock_10_n03196217_3006.png
subject-01,1,641,0.981441020965576,car,boat,40,0641_lp_s01_40_boat_10_n03662601_8947.png
subject-01,1,642,0.881493091583252,car,bear,40,0642_lp_s01_40_bear_10_n02132136_14346.png
subject-01,1,643,1.04131197929382,bear,elephant,10,0643_lp_s01_10_elephant_10_n02504458_3209.png
subject-01,1,644,0.850976943969727,dog,dog,3,0644_lp_s01_3_dog_10_n02088364_4980.png
subject-01,1,645,1.05071401596069,elephant,elephant,0,0645_lp_s01_0_elephant_10_n02504013_1187.png
subject-01,1,646,0.796538829803467,airplane,airplane,0,0646_lp_s01_0_airplane_10_n02690373_20690.png
subject-01,1,647,1.00259900093079,bicycle,bird,10,0647_lp_s01_10_bird_10_n01616318_2290.png
subject-01,1,648,0.752271890640259,bird,bird,1,0648_lp_s01_1_bird_10_n02051845_1935.png
subject-01,1,649,0.944112062454224,car,truck,0,0649_lp_s01_0_truck_10_n04467665_19131.png
subject-01,1,650,1.01788306236267,car,car,5,0650_lp_s01_5_car_10_n03100240_2138.png
subject-01,1,651,0.743882894515991,elephant,elephant,10,0651_lp_s01_10_elephant_10_n02504458_5197.png
subject-01,1,652,1.13946008682251,elephant,bird,5,0652_lp_s01_5_bird_10_n01819313_5504.png
subject-01,1,653,0.947190999984741,bird,bird,3,0653_lp_s01_3_bird_10_n01560419_1470.png
subject-01,1,654,0.712955951690674,airplane,airplane,3,0654_lp_s01_3_airplane_10_n02690373_8650.png
subject-01,1,655,0.96928596496582,car,bird,40,0655_lp_s01_40_bird_10_n02028035_1677.png
subject-01,1,656,1.11479306221008,clock,clock,1,0656_lp_s01_1_clock_10_n04548280_9700.png
subject-01,1,657,0.876902103424072,knife,knife,5,0657_lp_s01_5_knife_10_n03041632_5162.png
subject-01,1,658,1.21226096153259,car,airplane,10,0658_lp_s01_10_airplane_10_n02690373_13326.png
subject-01,1,659,0.878221988677979,bird,oven,3,0659_lp_s01_3_oven_10_n04111531_857.png
subject-01,1,660,1.30605101585388,boat,bottle,40,0660_lp_s01_40_bottle_10_n04560804_3392.png
subject-01,1,661,0.849913120269775,airplane,airplane,0,0661_lp_s01_0_airplane_10_n02690373_4269.png
subject-01,1,662,1.14957904815674,bicycle,bicycle,7,0662_lp_s01_7_bicycle_10_n02835271_12608.png
subject-01,1,663,0.721235036849976,elephant,elephant,1,0663_lp_s01_1_elephant_10_n02504458_4868.png
subject-01,1,664,0.953646898269653,bottle,chair,7,0664_lp_s01_7_chair_10_n03376595_11572.png
subject-01,1,665,1.16304397583008,bear,cat,10,0665_lp_s01_10_cat_10_n02123045_1754.png
subject-01,1,666,0.735040903091431,bottle,bottle,7,0666_lp_s01_7_bottle_10_n04560804_2002.png
subject-01,1,667,0.894925117492676,truck,truck,5,0667_lp_s01_5_truck_10_n03796401_4878.png
subject-01,1,668,1.50001692771912,car,bird,40,0668_lp_s01_40_bird_10_n02033041_4901.png
subject-01,1,669,1.41231894493103,bear,knife,40,0669_lp_s01_40_knife_10_n03041632_31932.png
subject-01,1,670,1.3001811504364,knife,knife,3,0670_lp_s01_3_knife_10_n03041632_9256.png
subject-01,1,671,1.35412907600403,oven,chair,5,0671_lp_s01_5_chair_10_n04429376_45302.png
subject-01,1,672,0.887636184692383,truck,truck,3,0672_lp_s01_3_truck_10_n03417042_5508.png
subject-01,1,673,0.769989967346191,chair,chair,5,0673_lp_s01_5_chair_10_n03376595_12326.png
subject-01,1,674,0.84338903427124,clock,clock,0,0674_lp_s01_0_clock_10_n04548280_4391.png
subject-01,1,675,0.821291923522949,car,car,10,0675_lp_s01_10_car_10_n03100240_4421.png
subject-01,1,676,1.33695888519287,dog,dog,3,0676_lp_s01_3_dog_10_n02111500_7233.png
subject-01,1,677,0.872856140136719,bottle,bottle,1,0677_lp_s01_1_bottle_10_n04591713_4232.png
subject-01,1,678,0.834590196609497,airplane,airplane,1,0678_lp_s01_1_airplane_10_n02690373_5010.png
subject-01,1,679,1.05842995643616,bear,bird,10,0679_lp_s01_10_bird_10_n01860187_27046.png
subject-01,1,680,1.30617213249207,oven,car,10,0680_lp_s01_10_car_10_n03100240_5136.png
subject-01,1,681,0.787944078445435,bicycle,knife,15,0681_lp_s01_15_knife_10_n03041632_1884.png
subject-01,1,682,1.50010395050049,oven,clock,1,0682_lp_s01_1_clock_10_n04548280_2809.png
subject-01,1,683,0.799696922302246,boat,boat,7,0683_lp_s01_7_boat_10_n03662601_12308.png
subject-01,1,684,1.19529104232788,oven,airplane,10,0684_lp_s01_10_airplane_10_n02690373_7432.png
subject-01,1,685,0.669640064239502,bicycle,bicycle,7,0685_lp_s01_7_bicycle_10_n03792782_6149.png
subject-01,1,686,1.12908411026001,truck,chair,10,0686_lp_s01_10_chair_10_n04429376_24716.png
subject-01,1,687,0.659006118774414,bottle,bottle,0,0687_lp_s01_0_bottle_10_n04557648_376.png
subject-01,1,688,0.612734079360962,cat,cat,10,0688_lp_s01_10_cat_10_n02123394_3144.png
subject-01,1,689,0.922475099563599,chair,dog,3,0689_lp_s01_3_dog_10_n02092002_12007.png
subject-01,1,690,0.764325141906738,boat,bird,15,0690_lp_s01_15_bird_10_n02028035_33583.png
subject-01,1,691,1.19219708442688,bear,bird,15,0691_lp_s01_15_bird_10_n01797886_904.png
subject-01,1,692,1.12041783332825,car,keyboard,15,0692_lp_s01_15_keyboard_10_n03085013_21397.png
subject-01,1,693,1.2336790561676,clock,dog,40,0693_lp_s01_40_dog_10_n02108915_11208.png
subject-01,1,694,0.613587856292725,boat,boat,3,0694_lp_s01_3_boat_10_n03662601_17665.png
subject-01,1,695,1.11147403717041,keyboard,clock,10,0695_lp_s01_10_clock_10_n03196217_9160.png
subject-01,1,696,0.961257934570312,dog,dog,0,0696_lp_s01_0_dog_10_n02100735_3595.png
subject-01,1,697,1.05118608474731,truck,truck,5,0697_lp_s01_5_truck_10_n03796401_2656.png
subject-01,1,698,1.05891895294189,car,truck,40,0698_lp_s01_40_truck_10_n04467665_13193.png
subject-01,1,699,0.624642133712769,oven,oven,5,0699_lp_s01_5_oven_10_n04111531_20953.png
subject-01,1,700,1.17872905731201,oven,clock,5,0700_lp_s01_5_clock_10_n02708093_8051.png
subject-01,1,701,0.596445798873901,car,car,0,0701_lp_s01_0_car_10_n03100240_11428.png
subject-01,1,702,0.788546800613403,bicycle,bicycle,1,0702_lp_s01_1_bicycle_10_n02835271_12473.png
subject-01,1,703,0.88602614402771,bear,chair,10,0703_lp_s01_10_chair_10_n02791124_6865.png
subject-01,1,704,1.21992111206055,keyboard,chair,15,0704_lp_s01_15_chair_10_n03376595_4464.png
subject-01,1,705,0.795588970184326,airplane,airplane,0,0705_lp_s01_0_airplane_10_n02690373_1051.png
subject-01,1,706,0.813464164733887,bottle,chair,5,0706_lp_s01_5_chair_10_n04429376_5789.png
subject-01,1,707,0.787492990493774,bird,bird,0,0707_lp_s01_0_bird_10_n01592084_2971.png
subject-01,1,708,1.1129789352417,bear,bicycle,5,0708_lp_s01_5_bicycle_10_n03792782_22760.png
subject-01,1,709,1.294842004776,clock,airplane,40,0709_lp_s01_40_airplane_10_n02690373_2656.png
subject-01,1,710,1.09675288200378,oven,oven,0,0710_lp_s01_0_oven_10_n04111531_21173.png
subject-01,1,711,0.678551912307739,bottle,bottle,3,0711_lp_s01_3_bottle_10_n04557648_32252.png
subject-01,1,712,1.31624293327332,cat,cat,5,0712_lp_s01_5_cat_10_n02123597_13835.png
subject-01,1,713,0.911907911300659,airplane,knife,10,0713_lp_s01_10_knife_10_n03041632_11969.png
subject-01,1,714,1.50006890296936,knife,cat,5,0714_lp_s01_5_cat_10_n02125311_22884.png
subject-01,1,715,1.21010184288025,bicycle,bear,7,0715_lp_s01_7_bear_10_n02134418_860.png
subject-01,1,716,0.941817045211792,car,car,0,0716_lp_s01_0_car_10_n03100240_1696.png
subject-01,1,717,1.15744209289551,boat,bird,7,0717_lp_s01_7_bird_10_n02018207_1606.png
subject-01,1,718,1.22513389587402,oven,bird,40,0718_lp_s01_40_bird_10_n02018795_4730.png
subject-01,1,719,0.880964994430542,boat,truck,10,0719_lp_s01_10_truck_10_n04467665_67861.png
subject-01,1,720,0.766691923141479,truck,truck,1,0720_lp_s01_1_truck_10_n03417042_820.png
subject-01,1,721,0.995609045028687,bicycle,elephant,7,0721_lp_s01_7_elephant_10_n02504013_7774.png
subject-01,1,722,0.773686170578003,boat,boat,3,0722_lp_s01_3_boat_10_n04273569_11445.png
subject-01,1,723,0.951170921325684,elephant,elephant,0,0723_lp_s01_0_elephant_10_n02504458_5482.png
subject-01,1,724,1.29937100410461,oven,clock,10,0724_lp_s01_10_clock_10_n03196217_454.png
subject-01,1,725,0.961218118667603,bicycle,oven,40,0725_lp_s01_40_oven_10_n04111531_17781.png
subject-01,1,726,0.742762804031372,bottle,bottle,5,0726_lp_s01_5_bottle_10_n02823428_4694.png
subject-01,1,727,1.08677387237549,car,truck,3,0727_lp_s01_3_truck_10_n03796401_24833.png
subject-01,1,728,0.794153928756714,knife,knife,1,0728_lp_s01_1_knife_10_n03041632_81943.png
subject-01,1,729,1.16604685783386,bear,dog,10,0729_lp_s01_10_dog_10_n02100735_1764.png
subject-01,1,730,0.844013929367065,car,car,15,0730_lp_s01_15_car_10_n02814533_36206.png
subject-01,1,731,0.83364200592041,airplane,airplane,5,0731_lp_s01_5_airplane_10_n02690373_7489.png
subject-01,1,732,0.867588996887207,bicycle,oven,10,0732_lp_s01_10_oven_10_n04111531_3717.png
subject-01,1,733,0.981415033340454,oven,oven,7,0733_lp_s01_7_oven_10_n04111531_2987.png
subject-01,1,734,0.511346101760864,clock,clock,0,0734_lp_s01_0_clock_10_n04548280_2169.png
subject-01,1,735,1.27103090286255,truck,keyboard,40,0735_lp_s01_40_keyboard_10_n03085013_19547.png
subject-01,1,736,0.745094060897827,keyboard,keyboard,1,0736_lp_s01_1_keyboard_10_n03085013_20303.png
subject-01,1,737,0.84269118309021,knife,knife,5,0737_lp_s01_5_knife_10_n03041632_12748.png
subject-01,1,738,1.26241493225098,elephant,elephant,1,0738_lp_s01_1_elephant_10_n02504458_1626.png
subject-01,1,739,0.782537937164307,car,car,5,0739_lp_s01_5_car_10_n02814533_82372.png
subject-01,1,740,0.723889112472534,boat,boat,1,0740_lp_s01_1_boat_10_n03344393_5417.png
subject-01,1,741,0.879969835281372,bottle,bottle,0,0741_lp_s01_0_bottle_10_n04591713_5465.png
subject-01,1,742,1.08976006507874,knife,keyboard,5,0742_lp_s01_5_keyboard_10_n03085013_2594.png
subject-01,1,743,0.895416975021362,car,car,7,0743_lp_s01_7_car_10_n03100240_1406.png
subject-01,1,744,1.07324004173279,bottle,cat,7,0744_lp_s01_7_cat_10_n02123159_6954.png
subject-01,1,745,1.07120394706726,bear,bear,15,0745_lp_s01_15_bear_10_n02134084_8601.png
subject-01,1,746,0.598957061767578,cat,cat,5,0746_lp_s01_5_cat_10_n02123045_1126.png
subject-01,1,747,0.900691986083984,car,car,7,0747_lp_s01_7_car_10_n04285008_13094.png
subject-01,1,748,1.40654802322388,knife,knife,0,0748_lp_s01_0_knife_10_n03041632_11741.png
subject-01,1,749,1.01027083396912,dog,dog,5,0749_lp_s01_5_dog_10_n02091635_7361.png
subject-01,1,750,0.998196125030518,dog,dog,3,0750_lp_s01_3_dog_10_n02113023_12640.png
subject-01,1,751,1.03634095191956,car,chair,40,0751_lp_s01_40_chair_10_n04099969_8018.png
subject-01,1,752,0.758177995681763,clock,clock,7,0752_lp_s01_7_clock_10_n03196217_1272.png
subject-01,1,753,0.94156289100647,boat,knife,15,0753_lp_s01_15_knife_10_n03041632_45264.png
subject-01,1,754,0.99529504776001,keyboard,keyboard,7,0754_lp_s01_7_keyboard_10_n04505470_5150.png
subject-01,1,755,0.937228918075562,cat,bear,10,0755_lp_s01_10_bear_10_n02134418_745.png
subject-01,1,756,1.23288297653198,cat,cat,0,0756_lp_s01_0_cat_10_n02124075_10310.png
subject-01,1,757,1.2287929058075,bear,bear,3,0757_lp_s01_3_bear_10_n02134418_14961.png
subject-01,1,758,0.786746978759766,chair,chair,1,0758_lp_s01_1_chair_10_n02791124_3883.png
subject-01,1,759,0.934644937515259,boat,boat,3,0759_lp_s01_3_boat_10_n02951358_33722.png
subject-01,1,760,0.682494163513184,bottle,bottle,1,0760_lp_s01_1_bottle_10_n04557648_12301.png
subject-01,1,761,1.00599384307861,bear,bear,3,0761_lp_s01_3_bear_10_n02133161_1480.png
subject-01,1,762,1.02006101608276,dog,dog,1,0762_lp_s01_1_dog_10_n02091467_3403.png
subject-01,1,763,1.16572308540344,bear,bear,40,0763_lp_s01_40_bear_10_n02132136_25168.png
subject-01,1,764,1.05156803131104,dog,dog,5,0764_lp_s01_5_dog_10_n02113023_8535.png
subject-01,1,765,0.841243982315063,bicycle,bicycle,0,0765_lp_s01_0_bicycle_10_n03792782_6546.png
subject-01,1,766,1.1870288848877,cat,cat,3,0766_lp_s01_3_cat_10_n02125311_6283.png
subject-01,1,767,0.794996976852417,bear,airplane,40,0767_lp_s01_40_airplane_10_n02690373_9687.png
subject-01,1,768,0.63476300239563,boat,boat,0,0768_lp_s01_0_boat_10_n03344393_3452.png
subject-01,1,769,1.0144510269165,truck,truck,1,0769_lp_s01_1_truck_10_n03417042_12235.png
subject-01,1,770,0.918444871902466,keyboard,keyboard,15,0770_lp_s01_15_keyboard_10_n04505470_1479.png
subject-01,1,771,0.664418935775757,clock,clock,10,0771_lp_s01_10_clock_10_n02708093_6572.png
subject-01,1,772,1.21010708808899,bird,bird,5,0772_lp_s01_5_bird_10_n02011460_19314.png
subject-01,1,773,0.995719909667969,bird,bird,5,0773_lp_s01_5_bird_10_n02009229_3118.png
subject-01,1,774,0.78150200843811,bear,bear,5,0774_lp_s01_5_bear_10_n02133161_5616.png
subject-01,1,775,1.06788396835327,cat,bicycle,10,0775_lp_s01_10_bicycle_10_n03792782_62398.png
subject-01,1,776,0.997467994689941,oven,oven,1,0776_lp_s01_1_oven_10_n04111531_9289.png
subject-01,1,777,0.897161960601807,elephant,elephant,0,0777_lp_s01_0_elephant_10_n02504013_3569.png
subject-01,1,778,0.8788161277771,knife,knife,7,0778_lp_s01_7_knife_10_n03041632_2153.png
subject-01,1,779,1.50001978874207,bear,oven,1,0779_lp_s01_1_oven_10_n04111531_10313.png
subject-01,1,780,1.25660490989685,elephant,elephant,7,0780_lp_s01_7_elephant_10_n02504458_716.png
subject-01,1,781,0.706647872924805,clock,clock,5,0781_lp_s01_5_clock_10_n04548280_1097.png
subject-01,1,782,0.928047895431519,boat,knife,15,0782_lp_s01_15_knife_10_n03041632_40530.png
subject-01,1,783,1.41818380355835,truck,truck,15,0783_lp_s01_15_truck_10_n04467665_3125.png
subject-01,1,784,1.32588291168213,car,oven,40,0784_lp_s01_40_oven_10_n04111531_20823.png
subject-01,1,785,0.823884010314941,bicycle,bicycle,1,0785_lp_s01_1_bicycle_10_n02835271_942.png
subject-01,1,786,0.725476026535034,clock,clock,10,0786_lp_s01_10_clock_10_n02708093_321.png
subject-01,1,787,0.825348854064941,boat,car,7,0787_lp_s01_7_car_10_n04285008_13156.png
subject-01,1,788,0.915066003799438,boat,car,15,0788_lp_s01_15_car_10_n02814533_58708.png
subject-01,1,789,1.02312684059143,keyboard,keyboard,0,0789_lp_s01_0_keyboard_10_n04505470_4599.png
subject-01,1,790,0.894802093505859,airplane,airplane,3,0790_lp_s01_3_airplane_10_n02690373_7200.png
subject-01,1,791,0.790556907653809,airplane,airplane,7,0791_lp_s01_7_airplane_10_n02690373_8789.png
subject-01,1,792,1.08212399482727,oven,oven,10,0792_lp_s01_10_oven_10_n04111531_11634.png
subject-01,1,793,1.06050705909729,car,cat,40,0793_lp_s01_40_cat_10_n02123597_6542.png
subject-01,1,794,0.761933088302612,bird,bird,0,0794_lp_s01_0_bird_10_n01833805_5839.png
subject-01,1,795,1.07757496833801,cat,cat,1,0795_lp_s01_1_cat_10_n02125311_22037.png
subject-01,1,796,0.895595788955688,elephant,elephant,7,0796_lp_s01_7_elephant_10_n02504458_4838.png
subject-01,1,797,0.867524862289429,bear,bear,7,0797_lp_s01_7_bear_10_n02134418_826.png
subject-01,1,798,1.23531913757324,cat,truck,7,0798_lp_s01_7_truck_10_n03417042_16856.png
subject-01,1,799,1.12301206588745,bicycle,bird,10,0799_lp_s01_10_bird_10_n02013706_10026.png
subject-01,1,800,1.35283184051514,bicycle,bottle,3,0800_lp_s01_3_bottle_10_n02823428_7650.png
subject-01,1,801,0.676467180252075,dog,dog,7,0801_lp_s01_7_dog_10_n02088238_3078.png
subject-01,1,802,0.932177782058716,elephant,oven,10,0802_lp_s01_10_oven_10_n04111531_24096.png
subject-01,1,803,0.817873954772949,car,boat,15,0803_lp_s01_15_boat_10_n02951358_29341.png
subject-01,1,804,0.915801048278809,truck,truck,7,0804_lp_s01_7_truck_10_n04467665_9521.png
subject-01,1,805,0.929517030715942,chair,chair,10,0805_lp_s01_10_chair_10_n04429376_6308.png
subject-01,1,806,0.94147801399231,bicycle,bicycle,5,0806_lp_s01_5_bicycle_10_n02835271_10814.png
subject-01,1,807,1.13944816589355,boat,bicycle,5,0807_lp_s01_5_bicycle_10_n02835271_13439.png
subject-01,1,808,0.831201076507568,airplane,airplane,1,0808_lp_s01_1_airplane_10_n02690373_4079.png
subject-01,1,809,1.01514911651611,bicycle,chair,7,0809_lp_s01_7_chair_10_n03376595_3499.png
subject-01,1,810,0.956549882888794,bear,bicycle,10,0810_lp_s01_10_bicycle_10_n03792782_16290.png
subject-01,1,811,0.59257984161377,bottle,bottle,0,0811_lp_s01_0_bottle_10_n03983396_16224.png
subject-01,1,812,1.23030686378479,truck,truck,1,0812_lp_s01_1_truck_10_n03417042_20591.png
subject-01,1,813,1.14007091522217,bird,cat,15,0813_lp_s01_15_cat_10_n02123394_5909.png
subject-01,1,814,1.00390410423279,bicycle,chair,7,0814_lp_s01_7_chair_10_n02791124_6276.png
subject-01,1,815,1.09398412704468,bear,bear,10,0815_lp_s01_10_bear_10_n02133161_396.png
subject-01,1,816,0.731458902359009,bottle,bottle,7,0816_lp_s01_7_bottle_10_n03983396_6011.png
subject-01,1,817,0.92324686050415,boat,chair,10,0817_lp_s01_10_chair_10_n03376595_1798.png
subject-01,1,818,1.20318102836609,bird,bird,7,0818_lp_s01_7_bird_10_n01601694_10927.png
subject-01,1,819,1.02079892158508,car,clock,40,0819_lp_s01_40_clock_10_n03196217_634.png
subject-01,1,820,0.962565898895264,clock,clock,10,0820_lp_s01_10_clock_10_n03196217_2695.png
subject-01,1,821,1.10273909568787,bear,dog,40,0821_lp_s01_40_dog_10_n02110627_22484.png
subject-01,1,822,0.840528011322021,bottle,bottle,3,0822_lp_s01_3_bottle_10_n04591713_5019.png
subject-01,1,823,0.978160858154297,oven,bottle,10,0823_lp_s01_10_bottle_10_n02823428_3788.png
subject-01,1,824,0.680081844329834,bear,bear,1,0824_lp_s01_1_bear_10_n02133161_1356.png
subject-01,1,825,0.880061149597168,car,car,15,0825_lp_s01_15_car_10_n04285008_11714.png
subject-01,1,826,1.02006411552429,car,truck,1,0826_lp_s01_1_truck_10_n03417042_5768.png
subject-01,1,827,0.947450876235962,bottle,dog,40,0827_lp_s01_40_dog_10_n02113712_4014.png
subject-01,1,828,0.835270881652832,cat,cat,1,0828_lp_s01_1_cat_10_n02124075_7579.png
subject-01,1,829,0.691148996353149,airplane,airplane,1,0829_lp_s01_1_airplane_10_n02690373_7944.png
subject-01,1,830,1.04895091056824,oven,boat,40,0830_lp_s01_40_boat_10_n03344393_2599.png
subject-01,1,831,0.974951982498169,dog,dog,5,0831_lp_s01_5_dog_10_n02093256_6258.png
subject-01,1,832,1.0284378528595,bear,elephant,10,0832_lp_s01_10_elephant_10_n02504458_3648.png
subject-01,1,833,1.3026270866394,cat,truck,40,0833_lp_s01_40_truck_10_n03796401_9.png
subject-01,1,834,0.982007026672363,bottle,bottle,40,0834_lp_s01_40_bottle_10_n03937543_5254.png
subject-01,1,835,0.75206184387207,chair,chair,3,0835_lp_s01_3_chair_10_n04429376_16952.png
subject-01,1,836,0.890035152435303,dog,dog,1,0836_lp_s01_1_dog_10_n02113624_8023.png
subject-01,1,837,1.00546598434448,knife,keyboard,40,0837_lp_s01_40_keyboard_10_n03085013_21507.png
subject-01,1,838,0.991257905960083,airplane,airplane,0,0838_lp_s01_0_airplane_10_n02690373_9401.png
subject-01,1,839,0.979422092437744,truck,truck,0,0839_lp_s01_0_truck_10_n03417042_22918.png
subject-01,1,840,1.39093208312988,bear,bottle,15,0840_lp_s01_15_bottle_10_n03937543_5678.png
subject-01,1,841,1.04695510864258,truck,cat,7,0841_lp_s01_7_cat_10_n02123045_9184.png
subject-01,1,842,0.978556871414185,elephant,elephant,0,0842_lp_s01_0_elephant_10_n02504458_908.png
subject-01,1,843,1.07040619850159,bird,bird,10,0843_lp_s01_10_bird_10_n01532829_14545.png
subject-01,1,844,0.830278873443604,bear,bear,3,0844_lp_s01_3_bear_10_n02134084_17875.png
subject-01,1,845,0.792056798934937,cat,airplane,40,0845_lp_s01_40_airplane_10_n02690373_1279.png
subject-01,1,846,0.922049999237061,car,car,7,0846_lp_s01_7_car_10_n02814533_3594.png
subject-01,1,847,1.05173993110657,car,oven,7,0847_lp_s01_7_oven_10_n04111531_9702.png
subject-01,1,848,1.28145098686218,bicycle,bicycle,1,0848_lp_s01_1_bicycle_10_n03792782_51466.png
subject-01,1,849,1.271399974823,knife,knife,15,0849_lp_s01_15_knife_10_n03041632_1964.png
subject-01,1,850,1.07711291313171,bicycle,bicycle,7,0850_lp_s01_7_bicycle_10_n02835271_7426.png
subject-01,1,851,1.10693383216858,chair,keyboard,15,0851_lp_s01_15_keyboard_10_n03085013_12079.png
subject-01,1,852,1.44272804260254,bottle,bicycle,10,0852_lp_s01_10_bicycle_10_n03792782_22620.png
subject-01,1,853,1.15835905075073,car,chair,40,0853_lp_s01_40_chair_10_n04429376_6817.png
subject-01,1,854,1.18857002258301,bicycle,bottle,5,0854_lp_s01_5_bottle_10_n04560804_2176.png
subject-01,1,855,0.884098052978516,cat,dog,40,0855_lp_s01_40_dog_10_n02100583_14082.png
subject-01,1,856,1.02789902687073,car,airplane,15,0856_lp_s01_15_airplane_10_n02690373_2521.png
subject-01,1,857,0.935779094696045,bicycle,bicycle,3,0857_lp_s01_3_bicycle_10_n02835271_22355.png
subject-01,1,858,0.911510944366455,bear,bear,7,0858_lp_s01_7_bear_10_n02134418_5326.png
subject-01,1,859,0.627336978912354,bottle,bottle,5,0859_lp_s01_5_bottle_10_n03983396_8164.png
subject-01,1,860,0.85542106628418,keyboard,keyboard,1,0860_lp_s01_1_keyboard_10_n03085013_21097.png
subject-01,1,861,1.30348992347717,bear,elephant,0,0861_lp_s01_0_elephant_10_n02504458_6835.png
subject-01,1,862,1.07292199134827,knife,knife,10,0862_lp_s01_10_knife_10_n03041632_55711.png
subject-01,1,863,1.31265187263489,dog,truck,15,0863_lp_s01_15_truck_10_n03417042_3592.png
subject-01,1,864,1.1965479850769,dog,dog,7,0864_lp_s01_7_dog_10_n02110806_23139.png
subject-01,1,865,1.05024600028992,bottle,clock,40,0865_lp_s01_40_clock_10_n02708093_8141.png
subject-01,1,866,0.918175220489502,oven,oven,0,0866_lp_s01_0_oven_10_n04111531_1612.png
subject-01,1,867,0.966060876846313,bird,bird,3,0867_lp_s01_3_bird_10_n01820546_5444.png
subject-01,1,868,0.806255102157593,car,car,1,0868_lp_s01_1_car_10_n02814533_43868.png
subject-01,1,869,1.11352896690369,clock,elephant,15,0869_lp_s01_15_elephant_10_n02504013_9393.png
subject-01,1,870,1.23944115638733,bear,car,40,0870_lp_s01_40_car_10_n03100240_2042.png
subject-01,1,871,0.843163013458252,boat,truck,40,0871_lp_s01_40_truck_10_n03417042_21758.png
subject-01,1,872,1.07884502410889,bear,bear,0,0872_lp_s01_0_bear_10_n02134418_5581.png
subject-01,1,873,1.02880001068115,bicycle,boat,40,0873_lp_s01_40_boat_10_n04273569_5811.png
subject-01,1,874,1.30255889892578,boat,bottle,5,0874_lp_s01_5_bottle_10_n04557648_9493.png
subject-01,1,875,1.06244087219238,elephant,elephant,5,0875_lp_s01_5_elephant_10_n02504013_22704.png
subject-01,1,876,0.880353927612305,car,car,5,0876_lp_s01_5_car_10_n02814533_9634.png
subject-01,1,877,1.2060399055481,bird,bottle,5,0877_lp_s01_5_bottle_10_n04560804_12411.png
subject-01,1,878,0.777909994125366,cat,dog,3,0878_lp_s01_3_dog_10_n02112018_6635.png
subject-01,1,879,0.909581899642944,boat,dog,40,0879_lp_s01_40_dog_10_n02106662_56458.png
subject-01,1,880,0.997461795806885,knife,oven,1,0880_lp_s01_1_oven_10_n04111531_3072.png
subject-01,1,881,1.09053206443787,knife,knife,7,0881_lp_s01_7_knife_10_n03041632_50423.png
subject-01,1,882,0.642447948455811,cat,cat,7,0882_lp_s01_7_cat_10_n02123394_4232.png
subject-01,1,883,1.06649994850159,boat,oven,40,0883_lp_s01_40_oven_10_n04111531_21366.png
subject-01,1,884,1.00380110740662,oven,oven,15,0884_lp_s01_15_oven_10_n04111531_92.png
subject-01,1,885,0.820142984390259,truck,truck,1,0885_lp_s01_1_truck_10_n03417042_18554.png
subject-01,1,886,1.50005388259888,knife,knife,10,0886_lp_s01_10_knife_10_n03041632_95293.png
subject-01,1,887,0.685614109039307,clock,clock,3,0887_lp_s01_3_clock_10_n04548280_5422.png
subject-01,1,888,1.0291109085083,cat,bottle,15,0888_lp_s01_15_bottle_10_n03937543_5512.png
subject-01,1,889,0.973294019699097,bicycle,chair,40,0889_lp_s01_40_chair_10_n04099969_20107.png
subject-01,1,890,1.07673001289368,oven,oven,10,0890_lp_s01_10_oven_10_n04111531_538.png
subject-01,1,891,0.792705059051514,bird,bird,1,0891_lp_s01_1_bird_10_n01820546_4609.png
subject-01,1,892,0.790456056594849,oven,oven,3,0892_lp_s01_3_oven_10_n04111531_5204.png
subject-01,1,893,0.866214990615845,bottle,bottle,7,0893_lp_s01_7_bottle_10_n02823428_2355.png
subject-01,1,894,1.08209300041199,elephant,elephant,5,0894_lp_s01_5_elephant_10_n02504458_3059.png
subject-01,1,895,1.02189803123474,car,knife,15,0895_lp_s01_15_knife_10_n03041632_24326.png
subject-01,1,896,1.04754090309143,truck,truck,10,0896_lp_s01_10_truck_10_n04467665_7975.png
subject-01,1,897,1.16739392280579,car,boat,7,0897_lp_s01_7_boat_10_n02951358_4551.png
subject-01,1,898,1.37511897087097,bicycle,dog,15,0898_lp_s01_15_dog_10_n02107312_5733.png
subject-01,1,899,0.800978183746338,bear,bear,3,0899_lp_s01_3_bear_10_n02132136_15407.png
subject-01,1,900,1.09897589683533,clock,bicycle,40,0900_lp_s01_40_bicycle_10_n03792782_11851.png
subject-01,1,901,0.867043018341064,chair,chair,0,0901_lp_s01_0_chair_10_n04099969_8032.png
subject-01,1,902,0.912486791610718,bear,bear,0,0902_lp_s01_0_bear_10_n02134418_3952.png
subject-01,1,903,0.870311975479126,bottle,bottle,5,0903_lp_s01_5_bottle_10_n04591713_3495.png
subject-01,1,904,1.07056212425232,oven,chair,1,0904_lp_s01_1_chair_10_n03376595_6942.png
subject-01,1,905,1.10016703605652,bicycle,chair,15,0905_lp_s01_15_chair_10_n02791124_634.png
subject-01,1,906,1.18616104125977,car,car,40,0906_lp_s01_40_car_10_n04285008_14573.png
subject-01,1,907,1.21951603889465,car,oven,40,0907_lp_s01_40_oven_10_n04111531_13625.png
subject-01,1,908,1.33150005340576,car,knife,7,0908_lp_s01_7_knife_10_n03041632_49513.png
subject-01,1,909,1.18334197998047,cat,car,15,0909_lp_s01_15_car_10_n03100240_5383.png
subject-01,1,910,1.04737401008606,clock,clock,3,0910_lp_s01_3_clock_10_n04548280_289.png
subject-01,1,911,0.903026103973389,elephant,elephant,3,0911_lp_s01_3_elephant_10_n02504013_9021.png
subject-01,1,912,0.88289213180542,bear,elephant,15,0912_lp_s01_15_elephant_10_n02504458_7477.png
subject-01,1,913,1.01069402694702,bird,cat,5,0913_lp_s01_5_cat_10_n02125311_39208.png
subject-01,1,914,1.34227609634399,knife,boat,0,0914_lp_s01_0_boat_10_n03662601_1947.png
subject-01,1,915,NaN,na,knife,10,0915_lp_s01_10_knife_10_n03041632_93026.png
subject-01,1,916,1.02406191825867,bear,bicycle,7,0916_lp_s01_7_bicycle_10_n03792782_11950.png
subject-01,1,917,1.31966400146484,bear,bicycle,40,0917_lp_s01_40_bicycle_10_n03792782_1868.png
subject-01,1,918,1.12759399414062,knife,knife,3,0918_lp_s01_3_knife_10_n03041632_12949.png
subject-01,1,919,1.14735794067383,car,car,3,0919_lp_s01_3_car_10_n02814533_3202.png
subject-01,1,920,0.771549940109253,bottle,bottle,7,0920_lp_s01_7_bottle_10_n02823428_7630.png
subject-01,1,921,0.81486701965332,knife,knife,7,0921_lp_s01_7_knife_10_n03041632_45326.png
subject-01,1,922,0.863052129745483,car,car,0,0922_lp_s01_0_car_10_n02814533_27571.png
subject-01,1,923,1.14863204956055,cat,keyboard,10,0923_lp_s01_10_keyboard_10_n03085013_5542.png
subject-01,1,924,1.14051413536072,bicycle,bear,40,0924_lp_s01_40_bear_10_n02134084_12428.png
subject-01,1,925,0.712188005447388,keyboard,keyboard,1,0925_lp_s01_1_keyboard_10_n04505470_5112.png
subject-01,1,926,0.818124055862427,elephant,elephant,10,0926_lp_s01_10_elephant_10_n02504458_11265.png
subject-01,1,927,0.823966979980469,bicycle,bicycle,0,0927_lp_s01_0_bicycle_10_n02835271_12674.png
subject-01,1,928,1.17361092567444,keyboard,keyboard,3,0928_lp_s01_3_keyboard_10_n04505470_5091.png
subject-01,1,929,1.09754109382629,bicycle,boat,7,0929_lp_s01_7_boat_10_n03344393_3921.png
subject-01,1,930,0.895267009735107,boat,boat,0,0930_lp_s01_0_boat_10_n02951358_15479.png
subject-01,1,931,0.602996110916138,clock,clock,7,0931_lp_s01_7_clock_10_n04548280_4069.png
subject-01,1,932,0.960901975631714,car,truck,15,0932_lp_s01_15_truck_10_n03796401_25386.png
subject-01,1,933,0.720672845840454,cat,cat,0,0933_lp_s01_0_cat_10_n02125311_35785.png
subject-01,1,934,0.900589942932129,clock,keyboard,15,0934_lp_s01_15_keyboard_10_n03085013_22496.png
subject-01,1,935,1.20232009887695,bear,oven,15,0935_lp_s01_15_oven_10_n04111531_11530.png
subject-01,1,936,0.924028873443604,bird,elephant,3,0936_lp_s01_3_elephant_10_n02504013_1502.png
subject-01,1,937,0.765843868255615,car,car,5,0937_lp_s01_5_car_10_n04285008_2880.png
subject-01,1,938,0.877770900726318,car,car,15,0938_lp_s01_15_car_10_n04285008_9107.png
subject-01,1,939,1.35180306434631,car,elephant,10,0939_lp_s01_10_elephant_10_n02504013_3197.png
subject-01,1,940,0.779407978057861,boat,boat,0,0940_lp_s01_0_boat_10_n03344393_8599.png
subject-01,1,941,0.75537896156311,airplane,airplane,5,0941_lp_s01_5_airplane_10_n02690373_6543.png
subject-01,1,942,1.17708206176758,chair,chair,5,0942_lp_s01_5_chair_10_n04429376_1935.png
subject-01,1,943,1.24496817588806,bicycle,chair,15,0943_lp_s01_15_chair_10_n04429376_24434.png
subject-01,1,944,1.2725989818573,chair,chair,3,0944_lp_s01_3_chair_10_n04099969_5584.png
subject-01,1,945,0.722422122955322,car,car,3,0945_lp_s01_3_car_10_n02814533_44079.png
subject-01,1,946,1.27035093307495,bear,clock,15,0946_lp_s01_15_clock_10_n04548280_8892.png
subject-01,1,947,1.44204616546631,oven,chair,15,0947_lp_s01_15_chair_10_n04429376_7123.png
subject-01,1,948,0.97385311126709,bear,bear,1,0948_lp_s01_1_bear_10_n02133161_11333.png
subject-01,1,949,0.836057901382446,dog,dog,1,0949_lp_s01_1_dog_10_n02097298_6466.png
subject-01,1,950,1.21366095542908,elephant,chair,40,0950_lp_s01_40_chair_10_n03376595_1740.png
subject-01,1,951,0.76535701751709,bicycle,bicycle,1,0951_lp_s01_1_bicycle_10_n02835271_20920.png
subject-01,1,952,0.619287967681885,bottle,bottle,0,0952_lp_s01_0_bottle_10_n02823428_40.png
subject-01,1,953,1.00888991355896,bottle,chair,5,0953_lp_s01_5_chair_10_n02791124_3731.png
subject-01,1,954,0.712747812271118,bicycle,clock,7,0954_lp_s01_7_clock_10_n03196217_10578.png
subject-01,1,955,0.7884521484375,airplane,airplane,0,0955_lp_s01_0_airplane_10_n02690373_181.png
subject-01,1,956,1.22652792930603,airplane,airplane,1,0956_lp_s01_1_airplane_10_n02690373_5266.png
subject-01,1,957,1.33230304718018,car,dog,15,0957_lp_s01_15_dog_10_n02101388_20966.png
subject-01,1,958,0.932099103927612,boat,truck,5,0958_lp_s01_5_truck_10_n04467665_79452.png
subject-01,1,959,0.967849969863892,boat,boat,3,0959_lp_s01_3_boat_10_n02951358_406.png
subject-01,1,960,0.935558080673218,bottle,truck,1,0960_lp_s01_1_truck_10_n03796401_2866.png
subject-01,1,961,0.791432857513428,chair,chair,7,0961_lp_s01_7_chair_10_n03376595_3181.png
subject-01,1,962,1.17077016830444,bear,bird,7,0962_lp_s01_7_bird_10_n01820546_1222.png
subject-01,1,963,0.760889053344727,bear,bear,1,0963_lp_s01_1_bear_10_n02133161_195.png
subject-01,1,964,0.912430047988892,truck,truck,0,0964_lp_s01_0_truck_10_n03417042_4557.png
subject-01,1,965,0.998339891433716,cat,knife,15,0965_lp_s01_15_knife_10_n03041632_28443.png
subject-01,1,966,0.918138980865479,bicycle,chair,7,0966_lp_s01_7_chair_10_n04099969_12456.png
subject-01,1,967,0.961986064910889,keyboard,keyboard,1,0967_lp_s01_1_keyboard_10_n03085013_20914.png
subject-01,1,968,0.721817970275879,truck,truck,7,0968_lp_s01_7_truck_10_n03796401_7527.png
subject-01,1,969,1.01136302947998,bottle,keyboard,40,0969_lp_s01_40_keyboard_10_n04505470_4492.png
subject-01,1,970,1.06344389915466,bicycle,keyboard,10,0970_lp_s01_10_keyboard_10_n03085013_7285.png
subject-01,1,971,0.899065017700195,bird,bird,0,0971_lp_s01_0_bird_10_n01855672_15005.png
subject-01,1,972,1.28288412094116,car,bear,5,0972_lp_s01_5_bear_10_n02132136_24311.png
subject-01,1,973,1.21481990814209,chair,chair,0,0973_lp_s01_0_chair_10_n03376595_6107.png
subject-01,1,974,1.43061399459839,oven,knife,7,0974_lp_s01_7_knife_10_n03041632_992.png
subject-01,1,975,1.26432394981384,clock,clock,5,0975_lp_s01_5_clock_10_n04548280_4557.png
subject-01,1,976,0.878323078155518,boat,boat,7,0976_lp_s01_7_boat_10_n02951358_2685.png
subject-01,1,977,0.712029933929443,oven,oven,3,0977_lp_s01_3_oven_10_n04111531_4370.png
subject-01,1,978,1.00203204154968,elephant,elephant,5,0978_lp_s01_5_elephant_10_n02504013_4424.png
subject-01,1,979,0.726073026657104,dog,dog,7,0979_lp_s01_7_dog_10_n02098105_2343.png
subject-01,1,980,0.817486047744751,cat,keyboard,3,0980_lp_s01_3_keyboard_10_n03085013_18841.png
subject-01,1,981,1.02936100959778,airplane,airplane,0,0981_lp_s01_0_airplane_10_n02690373_1386.png
subject-01,1,982,1.20506882667542,car,knife,10,0982_lp_s01_10_knife_10_n03041632_6309.png
subject-01,1,983,1.28086185455322,chair,chair,3,0983_lp_s01_3_chair_10_n04429376_57621.png
subject-01,1,984,0.930651187896729,airplane,airplane,7,0984_lp_s01_7_airplane_10_n02690373_9533.png
subject-01,1,985,0.920563936233521,airplane,airplane,15,0985_lp_s01_15_airplane_10_n02690373_848.png
subject-01,1,986,1.19266319274902,car,cat,15,0986_lp_s01_15_cat_10_n02123159_737.png
subject-01,1,987,0.656064987182617,clock,clock,5,0987_lp_s01_5_clock_10_n02708093_1794.png
subject-01,1,988,0.96601414680481,bicycle,dog,15,0988_lp_s01_15_dog_10_n02108915_1114.png
subject-01,1,989,0.949820995330811,elephant,elephant,3,0989_lp_s01_3_elephant_10_n02504013_1813.png
subject-01,1,990,0.719506978988647,boat,bird,3,0990_lp_s01_3_bird_10_n01855032_8133.png
subject-01,1,991,0.815385818481445,oven,oven,1,0991_lp_s01_1_oven_10_n04111531_15629.png
subject-01,1,992,1.20529794692993,oven,clock,5,0992_lp_s01_5_clock_10_n03196217_743.png
subject-01,1,993,0.691184997558594,bicycle,bicycle,1,0993_lp_s01_1_bicycle_10_n03792782_22416.png
subject-01,1,994,1.15268492698669,oven,bird,40,0994_lp_s01_40_bird_10_n01514859_11682.png
subject-01,1,995,1.00071501731873,keyboard,dog,40,0995_lp_s01_40_dog_10_n02105162_2662.png
subject-01,1,996,1.11434102058411,bicycle,bicycle,15,0996_lp_s01_15_bicycle_10_n03792782_54350.png
subject-01,1,997,0.918184995651245,keyboard,keyboard,1,0997_lp_s01_1_keyboard_10_n03085013_23697.png
subject-01,1,998,NaN,na,bottle,10,0998_lp_s01_10_bottle_10_n02823428_4983.png
subject-01,1,999,0.993891000747681,bottle,bottle,5,0999_lp_s01_5_bottle_10_n03937543_339.png
subject-01,1,1000,0.799846887588501,truck,truck,7,1000_lp_s01_7_truck_10_n03417042_28773.png
subject-01,1,1001,1.14950895309448,bicycle,truck,15,1001_lp_s01_15_truck_10_n03417042_10229.png
subject-01,1,1002,1.2193329334259,keyboard,keyboard,7,1002_lp_s01_7_keyboard_10_n03085013_22942.png
subject-01,1,1003,0.955403089523315,car,knife,40,1003_lp_s01_40_knife_10_n03041632_29827.png
subject-01,1,1004,0.767113924026489,bicycle,bicycle,1,1004_lp_s01_1_bicycle_10_n02835271_14235.png
subject-01,1,1005,0.838958978652954,cat,bottle,40,1005_lp_s01_40_bottle_10_n04557648_2002.png
subject-01,1,1006,0.802479982376099,bird,knife,40,1006_lp_s01_40_knife_10_n03041632_32459.png
subject-01,1,1007,1.1024010181427,bear,bear,7,1007_lp_s01_7_bear_10_n02133161_14810.png
subject-01,1,1008,0.958473920822144,cat,bear,10,1008_lp_s01_10_bear_10_n02133161_5106.png
subject-01,1,1009,0.865925073623657,truck,truck,3,1009_lp_s01_3_truck_10_n03417042_6272.png
subject-01,1,1010,0.977743148803711,boat,elephant,10,1010_lp_s01_10_elephant_10_n02504458_5379.png
subject-01,1,1011,1.22357988357544,bear,truck,5,1011_lp_s01_5_truck_10_n04467665_30023.png
subject-01,1,1012,0.971533060073853,elephant,elephant,5,1012_lp_s01_5_elephant_10_n02504458_10013.png
subject-01,1,1013,1.06726408004761,bird,clock,40,1013_lp_s01_40_clock_10_n04548280_4143.png
subject-01,1,1014,1.20906209945679,cat,bicycle,7,1014_lp_s01_7_bicycle_10_n02835271_2900.png
subject-01,1,1015,1.41091299057007,elephant,elephant,5,1015_lp_s01_5_elephant_10_n02504013_2974.png
subject-01,1,1016,0.842897176742554,oven,cat,15,1016_lp_s01_15_cat_10_n02123045_20570.png
subject-01,1,1017,0.684631824493408,boat,boat,3,1017_lp_s01_3_boat_10_n03662601_14478.png
subject-01,1,1018,1.21438717842102,bicycle,bird,10,1018_lp_s01_10_bird_10_n02002556_5829.png
subject-01,1,1019,0.970139980316162,bottle,bottle,0,1019_lp_s01_0_bottle_10_n04591713_6235.png
subject-01,1,1020,1.00231599807739,car,car,0,1020_lp_s01_0_car_10_n02814533_10069.png
subject-01,1,1021,0.953780889511108,bear,bear,1,1021_lp_s01_1_bear_10_n02134418_3383.png
subject-01,1,1022,1.21568608283997,dog,bear,15,1022_lp_s01_15_bear_10_n02134418_5777.png
subject-01,1,1023,1.03338098526001,knife,knife,0,1023_lp_s01_0_knife_10_n03041632_32337.png
subject-01,1,1024,1.31321597099304,car,truck,10,1024_lp_s01_10_truck_10_n03417042_12308.png
subject-01,1,1025,1.15708208084106,oven,car,10,1025_lp_s01_10_car_10_n03100240_8670.png
subject-01,1,1026,0.809184074401855,car,car,3,1026_lp_s01_3_car_10_n03100240_7836.png
subject-01,1,1027,1.33050799369812,car,bear,15,1027_lp_s01_15_bear_10_n02133161_1372.png
subject-01,1,1028,1.26044392585754,bottle,elephant,40,1028_lp_s01_40_elephant_10_n02504013_19419.png
subject-01,1,1029,1.25015187263489,cat,cat,10,1029_lp_s01_10_cat_10_n02123597_3828.png
subject-01,1,1030,0.905978918075562,keyboard,keyboard,0,1030_lp_s01_0_keyboard_10_n03085013_8865.png
subject-01,1,1031,1.19606804847717,bear,knife,40,1031_lp_s01_40_knife_10_n03041632_23678.png
subject-01,1,1032,1.2296769618988,truck,truck,1,1032_lp_s01_1_truck_10_n03417042_9480.png
subject-01,1,1033,0.791743993759155,elephant,elephant,1,1033_lp_s01_1_elephant_10_n02504458_5766.png
subject-01,1,1034,0.829454898834229,bicycle,bird,10,1034_lp_s01_10_bird_10_n02006656_11017.png
subject-01,1,1035,1.50014209747314,boat,truck,7,1035_lp_s01_7_truck_10_n03417042_17545.png
subject-01,1,1036,1.11084008216858,bicycle,knife,15,1036_lp_s01_15_knife_10_n03041632_52848.png
subject-01,1,1037,1.04281902313232,chair,dog,0,1037_lp_s01_0_dog_10_n02088094_3274.png
subject-01,1,1038,0.954792022705078,bottle,bottle,1,1038_lp_s01_1_bottle_10_n04591713_360.png
subject-01,1,1039,0.908254146575928,chair,chair,0,1039_lp_s01_0_chair_10_n02791124_13033.png
subject-01,1,1040,0.826629877090454,knife,knife,0,1040_lp_s01_0_knife_10_n03041632_52702.png
subject-01,1,1041,0.821496963500977,knife,knife,1,1041_lp_s01_1_knife_10_n03041632_40887.png
subject-01,1,1042,0.853339195251465,cat,cat,5,1042_lp_s01_5_cat_10_n02123045_11034.png
subject-01,1,1043,0.619067907333374,boat,boat,10,1043_lp_s01_10_boat_10_n03662601_8067.png
subject-01,1,1044,1.00721383094788,cat,oven,5,1044_lp_s01_5_oven_10_n04111531_15682.png
subject-01,1,1045,0.85285210609436,bird,bird,3,1045_lp_s01_3_bird_10_n01582220_4078.png
subject-01,1,1046,0.786550045013428,boat,boat,7,1046_lp_s01_7_boat_10_n03344393_4234.png
subject-01,1,1047,0.940363883972168,cat,cat,5,1047_lp_s01_5_cat_10_n02123394_4164.png
subject-01,1,1048,0.906168937683105,bear,bear,7,1048_lp_s01_7_bear_10_n02132136_4888.png
subject-01,1,1049,0.970065116882324,chair,chair,3,1049_lp_s01_3_chair_10_n04099969_18463.png
subject-01,1,1050,0.772013187408447,boat,airplane,7,1050_lp_s01_7_airplane_10_n02690373_2293.png
subject-01,1,1051,0.701565980911255,clock,clock,3,1051_lp_s01_3_clock_10_n03196217_8325.png
subject-01,1,1052,1.15984797477722,bear,knife,5,1052_lp_s01_5_knife_10_n03041632_43506.png
subject-01,1,1053,1.01522707939148,chair,airplane,3,1053_lp_s01_3_airplane_10_n02690373_10462.png
subject-01,1,1054,0.743041038513184,clock,clock,1,1054_lp_s01_1_clock_10_n04548280_7951.png
subject-01,1,1055,1.01877403259277,truck,knife,40,1055_lp_s01_40_knife_10_n03041632_10136.png
subject-01,1,1056,1.16873812675476,dog,dog,7,1056_lp_s01_7_dog_10_n02091467_13440.png
subject-01,1,1057,0.988525152206421,airplane,airplane,7,1057_lp_s01_7_airplane_10_n02690373_7370.png
subject-01,1,1058,0.814260959625244,chair,truck,7,1058_lp_s01_7_truck_10_n03796401_8212.png
subject-01,1,1059,1.00027704238892,elephant,elephant,1,1059_lp_s01_1_elephant_10_n02504013_3739.png
subject-01,1,1060,0.894140005111694,elephant,elephant,0,1060_lp_s01_0_elephant_10_n02504458_1933.png
subject-01,1,1061,1.03586506843567,bear,elephant,40,1061_lp_s01_40_elephant_10_n02504458_5875.png
subject-01,1,1062,0.999670028686523,knife,knife,3,1062_lp_s01_3_knife_10_n03041632_10000.png
subject-01,1,1063,1.00142908096313,car,dog,15,1063_lp_s01_15_dog_10_n02107312_1538.png
subject-01,1,1064,0.851233959197998,knife,knife,0,1064_lp_s01_0_knife_10_n03041632_8528.png
subject-01,1,1065,1.01907706260681,boat,dog,40,1065_lp_s01_40_dog_10_n02097047_2426.png
subject-01,1,1066,1.25071907043457,chair,chair,15,1066_lp_s01_15_chair_10_n04429376_16192.png
subject-01,1,1067,1.04466009140015,oven,oven,1,1067_lp_s01_1_oven_10_n04111531_9427.png
subject-01,1,1068,0.666481018066406,clock,clock,0,1068_lp_s01_0_clock_10_n03196217_484.png
subject-01,1,1069,1.17412281036377,elephant,elephant,3,1069_lp_s01_3_elephant_10_n02504458_6348.png
subject-01,1,1070,0.871884822845459,car,car,1,1070_lp_s01_1_car_10_n03100240_1535.png
subject-01,1,1071,0.689696073532104,clock,clock,10,1071_lp_s01_10_clock_10_n02708093_135.png
subject-01,1,1072,0.781645059585571,oven,oven,0,1072_lp_s01_0_oven_10_n04111531_7189.png
subject-01,1,1073,1.00360703468323,car,knife,40,1073_lp_s01_40_knife_10_n03041632_24950.png
subject-01,1,1074,1.15737104415894,keyboard,bottle,15,1074_lp_s01_15_bottle_10_n03937543_2759.png
subject-01,1,1075,0.985173940658569,oven,cat,40,1075_lp_s01_40_cat_10_n02123394_5111.png
subject-01,1,1076,1.14676713943481,knife,knife,5,1076_lp_s01_5_knife_10_n03041632_18311.png
subject-01,1,1077,1.21260690689087,bear,cat,10,1077_lp_s01_10_cat_10_n02123394_1957.png
subject-01,1,1078,0.946802139282227,truck,airplane,40,1078_lp_s01_40_airplane_10_n02690373_6002.png
subject-01,1,1079,1.27444505691528,car,oven,40,1079_lp_s01_40_oven_10_n04111531_4988.png
subject-01,1,1080,0.914164066314697,chair,chair,3,1080_lp_s01_3_chair_10_n04429376_18863.png
subject-01,1,1081,1.09604215621948,boat,boat,15,1081_lp_s01_15_boat_10_n04273569_103.png
subject-01,1,1082,0.938055992126465,keyboard,keyboard,3,1082_lp_s01_3_keyboard_10_n03085013_21030.png
subject-01,1,1083,0.81176495552063,car,car,10,1083_lp_s01_10_car_10_n02814533_13802.png
subject-01,1,1084,0.697383880615234,clock,clock,0,1084_lp_s01_0_clock_10_n04548280_3036.png
subject-01,1,1085,0.829317092895508,cat,keyboard,5,1085_lp_s01_5_keyboard_10_n04505470_4878.png
subject-01,1,1086,1.14305090904236,keyboard,keyboard,7,1086_lp_s01_7_keyboard_10_n03085013_6828.png
subject-01,1,1087,1.14879393577576,bear,cat,5,1087_lp_s01_5_cat_10_n02123394_1627.png
subject-01,1,1088,1.05868005752563,bicycle,boat,7,1088_lp_s01_7_boat_10_n02951358_30909.png
subject-01,1,1089,0.984456062316895,car,keyboard,40,1089_lp_s01_40_keyboard_10_n03085013_22960.png
subject-01,1,1090,1.05812406539917,cat,bird,15,1090_lp_s01_15_bird_10_n02002724_383.png
subject-01,1,1091,1.20414590835571,dog,dog,3,1091_lp_s01_3_dog_10_n02098105_1217.png
