subj,Session,trial,rt,object_response,category,condition,imagename
subject-03,1,1,0.859899997711182,car,clock,3,0001_lp_s03_3_clock_10_n03196217_3086.png
subject-03,1,2,1.03153800964355,bird,dog,10,0002_lp_s03_10_dog_10_n02088364_7448.png
subject-03,1,3,0.795314073562622,knife,knife,0,0003_lp_s03_0_knife_10_n03041632_32337.png
subject-03,1,4,0.849282026290894,truck,truck,5,0004_lp_s03_5_truck_10_n04467665_31059.png
subject-03,1,5,0.801125049591064,bicycle,bicycle,3,0005_lp_s03_3_bicycle_10_n02835271_22355.png
subject-03,1,6,1.12494683265686,clock,bear,40,0006_lp_s03_40_bear_10_n02134084_23165.png
subject-03,1,7,0.84258508682251,oven,clock,10,0007_lp_s03_10_clock_10_n03196217_2695.png
subject-03,1,8,0.640698909759521,bottle,bottle,0,0008_lp_s03_0_bottle_10_n04557648_376.png
subject-03,1,9,0.862423181533813,keyboard,keyboard,7,0009_lp_s03_7_keyboard_10_n03085013_18830.png
subject-03,1,10,0.854612827301025,truck,oven,7,0010_lp_s03_7_oven_10_n04111531_505.png
subject-03,1,11,1.13782715797424,keyboard,oven,10,0011_lp_s03_10_oven_10_n04111531_7619.png
subject-03,1,12,1.18201780319214,chair,chair,10,0012_lp_s03_10_chair_10_n04429376_24716.png
subject-03,1,13,1.09146189689636,dog,dog,1,0013_lp_s03_1_dog_10_n02113624_8023.png
subject-03,1,14,0.969334125518799,bird,bottle,7,0014_lp_s03_7_bottle_10_n02823428_2355.png
subject-03,1,15,0.817177057266235,truck,bicycle,40,0015_lp_s03_40_bicycle_10_n03792782_29276.png
subject-03,1,16,0.79513692855835,bear,bicycle,40,0016_lp_s03_40_bicycle_10_n02835271_2580.png
subject-03,1,17,0.626785039901733,clock,clock,7,0017_lp_s03_7_clock_10_n04548280_219.png
subject-03,1,18,0.69842004776001,car,car,0,0018_lp_s03_0_car_10_n02814533_4689.png
subject-03,1,19,0.586632966995239,bicycle,bicycle,1,0019_lp_s03_1_bicycle_10_n02835271_942.png
subject-03,1,20,0.55824089050293,car,car,0,0020_lp_s03_0_car_10_n03100240_11428.png
subject-03,1,21,0.832121133804321,elephant,elephant,3,0021_lp_s03_3_elephant_10_n02504458_205.png
subject-03,1,22,1.18193984031677,chair,chair,3,0022_lp_s03_3_chair_10_n04429376_57621.png
subject-03,1,23,0.617914915084839,boat,boat,7,0023_lp_s03_7_boat_10_n02951358_34783.png
subject-03,1,24,0.629539012908936,elephant,elephant,1,0024_lp_s03_1_elephant_10_n02504458_11345.png
subject-03,1,25,1.2452929019928,boat,boat,3,0025_lp_s03_3_boat_10_n02951358_406.png
subject-03,1,26,0.767388820648193,airplane,airplane,7,0026_lp_s03_7_airplane_10_n02690373_10131.png
subject-03,1,27,0.688957929611206,bicycle,airplane,40,0027_lp_s03_40_airplane_10_n02690373_3561.png
subject-03,1,28,1.19866108894348,bottle,chair,3,0028_lp_s03_3_chair_10_n04429376_18863.png
subject-03,1,29,0.986795902252197,boat,car,3,0029_lp_s03_3_car_10_n04285008_3410.png
subject-03,1,30,0.892309904098511,truck,car,15,0030_lp_s03_15_car_10_n04285008_11714.png
subject-03,1,31,0.784051895141602,bicycle,airplane,15,0031_lp_s03_15_airplane_10_n02690373_2521.png
subject-03,1,32,1.27811002731323,dog,bear,3,0032_lp_s03_3_bear_10_n02134084_21577.png
subject-03,1,33,1.08816814422607,boat,boat,3,0033_lp_s03_3_boat_10_n03662601_17665.png
subject-03,1,34,1.01163601875305,cat,cat,1,0034_lp_s03_1_cat_10_n02124075_7579.png
subject-03,1,35,1.351487159729,bottle,dog,0,0035_lp_s03_0_dog_10_n02088094_3274.png
subject-03,1,36,1.08916306495667,chair,bear,40,0036_lp_s03_40_bear_10_n02134084_12428.png
subject-03,1,37,0.799395084381104,bicycle,oven,40,0037_lp_s03_40_oven_10_n04111531_17781.png
subject-03,1,38,1.21493697166443,chair,bicycle,5,0038_lp_s03_5_bicycle_10_n03792782_7180.png
subject-03,1,39,0.866895914077759,bicycle,cat,40,0039_lp_s03_40_cat_10_n02123045_2029.png
subject-03,1,40,0.720471143722534,boat,clock,15,0040_lp_s03_15_clock_10_n03196217_2488.png
subject-03,1,41,0.676378011703491,airplane,airplane,0,0041_lp_s03_0_airplane_10_n02690373_4269.png
subject-03,1,42,1.04015398025513,dog,dog,3,0042_lp_s03_3_dog_10_n02092002_12007.png
subject-03,1,43,0.761811017990112,bear,bear,10,0043_lp_s03_10_bear_10_n02134418_1311.png
subject-03,1,44,0.697741031646729,bear,bear,10,0044_lp_s03_10_bear_10_n02132136_10468.png
subject-03,1,45,0.821544170379639,bottle,bottle,5,0045_lp_s03_5_bottle_10_n02823428_5451.png
subject-03,1,46,1.29129099845886,oven,bird,40,0046_lp_s03_40_bird_10_n01514859_11682.png
subject-03,1,47,0.769090890884399,bottle,bottle,3,0047_lp_s03_3_bottle_10_n02823428_4658.png
subject-03,1,48,0.67928409576416,elephant,elephant,7,0048_lp_s03_7_elephant_10_n02504458_4838.png
subject-03,1,49,0.832648038864136,car,keyboard,10,0049_lp_s03_10_keyboard_10_n03085013_7285.png
subject-03,1,50,0.608582019805908,bicycle,bicycle,0,0050_lp_s03_0_bicycle_10_n02835271_14966.png
subject-03,1,51,1.1184618473053,boat,boat,1,0051_lp_s03_1_boat_10_n02951358_2445.png
subject-03,1,52,0.902112007141113,truck,truck,1,0052_lp_s03_1_truck_10_n03417042_12235.png
subject-03,1,53,1.12432789802551,bear,clock,10,0053_lp_s03_10_clock_10_n03196217_454.png
subject-03,1,54,0.729746103286743,truck,truck,1,0054_lp_s03_1_truck_10_n03417042_18554.png
subject-03,1,55,0.925885915756226,bird,bird,0,0055_lp_s03_0_bird_10_n02018795_5662.png
subject-03,1,56,0.801481008529663,elephant,elephant,3,0056_lp_s03_3_elephant_10_n02504013_9021.png
subject-03,1,57,0.553349018096924,boat,boat,3,0057_lp_s03_3_boat_10_n03344393_8265.png
subject-03,1,58,1.20911288261414,airplane,airplane,1,0058_lp_s03_1_airplane_10_n02690373_4079.png
subject-03,1,59,0.868962049484253,keyboard,keyboard,1,0059_lp_s03_1_keyboard_10_n03085013_23697.png
subject-03,1,60,0.952796936035156,bird,keyboard,5,0060_lp_s03_5_keyboard_10_n04505470_4878.png
subject-03,1,61,0.904616117477417,bicycle,elephant,40,0061_lp_s03_40_elephant_10_n02504013_4044.png
subject-03,1,62,0.906309127807617,truck,knife,5,0062_lp_s03_5_knife_10_n03041632_43506.png
subject-03,1,63,0.750458002090454,boat,cat,7,0063_lp_s03_7_cat_10_n02125311_53412.png
subject-03,1,64,0.887966871261597,chair,cat,10,0064_lp_s03_10_cat_10_n02125311_44401.png
subject-03,1,65,1.16980385780334,bicycle,elephant,7,0065_lp_s03_7_elephant_10_n02504013_24811.png
subject-03,1,66,0.609863042831421,boat,boat,5,0066_lp_s03_5_boat_10_n03344393_5916.png
subject-03,1,67,0.899296045303345,bear,truck,15,0067_lp_s03_15_truck_10_n04467665_39317.png
subject-03,1,68,1.03349900245667,oven,knife,40,0068_lp_s03_40_knife_10_n03041632_32459.png
subject-03,1,69,0.8890380859375,cat,cat,3,0069_lp_s03_3_cat_10_n02125311_37322.png
subject-03,1,70,1.32482481002808,chair,clock,1,0070_lp_s03_1_clock_10_n04548280_2809.png
subject-03,1,71,0.764605045318604,bottle,chair,40,0071_lp_s03_40_chair_10_n04099969_8018.png
subject-03,1,72,0.706326961517334,car,car,0,0072_lp_s03_0_car_10_n03100240_8327.png
subject-03,1,73,0.660336971282959,boat,car,15,0073_lp_s03_15_car_10_n03100240_2996.png
subject-03,1,74,1.03010678291321,car,bottle,3,0074_lp_s03_3_bottle_10_n04591713_5019.png
subject-03,1,75,0.689759016036987,car,car,7,0075_lp_s03_7_car_10_n03100240_1216.png
subject-03,1,76,0.629770040512085,bear,airplane,40,0076_lp_s03_40_airplane_10_n02690373_4591.png
subject-03,1,77,1.03953981399536,airplane,clock,40,0077_lp_s03_40_clock_10_n03196217_3903.png
subject-03,1,78,0.597223997116089,boat,boat,1,0078_lp_s03_1_boat_10_n04273569_1201.png
subject-03,1,79,1.04117608070374,knife,knife,7,0079_lp_s03_7_knife_10_n03041632_49513.png
subject-03,1,80,1.23299598693848,chair,car,5,0080_lp_s03_5_car_10_n02814533_9634.png
subject-03,1,81,0.574364900588989,boat,airplane,40,0081_lp_s03_40_airplane_10_n02690373_19134.png
subject-03,1,82,0.827769041061401,keyboard,keyboard,0,0082_lp_s03_0_keyboard_10_n03085013_23018.png
subject-03,1,83,0.81577205657959,bottle,oven,1,0083_lp_s03_1_oven_10_n04111531_3072.png
subject-03,1,84,0.625854969024658,bear,bear,7,0084_lp_s03_7_bear_10_n02133161_2281.png
subject-03,1,85,1.00523686408997,bear,keyboard,5,0085_lp_s03_5_keyboard_10_n03085013_2594.png
subject-03,1,86,0.895025968551636,dog,dog,3,0086_lp_s03_3_dog_10_n02111500_7233.png
subject-03,1,87,1.13336610794067,bird,elephant,10,0087_lp_s03_10_elephant_10_n02504013_7923.png
subject-03,1,88,0.514859914779663,car,car,3,0088_lp_s03_3_car_10_n02814533_36174.png
subject-03,1,89,0.726577997207642,bird,bird,3,0089_lp_s03_3_bird_10_n01582220_4078.png
subject-03,1,90,0.502710103988647,clock,clock,0,0090_lp_s03_0_clock_10_n04548280_9294.png
subject-03,1,91,0.752239942550659,cat,elephant,10,0091_lp_s03_10_elephant_10_n02504013_3197.png
subject-03,1,92,1.11598300933838,chair,airplane,5,0092_lp_s03_5_airplane_10_n02690373_6992.png
subject-03,1,93,0.563807010650635,boat,boat,0,0093_lp_s03_0_boat_10_n03344393_5350.png
subject-03,1,94,0.671541929244995,bear,truck,10,0094_lp_s03_10_truck_10_n03796401_16425.png
subject-03,1,95,0.641554117202759,bottle,bottle,0,0095_lp_s03_0_bottle_10_n02823428_40.png
subject-03,1,96,0.809547901153564,bicycle,bicycle,7,0096_lp_s03_7_bicycle_10_n02835271_769.png
subject-03,1,97,0.617022037506104,bicycle,bicycle,5,0097_lp_s03_5_bicycle_10_n03792782_6159.png
subject-03,1,98,1.38906216621399,bear,cat,10,0098_lp_s03_10_cat_10_n02123394_1690.png
subject-03,1,99,0.632894039154053,bird,bird,1,0099_lp_s03_1_bird_10_n02002556_5977.png
subject-03,1,100,0.548470020294189,bicycle,bicycle,0,0100_lp_s03_0_bicycle_10_n03792782_13281.png
subject-03,1,101,0.966212034225464,bear,bicycle,10,0101_lp_s03_10_bicycle_10_n02835271_8597.png
subject-03,1,102,0.778166055679321,dog,dog,1,0102_lp_s03_1_dog_10_n02113023_5237.png
subject-03,1,103,0.814043998718262,oven,chair,40,0103_lp_s03_40_chair_10_n04099969_7577.png
subject-03,1,104,0.585855960845947,oven,bottle,15,0104_lp_s03_15_bottle_10_n03937543_5678.png
subject-03,1,105,0.731582164764404,bird,bird,1,0105_lp_s03_1_bird_10_n01820546_4609.png
subject-03,1,106,0.889416933059692,bear,bear,1,0106_lp_s03_1_bear_10_n02133161_195.png
subject-03,1,107,0.801110982894897,boat,knife,15,0107_lp_s03_15_knife_10_n03041632_289.png
subject-03,1,108,0.811042070388794,dog,airplane,40,0108_lp_s03_40_airplane_10_n02690373_9687.png
subject-03,1,109,0.770709037780762,airplane,bird,15,0109_lp_s03_15_bird_10_n02002724_383.png
subject-03,1,110,0.864840984344482,clock,bottle,40,0110_lp_s03_40_bottle_10_n02823428_5227.png
subject-03,1,111,0.612376928329468,truck,truck,0,0111_lp_s03_0_truck_10_n04467665_17101.png
subject-03,1,112,0.710536003112793,oven,oven,5,0112_lp_s03_5_oven_10_n04111531_4155.png
subject-03,1,113,0.674381017684937,boat,bicycle,40,0113_lp_s03_40_bicycle_10_n02835271_14499.png
subject-03,1,114,0.947822093963623,oven,oven,3,0114_lp_s03_3_oven_10_n04111531_4370.png
subject-03,1,115,0.737722158432007,truck,truck,3,0115_lp_s03_3_truck_10_n03796401_3250.png
subject-03,1,116,0.809451103210449,keyboard,keyboard,1,0116_lp_s03_1_keyboard_10_n03085013_21097.png
subject-03,1,117,0.835233926773071,chair,chair,0,0117_lp_s03_0_chair_10_n03376595_1981.png
subject-03,1,118,0.879117012023926,keyboard,oven,15,0118_lp_s03_15_oven_10_n04111531_8269.png
subject-03,1,119,1.24672698974609,cat,bicycle,10,0119_lp_s03_10_bicycle_10_n03792782_7108.png
subject-03,1,120,1.01669096946716,boat,elephant,15,0120_lp_s03_15_elephant_10_n02504458_1000.png
subject-03,1,121,0.608486890792847,bird,bird,1,0121_lp_s03_1_bird_10_n01601694_3230.png
subject-03,1,122,0.774799108505249,cat,dog,0,0122_lp_s03_0_dog_10_n02097047_2800.png
subject-03,1,123,0.854292154312134,bear,oven,10,0123_lp_s03_10_oven_10_n04111531_24096.png
subject-03,1,124,0.951950073242188,cat,bicycle,7,0124_lp_s03_7_bicycle_10_n02835271_2900.png
subject-03,1,125,0.651925086975098,oven,oven,1,0125_lp_s03_1_oven_10_n04111531_14383.png
subject-03,1,126,0.693584203720093,car,car,1,0126_lp_s03_1_car_10_n04285008_39.png
subject-03,1,127,0.72131609916687,car,car,1,0127_lp_s03_1_car_10_n02814533_42547.png
subject-03,1,128,0.641400098800659,boat,dog,10,0128_lp_s03_10_dog_10_n02100735_1764.png
subject-03,1,129,1.04530191421509,bottle,elephant,40,0129_lp_s03_40_elephant_10_n02504458_5169.png
subject-03,1,130,0.724963188171387,chair,airplane,15,0130_lp_s03_15_airplane_10_n02690373_7239.png
subject-03,1,131,0.772550106048584,airplane,bird,40,0131_lp_s03_40_bird_10_n02028035_1677.png
subject-03,1,132,1.02666616439819,car,bicycle,5,0132_lp_s03_5_bicycle_10_n02835271_10556.png
subject-03,1,133,0.940470933914185,bear,cat,15,0133_lp_s03_15_cat_10_n02125311_44920.png
subject-03,1,134,0.838092088699341,keyboard,keyboard,7,0134_lp_s03_7_keyboard_10_n04505470_578.png
subject-03,1,135,0.881907939910889,keyboard,bottle,10,0135_lp_s03_10_bottle_10_n02823428_6766.png
subject-03,1,136,0.783840894699097,bear,bird,10,0136_lp_s03_10_bird_10_n01860187_27046.png
subject-03,1,137,0.611358165740967,keyboard,keyboard,7,0137_lp_s03_7_keyboard_10_n04505470_4501.png
subject-03,1,138,0.733283996582031,boat,boat,7,0138_lp_s03_7_boat_10_n03344393_4234.png
subject-03,1,139,0.801161050796509,keyboard,knife,3,0139_lp_s03_3_knife_10_n03041632_19866.png
subject-03,1,140,0.890868186950684,clock,bear,15,0140_lp_s03_15_bear_10_n02134084_8601.png
subject-03,1,141,0.586663007736206,bicycle,bicycle,0,0141_lp_s03_0_bicycle_10_n03792782_33649.png
subject-03,1,142,1.33066511154175,bird,bird,7,0142_lp_s03_7_bird_10_n02009229_11916.png
subject-03,1,143,0.834403991699219,bicycle,bicycle,3,0143_lp_s03_3_bicycle_10_n02835271_9202.png
subject-03,1,144,1.13210296630859,cat,knife,7,0144_lp_s03_7_knife_10_n03041632_25772.png
subject-03,1,145,0.607954978942871,boat,airplane,15,0145_lp_s03_15_airplane_10_n02690373_5845.png
subject-03,1,146,0.827851057052612,truck,chair,15,0146_lp_s03_15_chair_10_n04429376_24434.png
subject-03,1,147,0.757829904556274,car,car,3,0147_lp_s03_3_car_10_n02814533_44079.png
subject-03,1,148,0.691442966461182,clock,bird,7,0148_lp_s03_7_bird_10_n01829413_3550.png
subject-03,1,149,0.845315933227539,boat,boat,15,0149_lp_s03_15_boat_10_n04612504_13309.png
subject-03,1,150,0.996981143951416,chair,car,10,0150_lp_s03_10_car_10_n03100240_8670.png
subject-03,1,151,0.723169088363647,airplane,airplane,3,0151_lp_s03_3_airplane_10_n02690373_8650.png
subject-03,1,152,0.796693801879883,bird,bird,7,0152_lp_s03_7_bird_10_n02018795_5770.png
subject-03,1,153,0.784598827362061,dog,dog,1,0153_lp_s03_1_dog_10_n02097047_2376.png
subject-03,1,154,0.554182052612305,bicycle,bicycle,3,0154_lp_s03_3_bicycle_10_n02835271_9440.png
subject-03,1,155,0.636189937591553,car,truck,1,0155_lp_s03_1_truck_10_n03417042_5371.png
subject-03,1,156,0.695796012878418,boat,truck,15,0156_lp_s03_15_truck_10_n03417042_8121.png
subject-03,1,157,1.49999785423279,airplane,boat,40,0157_lp_s03_40_boat_10_n03662601_35800.png
subject-03,1,158,0.639436006546021,car,car,1,0158_lp_s03_1_car_10_n02814533_83577.png
subject-03,1,159,0.697366952896118,boat,dog,10,0159_lp_s03_10_dog_10_n02105056_9099.png
subject-03,1,160,0.719403982162476,bear,knife,10,0160_lp_s03_10_knife_10_n03041632_95293.png
subject-03,1,161,0.970781803131104,boat,bicycle,10,0161_lp_s03_10_bicycle_10_n02835271_22623.png
subject-03,1,162,0.622622966766357,boat,boat,3,0162_lp_s03_3_boat_10_n04273569_11445.png
subject-03,1,163,0.470618009567261,clock,clock,5,0163_lp_s03_5_clock_10_n04548280_2421.png
subject-03,1,164,0.906471014022827,bear,bear,10,0164_lp_s03_10_bear_10_n02133161_396.png
subject-03,1,165,1.00607395172119,cat,cat,3,0165_lp_s03_3_cat_10_n02125311_6283.png
subject-03,1,166,1.07367515563965,bicycle,truck,5,0166_lp_s03_5_truck_10_n04467665_30023.png
subject-03,1,167,0.709649085998535,truck,truck,1,0167_lp_s03_1_truck_10_n03417042_20591.png
subject-03,1,168,0.94727087020874,dog,bottle,10,0168_lp_s03_10_bottle_10_n02823428_5135.png
subject-03,1,169,0.747720956802368,airplane,airplane,10,0169_lp_s03_10_airplane_10_n02690373_18468.png
subject-03,1,170,0.845408916473389,bicycle,bicycle,10,0170_lp_s03_10_bicycle_10_n02835271_13862.png
subject-03,1,171,0.786926031112671,cat,bicycle,15,0171_lp_s03_15_bicycle_10_n02835271_6122.png
subject-03,1,172,0.680723905563354,chair,chair,0,0172_lp_s03_0_chair_10_n04429376_24319.png
subject-03,1,173,0.674483060836792,bottle,bottle,5,0173_lp_s03_5_bottle_10_n04591713_3495.png
subject-03,1,174,1.50007605552673,oven,bicycle,7,0174_lp_s03_7_bicycle_10_n02835271_12608.png
subject-03,1,175,1.19615411758423,bottle,bottle,3,0175_lp_s03_3_bottle_10_n04560804_19001.png
subject-03,1,176,0.74997091293335,boat,bear,3,0176_lp_s03_3_bear_10_n02134084_20142.png
subject-03,1,177,1.21213793754578,airplane,boat,15,0177_lp_s03_15_boat_10_n02951358_13352.png
subject-03,1,178,0.893877029418945,airplane,airplane,40,0178_lp_s03_40_airplane_10_n02690373_6002.png
subject-03,1,179,0.669695138931274,chair,chair,3,0179_lp_s03_3_chair_10_n04099969_18463.png
subject-03,1,180,0.83704686164856,keyboard,keyboard,0,0180_lp_s03_0_keyboard_10_n04505470_73.png
subject-03,1,181,0.782782793045044,bird,bird,5,0181_lp_s03_5_bird_10_n02009229_3118.png
subject-03,1,182,0.598893165588379,elephant,elephant,3,0182_lp_s03_3_elephant_10_n02504458_2994.png
subject-03,1,183,0.660728931427002,keyboard,keyboard,10,0183_lp_s03_10_keyboard_10_n04505470_9570.png
subject-03,1,184,0.830543041229248,airplane,cat,40,0184_lp_s03_40_cat_10_n02123159_4348.png
subject-03,1,185,0.944527149200439,bird,cat,5,0185_lp_s03_5_cat_10_n02123597_13835.png
subject-03,1,186,0.735918998718262,knife,knife,1,0186_lp_s03_1_knife_10_n03041632_33326.png
subject-03,1,187,0.543757915496826,bicycle,bicycle,1,0187_lp_s03_1_bicycle_10_n02835271_17184.png
subject-03,1,188,1.26155781745911,clock,bicycle,40,0188_lp_s03_40_bicycle_10_n03792782_1868.png
subject-03,1,189,0.581472158432007,clock,clock,15,0189_lp_s03_15_clock_10_n04548280_22641.png
subject-03,1,190,0.859236001968384,cat,cat,7,0190_lp_s03_7_cat_10_n02123597_14094.png
subject-03,1,191,0.911121129989624,bicycle,dog,10,0191_lp_s03_10_dog_10_n02091032_9464.png
subject-03,1,192,0.859009027481079,truck,truck,0,0192_lp_s03_0_truck_10_n04467665_19131.png
subject-03,1,193,1.14124608039856,bird,bird,1,0193_lp_s03_1_bird_10_n01819313_18188.png
subject-03,1,194,0.79256010055542,bear,bear,5,0194_lp_s03_5_bear_10_n02134084_20723.png
subject-03,1,195,0.732285022735596,bicycle,bicycle,7,0195_lp_s03_7_bicycle_10_n03792782_9692.png
subject-03,1,196,0.584289073944092,bear,bear,5,0196_lp_s03_5_bear_10_n02133161_5616.png
subject-03,1,197,1.10027599334717,bird,bird,1,0197_lp_s03_1_bird_10_n01530575_10332.png
subject-03,1,198,0.631775140762329,truck,boat,40,0198_lp_s03_40_boat_10_n03344393_2915.png
subject-03,1,199,0.929749965667725,keyboard,keyboard,0,0199_lp_s03_0_keyboard_10_n04505470_4044.png
subject-03,1,200,1.12148690223694,bottle,bottle,0,0200_lp_s03_0_bottle_10_n02823428_14536.png
subject-03,1,201,0.695396184921265,boat,boat,1,0201_lp_s03_1_boat_10_n03344393_5030.png
subject-03,1,202,1.10895395278931,bear,bear,0,0202_lp_s03_0_bear_10_n02134418_3952.png
subject-03,1,203,1.50014281272888,boat,boat,1,0203_lp_s03_1_boat_10_n03344393_4001.png
subject-03,1,204,0.65667200088501,boat,oven,7,0204_lp_s03_7_oven_10_n04111531_13354.png
subject-03,1,205,0.804508924484253,bicycle,dog,10,0205_lp_s03_10_dog_10_n02112018_11708.png
subject-03,1,206,0.9581618309021,bear,bear,5,0206_lp_s03_5_bear_10_n02132136_1152.png
subject-03,1,207,1.32821798324585,bird,bicycle,5,0207_lp_s03_5_bicycle_10_n02835271_7450.png
subject-03,1,208,0.909965991973877,cat,bottle,15,0208_lp_s03_15_bottle_10_n04557648_634.png
subject-03,1,209,1.50003504753113,oven,oven,1,0209_lp_s03_1_oven_10_n04111531_9427.png
subject-03,1,210,0.703641891479492,truck,truck,3,0210_lp_s03_3_truck_10_n03796401_599.png
subject-03,1,211,0.629342794418335,cat,cat,1,0211_lp_s03_1_cat_10_n02124075_8884.png
subject-03,1,212,0.593235015869141,bicycle,bicycle,3,0212_lp_s03_3_bicycle_10_n03792782_12421.png
subject-03,1,213,0.609054088592529,chair,chair,0,0213_lp_s03_0_chair_10_n04099969_2038.png
subject-03,1,214,0.840754985809326,clock,bear,40,0214_lp_s03_40_bear_10_n02133161_20090.png
subject-03,1,215,0.688699960708618,boat,bear,10,0215_lp_s03_10_bear_10_n02134084_24187.png
subject-03,1,216,0.824333906173706,bear,knife,10,0216_lp_s03_10_knife_10_n03041632_17091.png
subject-03,1,217,0.678231954574585,keyboard,keyboard,10,0217_lp_s03_10_keyboard_10_n03085013_7573.png
subject-03,1,218,1.49600195884705,bird,bear,10,0218_lp_s03_10_bear_10_n02133161_5106.png
subject-03,1,219,1.15387606620789,dog,bicycle,3,0219_lp_s03_3_bicycle_10_n03792782_9280.png
subject-03,1,220,1.02359390258789,oven,cat,15,0220_lp_s03_15_cat_10_n02123045_20570.png
subject-03,1,221,1.04357409477234,boat,truck,40,0221_lp_s03_40_truck_10_n03796401_10234.png
subject-03,1,222,0.961290121078491,airplane,airplane,0,0222_lp_s03_0_airplane_10_n02690373_10114.png
subject-03,1,223,0.669169902801514,bicycle,bicycle,0,0223_lp_s03_0_bicycle_10_n03792782_8287.png
subject-03,1,224,1.34711694717407,car,car,3,0224_lp_s03_3_car_10_n02814533_3202.png
subject-03,1,225,0.552742958068848,boat,boat,10,0225_lp_s03_10_boat_10_n03344393_4482.png
subject-03,1,226,0.502515077590942,cat,cat,0,0226_lp_s03_0_cat_10_n02123045_8215.png
subject-03,1,227,0.72638201713562,airplane,airplane,3,0227_lp_s03_3_airplane_10_n02690373_7487.png
subject-03,1,228,1.08022880554199,bird,bird,5,0228_lp_s03_5_bird_10_n01819313_5504.png
subject-03,1,229,1.35015487670898,bear,bear,5,0229_lp_s03_5_bear_10_n02134084_6606.png
subject-03,1,230,0.575829029083252,boat,bicycle,7,0230_lp_s03_7_bicycle_10_n03792782_1747.png
subject-03,1,231,0.67983603477478,boat,boat,0,0231_lp_s03_0_boat_10_n02951358_512.png
subject-03,1,232,0.837428092956543,cat,oven,10,0232_lp_s03_10_oven_10_n04111531_4392.png
subject-03,1,233,0.763143062591553,bird,bicycle,15,0233_lp_s03_15_bicycle_10_n03792782_54350.png
subject-03,1,234,1.50006985664368,bicycle,cat,7,0234_lp_s03_7_cat_10_n02123045_9184.png
subject-03,1,235,0.914977073669434,boat,elephant,15,0235_lp_s03_15_elephant_10_n02504013_5887.png
subject-03,1,236,0.742604970932007,airplane,airplane,7,0236_lp_s03_7_airplane_10_n02690373_5146.png
subject-03,1,237,0.902436971664429,dog,chair,15,0237_lp_s03_15_chair_10_n04429376_16192.png
subject-03,1,238,1.2704610824585,bicycle,bicycle,5,0238_lp_s03_5_bicycle_10_n03792782_22760.png
subject-03,1,239,0.610262155532837,clock,clock,7,0239_lp_s03_7_clock_10_n04548280_532.png
subject-03,1,240,0.637912034988403,cat,cat,0,0240_lp_s03_0_cat_10_n02123045_4237.png
subject-03,1,241,1.37594318389893,keyboard,knife,7,0241_lp_s03_7_knife_10_n03041632_4708.png
subject-03,1,242,0.611288785934448,clock,clock,1,0242_lp_s03_1_clock_10_n04548280_5320.png
subject-03,1,243,0.645204067230225,boat,truck,40,0243_lp_s03_40_truck_10_n04467665_66876.png
subject-03,1,244,1.33906698226929,cat,oven,40,0244_lp_s03_40_oven_10_n04111531_13625.png
subject-03,1,245,0.732955932617188,truck,truck,3,0245_lp_s03_3_truck_10_n03417042_7469.png
subject-03,1,246,0.59462308883667,clock,clock,10,0246_lp_s03_10_clock_10_n02708093_6572.png
subject-03,1,247,1.04836797714233,bottle,dog,40,0247_lp_s03_40_dog_10_n02088364_11910.png
subject-03,1,248,1.08422088623047,dog,chair,40,0248_lp_s03_40_chair_10_n04099969_20107.png
subject-03,1,249,1.07201480865479,truck,elephant,3,0249_lp_s03_3_elephant_10_n02504013_1502.png
subject-03,1,250,0.82175087928772,bicycle,bicycle,10,0250_lp_s03_10_bicycle_10_n02835271_20445.png
subject-03,1,251,0.935683965682983,keyboard,keyboard,5,0251_lp_s03_5_keyboard_10_n04505470_8364.png
subject-03,1,252,0.695651054382324,boat,truck,15,0252_lp_s03_15_truck_10_n03796401_3495.png
subject-03,1,253,0.715290069580078,bird,bird,0,0253_lp_s03_0_bird_10_n02017213_1163.png
subject-03,1,254,0.827013969421387,oven,oven,1,0254_lp_s03_1_oven_10_n04111531_22445.png
subject-03,1,255,0.866869926452637,bicycle,bicycle,0,0255_lp_s03_0_bicycle_10_n03792782_9512.png
subject-03,1,256,0.682887077331543,car,truck,5,0256_lp_s03_5_truck_10_n03417042_4665.png
subject-03,1,257,0.724462032318115,boat,chair,5,0257_lp_s03_5_chair_10_n04429376_5789.png
subject-03,1,258,0.732774972915649,clock,bird,5,0258_lp_s03_5_bird_10_n02025239_7919.png
subject-03,1,259,1.18228602409363,bear,bear,5,0259_lp_s03_5_bear_10_n02132136_9965.png
subject-03,1,260,NaN,na,oven,0,0260_lp_s03_0_oven_10_n04111531_21173.png
subject-03,1,261,0.729750156402588,car,car,7,0261_lp_s03_7_car_10_n04285008_13094.png
subject-03,1,262,0.613714933395386,elephant,elephant,5,0262_lp_s03_5_elephant_10_n02504458_3059.png
subject-03,1,263,0.805516958236694,oven,oven,1,0263_lp_s03_1_oven_10_n04111531_10640.png
subject-03,1,264,0.99731707572937,dog,dog,0,0264_lp_s03_0_dog_10_n02101006_17876.png
subject-03,1,265,0.883090972900391,chair,chair,3,0265_lp_s03_3_chair_10_n04099969_5584.png
subject-03,1,266,0.625216007232666,truck,truck,0,0266_lp_s03_0_truck_10_n03417042_10099.png
subject-03,1,267,1.02655601501465,knife,oven,0,0267_lp_s03_0_oven_10_n04111531_2189.png
subject-03,1,268,0.78472900390625,bird,bird,5,0268_lp_s03_5_bird_10_n01819313_3505.png
subject-03,1,269,0.89824104309082,keyboard,keyboard,1,0269_lp_s03_1_keyboard_10_n04505470_5112.png
subject-03,1,270,0.582452058792114,bicycle,bicycle,1,0270_lp_s03_1_bicycle_10_n03792782_104.png
subject-03,1,271,0.470346927642822,bicycle,bicycle,3,0271_lp_s03_3_bicycle_10_n03792782_72443.png
subject-03,1,272,1.02779507637024,bird,bear,7,0272_lp_s03_7_bear_10_n02134418_258.png
subject-03,1,273,0.835894823074341,knife,cat,7,0273_lp_s03_7_cat_10_n02123159_6954.png
subject-03,1,274,0.605386018753052,bottle,bottle,1,0274_lp_s03_1_bottle_10_n04591713_4232.png
subject-03,1,275,0.71921181678772,bicycle,chair,7,0275_lp_s03_7_chair_10_n04099969_12456.png
subject-03,1,276,0.671318054199219,boat,dog,7,0276_lp_s03_7_dog_10_n02092339_2636.png
subject-03,1,277,0.714723110198975,clock,keyboard,40,0277_lp_s03_40_keyboard_10_n04505470_4672.png
subject-03,1,278,0.686523914337158,boat,oven,10,0278_lp_s03_10_oven_10_n04111531_3717.png
subject-03,1,279,0.83833909034729,knife,knife,1,0279_lp_s03_1_knife_10_n03041632_45338.png
subject-03,1,280,0.776134014129639,bicycle,cat,7,0280_lp_s03_7_cat_10_n02123045_20512.png
subject-03,1,281,0.498076915740967,boat,boat,7,0281_lp_s03_7_boat_10_n03662601_16925.png
subject-03,1,282,0.719902038574219,bear,bear,0,0282_lp_s03_0_bear_10_n02134084_13075.png
subject-03,1,283,1.3096239566803,airplane,airplane,0,0283_lp_s03_0_airplane_10_n02690373_1051.png
subject-03,1,284,1.03134703636169,bird,bicycle,40,0284_lp_s03_40_bicycle_10_n03792782_43328.png
subject-03,1,285,0.729272842407227,bottle,bottle,3,0285_lp_s03_3_bottle_10_n04591713_3683.png
subject-03,1,286,0.933140993118286,car,dog,40,0286_lp_s03_40_dog_10_n02088364_3791.png
subject-03,1,287,1.26913404464722,elephant,elephant,7,0287_lp_s03_7_elephant_10_n02504013_7001.png
subject-03,1,288,0.744792938232422,bottle,bottle,1,0288_lp_s03_1_bottle_10_n04591713_6138.png
subject-03,1,289,0.946326971054077,bicycle,elephant,40,0289_lp_s03_40_elephant_10_n02504013_3634.png
subject-03,1,290,0.67029595375061,bear,bottle,15,0290_lp_s03_15_bottle_10_n02823428_6627.png
subject-03,1,291,0.600459098815918,clock,clock,3,0291_lp_s03_3_clock_10_n04548280_5765.png
subject-03,1,292,1.22989583015442,boat,chair,3,0292_lp_s03_3_chair_10_n03376595_5112.png
subject-03,1,293,1.06177306175232,car,airplane,10,0293_lp_s03_10_airplane_10_n02690373_5427.png
subject-03,1,294,0.863972902297974,bicycle,oven,10,0294_lp_s03_10_oven_10_n04111531_538.png
subject-03,1,295,0.659239053726196,oven,keyboard,40,0295_lp_s03_40_keyboard_10_n03085013_25809.png
subject-03,1,296,0.867089986801147,knife,knife,7,0296_lp_s03_7_knife_10_n03041632_50423.png
subject-03,1,297,0.628924131393433,clock,bear,40,0297_lp_s03_40_bear_10_n02132136_5815.png
subject-03,1,298,0.528828859329224,cat,keyboard,3,0298_lp_s03_3_keyboard_10_n03085013_18841.png
subject-03,1,299,0.650963068008423,clock,clock,0,0299_lp_s03_0_clock_10_n03196217_484.png
subject-03,1,300,0.638330936431885,car,car,3,0300_lp_s03_3_car_10_n03100240_2495.png
subject-03,1,301,0.93022894859314,boat,bicycle,15,0301_lp_s03_15_bicycle_10_n02835271_3535.png
subject-03,1,302,0.460184812545776,boat,boat,0,0302_lp_s03_0_boat_10_n03344393_8599.png
subject-03,1,303,0.933809995651245,oven,chair,7,0303_lp_s03_7_chair_10_n04099969_34325.png
subject-03,1,304,1.17778205871582,chair,keyboard,0,0304_lp_s03_0_keyboard_10_n03085013_26656.png
subject-03,1,305,1.50001001358032,keyboard,bird,5,0305_lp_s03_5_bird_10_n01824575_4941.png
subject-03,1,306,0.729283094406128,boat,boat,10,0306_lp_s03_10_boat_10_n03662601_12034.png
subject-03,1,307,1.14706802368164,bear,truck,15,0307_lp_s03_15_truck_10_n03796401_25386.png
subject-03,1,308,0.717099905014038,clock,bird,40,0308_lp_s03_40_bird_10_n02006656_8975.png
subject-03,1,309,0.916697978973389,dog,dog,7,0309_lp_s03_7_dog_10_n02088238_3078.png
subject-03,1,310,0.994415044784546,airplane,chair,15,0310_lp_s03_15_chair_10_n03376595_3462.png
subject-03,1,311,0.850312948226929,bear,cat,15,0311_lp_s03_15_cat_10_n02123597_11940.png
subject-03,1,312,0.42618989944458,clock,clock,3,0312_lp_s03_3_clock_10_n02708093_6252.png
subject-03,1,313,0.61830997467041,cat,cat,5,0313_lp_s03_5_cat_10_n02123394_1627.png
subject-03,1,314,0.813927173614502,bottle,bottle,1,0314_lp_s03_1_bottle_10_n04557648_6373.png
subject-03,1,315,1.46141290664673,bear,bear,5,0315_lp_s03_5_bear_10_n02132136_9815.png
subject-03,1,316,0.843430995941162,truck,truck,3,0316_lp_s03_3_truck_10_n03417042_5508.png
subject-03,1,317,0.645328998565674,car,car,3,0317_lp_s03_3_car_10_n03100240_7836.png
subject-03,1,318,1.50006699562073,boat,airplane,10,0318_lp_s03_10_airplane_10_n02690373_5176.png
subject-03,1,319,0.868860006332397,bottle,bear,5,0319_lp_s03_5_bear_10_n02134084_13175.png
subject-03,1,320,1.11470484733582,knife,knife,1,0320_lp_s03_1_knife_10_n03041632_2644.png
subject-03,1,321,0.691795110702515,boat,keyboard,15,0321_lp_s03_15_keyboard_10_n03085013_23731.png
subject-03,1,322,0.885640144348145,keyboard,keyboard,5,0322_lp_s03_5_keyboard_10_n04505470_4742.png
subject-03,1,323,0.703778982162476,dog,dog,5,0323_lp_s03_5_dog_10_n02102040_1660.png
subject-03,1,324,0.689266920089722,dog,dog,1,0324_lp_s03_1_dog_10_n02093754_5037.png
subject-03,1,325,0.515061140060425,chair,chair,5,0325_lp_s03_5_chair_10_n03376595_9692.png
subject-03,1,326,0.949054956436157,knife,knife,5,0326_lp_s03_5_knife_10_n03041632_29285.png
subject-03,1,327,0.738822937011719,dog,knife,15,0327_lp_s03_15_knife_10_n03041632_52848.png
subject-03,1,328,1.01650881767273,dog,boat,5,0328_lp_s03_5_boat_10_n04612504_15944.png
subject-03,1,329,0.738296985626221,car,car,5,0329_lp_s03_5_car_10_n04285008_2880.png
subject-03,1,330,0.692296981811523,boat,boat,7,0330_lp_s03_7_boat_10_n03662601_12308.png
subject-03,1,331,0.76787805557251,bicycle,chair,40,0331_lp_s03_40_chair_10_n02791124_2972.png
subject-03,1,332,1.38175582885742,bear,bear,1,0332_lp_s03_1_bear_10_n02134418_2231.png
subject-03,1,333,0.885700941085815,boat,elephant,40,0333_lp_s03_40_elephant_10_n02504013_7635.png
subject-03,1,334,0.555459022521973,clock,clock,3,0334_lp_s03_3_clock_10_n03196217_8325.png
subject-03,1,335,1.04338884353638,elephant,elephant,5,0335_lp_s03_5_elephant_10_n02504013_9396.png
subject-03,1,336,0.532978773117065,cat,cat,5,0336_lp_s03_5_cat_10_n02125311_22884.png
subject-03,1,337,0.750919103622437,airplane,knife,10,0337_lp_s03_10_knife_10_n03041632_11969.png
subject-03,1,338,0.640725135803223,clock,clock,5,0338_lp_s03_5_clock_10_n04548280_1097.png
subject-03,1,339,0.684478998184204,elephant,elephant,0,0339_lp_s03_0_elephant_10_n02504458_908.png
subject-03,1,340,0.856376886367798,cat,cat,1,0340_lp_s03_1_cat_10_n02124075_2268.png
subject-03,1,341,0.656126022338867,truck,truck,1,0341_lp_s03_1_truck_10_n03417042_820.png
subject-03,1,342,0.64795994758606,bird,car,15,0342_lp_s03_15_car_10_n02814533_36206.png
subject-03,1,343,0.653825044631958,car,truck,40,0343_lp_s03_40_truck_10_n04467665_13193.png
subject-03,1,344,0.705397844314575,cat,cat,10,0344_lp_s03_10_cat_10_n02123597_19450.png
subject-03,1,345,0.473273992538452,boat,boat,40,0345_lp_s03_40_boat_10_n03344393_2599.png
subject-03,1,346,0.611063957214355,elephant,elephant,1,0346_lp_s03_1_elephant_10_n02504458_3985.png
subject-03,1,347,0.836905002593994,clock,bear,15,0347_lp_s03_15_bear_10_n02133161_156.png
subject-03,1,348,0.812790155410767,boat,boat,40,0348_lp_s03_40_boat_10_n03344393_2148.png
subject-03,1,349,0.73851203918457,dog,dog,10,0349_lp_s03_10_dog_10_n02085782_7651.png
subject-03,1,350,0.50028395652771,boat,boat,3,0350_lp_s03_3_boat_10_n03662601_14478.png
subject-03,1,351,1.24822402000427,oven,oven,1,0351_lp_s03_1_oven_10_n04111531_7667.png
subject-03,1,352,0.516125917434692,clock,clock,0,0352_lp_s03_0_clock_10_n03196217_6160.png
subject-03,1,353,0.779912948608398,dog,dog,0,0353_lp_s03_0_dog_10_n02108422_1164.png
subject-03,1,354,0.657626152038574,truck,bottle,15,0354_lp_s03_15_bottle_10_n04557648_12559.png
subject-03,1,355,0.897394895553589,keyboard,keyboard,1,0355_lp_s03_1_keyboard_10_n03085013_23619.png
subject-03,1,356,1.20537114143372,dog,bird,15,0356_lp_s03_15_bird_10_n01531178_5130.png
subject-03,1,357,0.795115947723389,bird,bird,3,0357_lp_s03_3_bird_10_n01560419_1470.png
subject-03,1,358,0.744814872741699,car,car,5,0358_lp_s03_5_car_10_n03100240_16907.png
subject-03,1,359,1.40059399604797,bear,bear,7,0359_lp_s03_7_bear_10_n02134418_4696.png
subject-03,1,360,0.600466966629028,clock,keyboard,10,0360_lp_s03_10_keyboard_10_n03085013_2432.png
subject-03,1,361,0.632400035858154,bird,bird,3,0361_lp_s03_3_bird_10_n01829413_8792.png
subject-03,1,362,1.00442481040955,dog,bottle,7,0362_lp_s03_7_bottle_10_n03983396_587.png
subject-03,1,363,0.574027061462402,clock,clock,10,0363_lp_s03_10_clock_10_n02708093_135.png
subject-03,1,364,0.67775297164917,cat,dog,3,0364_lp_s03_3_dog_10_n02112018_6635.png
subject-03,1,365,0.743626832962036,bear,cat,7,0365_lp_s03_7_cat_10_n02123159_587.png
subject-03,1,366,0.629460096359253,boat,truck,10,0366_lp_s03_10_truck_10_n03417042_12308.png
subject-03,1,367,0.705160140991211,bear,bear,7,0367_lp_s03_7_bear_10_n02134418_5326.png
subject-03,1,368,0.672911882400513,elephant,elephant,0,0368_lp_s03_0_elephant_10_n02504458_7506.png
subject-03,1,369,0.598667144775391,chair,chair,1,0369_lp_s03_1_chair_10_n03376595_6942.png
subject-03,1,370,0.684650897979736,bottle,bottle,7,0370_lp_s03_7_bottle_10_n02823428_7630.png
subject-03,1,371,1.19446396827698,boat,chair,15,0371_lp_s03_15_chair_10_n02791124_3160.png
subject-03,1,372,1.01022791862488,elephant,bear,3,0372_lp_s03_3_bear_10_n02134418_14961.png
subject-03,1,373,1.05247902870178,bird,oven,3,0373_lp_s03_3_oven_10_n04111531_1002.png
subject-03,1,374,0.699999094009399,boat,boat,5,0374_lp_s03_5_boat_10_n02951358_12432.png
subject-03,1,375,1.49565291404724,bottle,truck,1,0375_lp_s03_1_truck_10_n03796401_2866.png
subject-03,1,376,0.99161696434021,bicycle,bear,15,0376_lp_s03_15_bear_10_n02134418_1978.png
subject-03,1,377,0.681331872940063,bicycle,airplane,40,0377_lp_s03_40_airplane_10_n02690373_1279.png
subject-03,1,378,0.571182012557983,boat,boat,15,0378_lp_s03_15_boat_10_n04612504_26151.png
subject-03,1,379,0.833002090454102,bicycle,keyboard,40,0379_lp_s03_40_keyboard_10_n03085013_22960.png
subject-03,1,380,0.472856998443604,clock,clock,3,0380_lp_s03_3_clock_10_n02708093_1747.png
subject-03,1,381,0.914615869522095,boat,dog,15,0381_lp_s03_15_dog_10_n02091244_10926.png
subject-03,1,382,0.708275079727173,oven,chair,10,0382_lp_s03_10_chair_10_n04099969_3623.png
subject-03,1,383,1.0221631526947,bicycle,bottle,7,0383_lp_s03_7_bottle_10_n04560804_15577.png
subject-03,1,384,1.06400513648987,bear,bear,0,0384_lp_s03_0_bear_10_n02132136_2846.png
subject-03,1,385,1.06386303901672,chair,bottle,40,0385_lp_s03_40_bottle_10_n04557648_2002.png
subject-03,1,386,1.0015070438385,elephant,dog,5,0386_lp_s03_5_dog_10_n02092339_4132.png
subject-03,1,387,0.729648113250732,elephant,elephant,0,0387_lp_s03_0_elephant_10_n02504458_5482.png
subject-03,1,388,1.20338916778564,car,bird,40,0388_lp_s03_40_bird_10_n02006656_10568.png
subject-03,1,389,0.685175895690918,bird,truck,15,0389_lp_s03_15_truck_10_n03417042_1336.png
subject-03,1,390,0.692855834960938,airplane,airplane,1,0390_lp_s03_1_airplane_10_n02690373_11908.png
subject-03,1,391,0.904680013656616,bottle,cat,1,0391_lp_s03_1_cat_10_n02123045_5820.png
subject-03,1,392,0.760865926742554,dog,dog,5,0392_lp_s03_5_dog_10_n02091635_7361.png
subject-03,1,393,0.974209070205688,knife,knife,1,0393_lp_s03_1_knife_10_n03041632_6446.png
subject-03,1,394,0.768195867538452,bear,airplane,40,0394_lp_s03_40_airplane_10_n02690373_2656.png
subject-03,1,395,0.674041986465454,airplane,airplane,5,0395_lp_s03_5_airplane_10_n02690373_9086.png
subject-03,1,396,0.739747047424316,knife,knife,1,0396_lp_s03_1_knife_10_n03041632_24798.png
subject-03,1,397,1.33956599235535,cat,boat,3,0397_lp_s03_3_boat_10_n02951358_33722.png
subject-03,1,398,0.665305852890015,boat,cat,5,0398_lp_s03_5_cat_10_n02124075_13187.png
subject-03,1,399,0.847184181213379,car,cat,10,0399_lp_s03_10_cat_10_n02123394_1957.png
subject-03,1,400,0.71105694770813,boat,oven,15,0400_lp_s03_15_oven_10_n04111531_5519.png
subject-03,1,401,0.484309911727905,clock,clock,5,0401_lp_s03_5_clock_10_n02708093_8051.png
subject-03,1,402,0.818336963653564,elephant,elephant,10,0402_lp_s03_10_elephant_10_n02504458_5197.png
subject-03,1,403,0.868020057678223,bear,keyboard,40,0403_lp_s03_40_keyboard_10_n04505470_4492.png
subject-03,1,404,0.543749094009399,cat,dog,10,0404_lp_s03_10_dog_10_n02102040_6068.png
subject-03,1,405,0.577838897705078,car,bottle,40,0405_lp_s03_40_bottle_10_n03937543_5254.png
subject-03,1,406,0.51746392250061,truck,truck,1,0406_lp_s03_1_truck_10_n03417042_9480.png
subject-03,1,407,0.693310022354126,knife,chair,7,0407_lp_s03_7_chair_10_n03376595_4190.png
subject-03,1,408,0.781144857406616,airplane,airplane,1,0408_lp_s03_1_airplane_10_n02690373_9328.png
subject-03,1,409,0.542883157730103,boat,boat,5,0409_lp_s03_5_boat_10_n03662601_2743.png
subject-03,1,410,0.842967987060547,dog,dog,0,0410_lp_s03_0_dog_10_n02107312_3673.png
subject-03,1,411,0.858461856842041,car,car,1,0411_lp_s03_1_car_10_n04285008_10893.png
subject-03,1,412,0.778264045715332,airplane,airplane,0,0412_lp_s03_0_airplane_10_n02690373_7099.png
subject-03,1,413,0.670146942138672,cat,cat,0,0413_lp_s03_0_cat_10_n02123045_7482.png
subject-03,1,414,0.793919801712036,truck,truck,0,0414_lp_s03_0_truck_10_n04467665_18621.png
subject-03,1,415,0.655753135681152,boat,boat,1,0415_lp_s03_1_boat_10_n03662601_11901.png
subject-03,1,416,0.941473007202148,car,car,1,0416_lp_s03_1_car_10_n02814533_43868.png
subject-03,1,417,0.92334508895874,dog,dog,3,0417_lp_s03_3_dog_10_n02098105_1217.png
subject-03,1,418,0.747151136398315,airplane,airplane,7,0418_lp_s03_7_airplane_10_n02690373_4839.png
subject-03,1,419,0.823031902313232,bicycle,bicycle,10,0419_lp_s03_10_bicycle_10_n03792782_42795.png
subject-03,1,420,0.506772994995117,boat,boat,10,0420_lp_s03_10_boat_10_n03662601_8067.png
subject-03,1,421,1.50011992454529,elephant,dog,5,0421_lp_s03_5_dog_10_n02093256_6258.png
subject-03,1,422,1.40833497047424,bird,bottle,10,0422_lp_s03_10_bottle_10_n04557648_7601.png
subject-03,1,423,0.938555955886841,car,car,0,0423_lp_s03_0_car_10_n03100240_9625.png
subject-03,1,424,0.644006967544556,clock,clock,10,0424_lp_s03_10_clock_10_n02708093_6730.png
subject-03,1,425,0.650055885314941,bottle,cat,40,0425_lp_s03_40_cat_10_n02123159_5872.png
subject-03,1,426,0.90353798866272,elephant,elephant,0,0426_lp_s03_0_elephant_10_n02504013_1187.png
subject-03,1,427,0.933573007583618,dog,dog,5,0427_lp_s03_5_dog_10_n02108915_5514.png
subject-03,1,428,0.663274049758911,boat,boat,10,0428_lp_s03_10_boat_10_n03344393_7826.png
subject-03,1,429,0.535006046295166,bicycle,bicycle,1,0429_lp_s03_1_bicycle_10_n02835271_20920.png
subject-03,1,430,1.14114689826965,chair,chair,0,0430_lp_s03_0_chair_10_n02791124_13033.png
subject-03,1,431,0.66470193862915,bottle,bottle,3,0431_lp_s03_3_bottle_10_n04591713_7134.png
subject-03,1,432,0.742853879928589,bicycle,bicycle,0,0432_lp_s03_0_bicycle_10_n03792782_3136.png
subject-03,1,433,0.956316232681274,clock,clock,10,0433_lp_s03_10_clock_10_n03196217_8526.png
subject-03,1,434,0.610128879547119,boat,boat,1,0434_lp_s03_1_boat_10_n02951358_34917.png
subject-03,1,435,0.992180109024048,bear,chair,15,0435_lp_s03_15_chair_10_n02791124_3857.png
subject-03,1,436,0.489804983139038,clock,clock,0,0436_lp_s03_0_clock_10_n02708093_2762.png
subject-03,1,437,1.32958912849426,dog,dog,3,0437_lp_s03_3_dog_10_n02104365_3580.png
subject-03,1,438,1.17544198036194,bear,bear,0,0438_lp_s03_0_bear_10_n02134418_2719.png
subject-03,1,439,0.61940598487854,cat,cat,7,0439_lp_s03_7_cat_10_n02124075_9149.png
subject-03,1,440,0.635095119476318,bicycle,bicycle,1,0440_lp_s03_1_bicycle_10_n03792782_51466.png
subject-03,1,441,1.01081013679504,keyboard,oven,10,0441_lp_s03_10_oven_10_n04111531_13795.png
subject-03,1,442,0.802711963653564,oven,truck,40,0442_lp_s03_40_truck_10_n04467665_62626.png
subject-03,1,443,0.708493947982788,bird,bird,1,0443_lp_s03_1_bird_10_n02033041_11415.png
subject-03,1,444,0.994554042816162,keyboard,clock,40,0444_lp_s03_40_clock_10_n02708093_32.png
subject-03,1,445,1.34233593940735,airplane,boat,15,0445_lp_s03_15_boat_10_n04612504_19111.png
subject-03,1,446,1.37986302375793,bicycle,dog,15,0446_lp_s03_15_dog_10_n02107142_46045.png
subject-03,1,447,0.765787839889526,cat,cat,15,0447_lp_s03_15_cat_10_n02123159_6281.png
subject-03,1,448,1.11166310310364,knife,knife,0,0448_lp_s03_0_knife_10_n03041632_1006.png
subject-03,1,449,0.707390069961548,cat,dog,1,0449_lp_s03_1_dog_10_n02091467_3403.png
subject-03,1,450,0.63916802406311,truck,truck,0,0450_lp_s03_0_truck_10_n03417042_22918.png
subject-03,1,451,1.15088510513306,bottle,bird,40,0451_lp_s03_40_bird_10_n02056570_9872.png
subject-03,1,452,0.958870887756348,boat,bear,15,0452_lp_s03_15_bear_10_n02134084_19849.png
subject-03,1,453,0.750540018081665,truck,truck,5,0453_lp_s03_5_truck_10_n03796401_2656.png
subject-03,1,454,1.16849398612976,boat,car,10,0454_lp_s03_10_car_10_n03100240_15531.png
subject-03,1,455,0.78243613243103,airplane,airplane,5,0455_lp_s03_5_airplane_10_n02690373_7489.png
subject-03,1,456,0.648168802261353,boat,boat,1,0456_lp_s03_1_boat_10_n03344393_4616.png
subject-03,1,457,0.799751996994019,bird,bird,10,0457_lp_s03_10_bird_10_n02006656_11017.png
subject-03,1,458,0.515515804290771,boat,bear,5,0458_lp_s03_5_bear_10_n02132136_24311.png
subject-03,1,459,1.27137017250061,bottle,bicycle,10,0459_lp_s03_10_bicycle_10_n03792782_62398.png
subject-03,1,460,0.769245862960815,bear,bottle,10,0460_lp_s03_10_bottle_10_n03937543_1740.png
subject-03,1,461,0.697023153305054,car,bear,15,0461_lp_s03_15_bear_10_n02134084_22736.png
subject-03,1,462,1.00883197784424,chair,chair,10,0462_lp_s03_10_chair_10_n03376595_9176.png
subject-03,1,463,0.652711868286133,truck,truck,5,0463_lp_s03_5_truck_10_n04467665_34253.png
subject-03,1,464,0.712563991546631,bear,bear,1,0464_lp_s03_1_bear_10_n02132136_4271.png
subject-03,1,465,0.652281045913696,boat,truck,10,0465_lp_s03_10_truck_10_n04467665_67861.png
subject-03,1,466,0.666292905807495,dog,dog,0,0466_lp_s03_0_dog_10_n02100583_10960.png
subject-03,1,467,0.880006074905396,car,oven,40,0467_lp_s03_40_oven_10_n04111531_283.png
subject-03,1,468,0.633764028549194,bird,dog,40,0468_lp_s03_40_dog_10_n02105162_2662.png
subject-03,1,469,0.69582200050354,airplane,elephant,15,0469_lp_s03_15_elephant_10_n02504013_9393.png
subject-03,1,470,0.935352087020874,chair,chair,7,0470_lp_s03_7_chair_10_n04429376_14967.png
subject-03,1,471,0.691232919692993,keyboard,keyboard,3,0471_lp_s03_3_keyboard_10_n04505470_3947.png
subject-03,1,472,0.664827108383179,airplane,airplane,7,0472_lp_s03_7_airplane_10_n02690373_2923.png
subject-03,1,473,0.718900918960571,oven,oven,3,0473_lp_s03_3_oven_10_n04111531_5204.png
subject-03,1,474,0.82063889503479,oven,oven,0,0474_lp_s03_0_oven_10_n04111531_7189.png
subject-03,1,475,0.520421028137207,cat,cat,3,0475_lp_s03_3_cat_10_n02123597_72.png
subject-03,1,476,0.930180072784424,elephant,elephant,7,0476_lp_s03_7_elephant_10_n02504013_7674.png
subject-03,1,477,0.67802882194519,truck,truck,0,0477_lp_s03_0_truck_10_n03417042_24100.png
subject-03,1,478,0.878000974655151,bicycle,elephant,10,0478_lp_s03_10_elephant_10_n02504458_4587.png
subject-03,1,479,0.873740196228027,boat,elephant,40,0479_lp_s03_40_elephant_10_n02504013_572.png
subject-03,1,480,1.01752209663391,elephant,elephant,1,0480_lp_s03_1_elephant_10_n02504458_5766.png
subject-03,1,481,0.736928224563599,car,clock,40,0481_lp_s03_40_clock_10_n04548280_7662.png
subject-03,1,482,0.765146017074585,bear,dog,10,0482_lp_s03_10_dog_10_n02088364_2119.png
subject-03,1,483,0.888765096664429,bicycle,boat,15,0483_lp_s03_15_boat_10_n04273569_103.png
subject-03,1,484,0.61039400100708,truck,truck,3,0484_lp_s03_3_truck_10_n03417042_20133.png
subject-03,1,485,0.602447986602783,boat,boat,0,0485_lp_s03_0_boat_10_n03344393_3452.png
subject-03,1,486,0.566094875335693,bird,bird,3,0486_lp_s03_3_bird_10_n01601694_20287.png
subject-03,1,487,0.63588809967041,airplane,airplane,0,0487_lp_s03_0_airplane_10_n02690373_9401.png
subject-03,1,488,0.603718042373657,knife,knife,5,0488_lp_s03_5_knife_10_n03041632_5162.png
subject-03,1,489,0.693525075912476,bicycle,bicycle,0,0489_lp_s03_0_bicycle_10_n02835271_11929.png
subject-03,1,490,0.54534387588501,boat,bicycle,15,0490_lp_s03_15_bicycle_10_n03792782_5629.png
subject-03,1,491,0.927213907241821,airplane,airplane,15,0491_lp_s03_15_airplane_10_n02690373_5496.png
subject-03,1,492,0.587076902389526,truck,bottle,10,0492_lp_s03_10_bottle_10_n04591713_4876.png
subject-03,1,493,0.684767007827759,bicycle,car,15,0493_lp_s03_15_car_10_n04285008_9107.png
subject-03,1,494,0.850698947906494,bicycle,bicycle,7,0494_lp_s03_7_bicycle_10_n02835271_7426.png
subject-03,1,495,0.794327020645142,bear,boat,40,0495_lp_s03_40_boat_10_n04273569_5811.png
subject-03,1,496,1.15017414093018,knife,knife,3,0496_lp_s03_3_knife_10_n03041632_13108.png
subject-03,1,497,0.702096939086914,car,bottle,40,0497_lp_s03_40_bottle_10_n03937543_1391.png
subject-03,1,498,0.776335000991821,knife,knife,5,0498_lp_s03_5_knife_10_n03041632_4879.png
subject-03,1,499,0.699574947357178,keyboard,keyboard,7,0499_lp_s03_7_keyboard_10_n04505470_1120.png
subject-03,1,500,0.699608087539673,truck,truck,1,0500_lp_s03_1_truck_10_n04467665_50932.png
subject-03,1,501,0.601271867752075,chair,chair,0,0501_lp_s03_0_chair_10_n03376595_13927.png
subject-03,1,502,0.933010101318359,knife,knife,15,0502_lp_s03_15_knife_10_n03041632_1964.png
subject-03,1,503,0.9447340965271,airplane,boat,7,0503_lp_s03_7_boat_10_n03344393_3921.png
subject-03,1,504,0.831056833267212,knife,truck,40,0504_lp_s03_40_truck_10_n03417042_21758.png
subject-03,1,505,0.706568002700806,bottle,bottle,0,0505_lp_s03_0_bottle_10_n02823428_2422.png
subject-03,1,506,0.678664922714233,truck,truck,7,0506_lp_s03_7_truck_10_n03796401_4119.png
subject-03,1,507,0.60608696937561,airplane,airplane,10,0507_lp_s03_10_airplane_10_n02690373_13326.png
subject-03,1,508,0.727948904037476,clock,bear,40,0508_lp_s03_40_bear_10_n02133161_2120.png
subject-03,1,509,0.867586851119995,oven,keyboard,15,0509_lp_s03_15_keyboard_10_n04505470_313.png
subject-03,1,510,0.699948787689209,chair,airplane,3,0510_lp_s03_3_airplane_10_n02690373_10462.png
subject-03,1,511,0.779238939285278,bird,bird,10,0511_lp_s03_10_bird_10_n01532829_14545.png
subject-03,1,512,0.923266887664795,car,oven,15,0512_lp_s03_15_oven_10_n04111531_92.png
subject-03,1,513,0.630995988845825,cat,cat,10,0513_lp_s03_10_cat_10_n02123159_8396.png
subject-03,1,514,0.596785068511963,bear,oven,10,0514_lp_s03_10_oven_10_n04111531_8537.png
subject-03,1,515,0.902611017227173,truck,truck,5,0515_lp_s03_5_truck_10_n03796401_4878.png
subject-03,1,516,0.488435983657837,clock,clock,7,0516_lp_s03_7_clock_10_n04548280_4069.png
subject-03,1,517,0.590358018875122,keyboard,keyboard,7,0517_lp_s03_7_keyboard_10_n03085013_6828.png
subject-03,1,518,1.2580509185791,boat,keyboard,40,0518_lp_s03_40_keyboard_10_n03085013_23793.png
subject-03,1,519,0.729866981506348,truck,truck,10,0519_lp_s03_10_truck_10_n04467665_12177.png
subject-03,1,520,0.689651012420654,chair,chair,0,0520_lp_s03_0_chair_10_n03376595_6107.png
subject-03,1,521,1.08742022514343,bicycle,bicycle,0,0521_lp_s03_0_bicycle_10_n02835271_24213.png
subject-03,1,522,0.839365005493164,elephant,elephant,3,0522_lp_s03_3_elephant_10_n02504013_10330.png
subject-03,1,523,0.793030023574829,bear,airplane,40,0523_lp_s03_40_airplane_10_n02690373_2525.png
subject-03,1,524,1.38939881324768,bird,bottle,7,0524_lp_s03_7_bottle_10_n04591713_6923.png
subject-03,1,525,1.00869202613831,dog,dog,15,0525_lp_s03_15_dog_10_n02108915_1114.png
subject-03,1,526,1.18060398101807,truck,clock,40,0526_lp_s03_40_clock_10_n02708093_7810.png
subject-03,1,527,0.686370134353638,oven,boat,10,0527_lp_s03_10_boat_10_n02951358_3155.png
subject-03,1,528,0.682292938232422,boat,bird,7,0528_lp_s03_7_bird_10_n02009912_11907.png
subject-03,1,529,0.622101783752441,clock,clock,1,0529_lp_s03_1_clock_10_n02708093_3605.png
subject-03,1,530,0.697839975357056,keyboard,oven,7,0530_lp_s03_7_oven_10_n04111531_2086.png
subject-03,1,531,0.791610956192017,boat,cat,15,0531_lp_s03_15_cat_10_n02125311_24439.png
subject-03,1,532,1.31743288040161,bird,bird,10,0532_lp_s03_10_bird_10_n02013706_10026.png
subject-03,1,533,0.585457801818848,cat,knife,40,0533_lp_s03_40_knife_10_n03041632_28201.png
subject-03,1,534,0.753170013427734,dog,dog,1,0534_lp_s03_1_dog_10_n02091635_5740.png
subject-03,1,535,0.452759981155396,cat,cat,0,0535_lp_s03_0_cat_10_n02123597_680.png
subject-03,1,536,0.416800022125244,boat,knife,40,0536_lp_s03_40_knife_10_n03041632_8468.png
subject-03,1,537,0.666333913803101,bicycle,clock,10,0537_lp_s03_10_clock_10_n03196217_3986.png
subject-03,1,538,0.642448902130127,keyboard,airplane,40,0538_lp_s03_40_airplane_10_n02690373_5961.png
subject-03,1,539,1.35425305366516,oven,oven,5,0539_lp_s03_5_oven_10_n04111531_6080.png
subject-03,1,540,0.601968050003052,bear,elephant,5,0540_lp_s03_5_elephant_10_n02504013_1088.png
subject-03,1,541,0.863803148269653,dog,cat,3,0541_lp_s03_3_cat_10_n02123394_4789.png
subject-03,1,542,0.639629125595093,clock,clock,1,0542_lp_s03_1_clock_10_n03196217_8282.png
subject-03,1,543,0.667285919189453,bear,bear,7,0543_lp_s03_7_bear_10_n02134418_826.png
subject-03,1,544,0.637062788009644,boat,boat,0,0544_lp_s03_0_boat_10_n03344393_3349.png
subject-03,1,545,0.553009033203125,bicycle,bicycle,1,0545_lp_s03_1_bicycle_10_n02835271_19019.png
subject-03,1,546,0.673096895217896,boat,airplane,15,0546_lp_s03_15_airplane_10_n02690373_6336.png
subject-03,1,547,0.616631984710693,bicycle,bicycle,3,0547_lp_s03_3_bicycle_10_n02835271_2594.png
subject-03,1,548,1.08257102966309,chair,cat,40,0548_lp_s03_40_cat_10_n02124075_12815.png
subject-03,1,549,0.572466850280762,oven,knife,40,0549_lp_s03_40_knife_10_n03041632_31932.png
subject-03,1,550,0.722069025039673,boat,keyboard,15,0550_lp_s03_15_keyboard_10_n03085013_18797.png
subject-03,1,551,0.755729913711548,elephant,elephant,0,0551_lp_s03_0_elephant_10_n02504013_24486.png
subject-03,1,552,1.31581783294678,car,truck,5,0552_lp_s03_5_truck_10_n03417042_12128.png
subject-03,1,553,0.665307998657227,bottle,bottle,0,0553_lp_s03_0_bottle_10_n02823428_2510.png
subject-03,1,554,0.92327094078064,boat,keyboard,15,0554_lp_s03_15_keyboard_10_n03085013_24416.png
subject-03,1,555,0.617111921310425,bicycle,bicycle,40,0555_lp_s03_40_bicycle_10_n02835271_9690.png
subject-03,1,556,0.718854188919067,dog,bear,5,0556_lp_s03_5_bear_10_n02134418_3531.png
subject-03,1,557,1.29682993888855,bear,bear,3,0557_lp_s03_3_bear_10_n02133161_8614.png
subject-03,1,558,0.936608791351318,elephant,knife,15,0558_lp_s03_15_knife_10_n03041632_42887.png
subject-03,1,559,1.50009107589722,bicycle,truck,10,0559_lp_s03_10_truck_10_n03417042_1437.png
subject-03,1,560,0.680066108703613,knife,car,15,0560_lp_s03_15_car_10_n02814533_82674.png
subject-03,1,561,0.743796110153198,car,bicycle,40,0561_lp_s03_40_bicycle_10_n02835271_16850.png
subject-03,1,562,0.911586999893188,boat,truck,10,0562_lp_s03_10_truck_10_n03796401_28465.png
subject-03,1,563,0.757345914840698,clock,chair,15,0563_lp_s03_15_chair_10_n04099969_3312.png
subject-03,1,564,0.807080030441284,cat,chair,10,0564_lp_s03_10_chair_10_n04429376_16459.png
subject-03,1,565,0.849009990692139,chair,bottle,7,0565_lp_s03_7_bottle_10_n03937543_3358.png
subject-03,1,566,1.28080296516418,oven,oven,5,0566_lp_s03_5_oven_10_n04111531_15682.png
subject-03,1,567,0.862703084945679,bird,elephant,15,0567_lp_s03_15_elephant_10_n02504458_7835.png
subject-03,1,568,0.940308094024658,bottle,cat,15,0568_lp_s03_15_cat_10_n02124075_11888.png
subject-03,1,569,0.602308034896851,airplane,airplane,5,0569_lp_s03_5_airplane_10_n02690373_6543.png
subject-03,1,570,0.839951038360596,knife,knife,15,0570_lp_s03_15_knife_10_n03041632_28443.png
subject-03,1,571,0.77192497253418,cat,cat,3,0571_lp_s03_3_cat_10_n02123394_1038.png
subject-03,1,572,0.813598871231079,bottle,bottle,3,0572_lp_s03_3_bottle_10_n04557648_32252.png
subject-03,1,573,0.72145676612854,bicycle,bicycle,0,0573_lp_s03_0_bicycle_10_n02835271_12674.png
subject-03,1,574,0.737308025360107,oven,oven,0,0574_lp_s03_0_oven_10_n04111531_1612.png
subject-03,1,575,0.565200805664062,boat,boat,0,0575_lp_s03_0_boat_10_n04273569_12318.png
subject-03,1,576,1.12524390220642,clock,oven,10,0576_lp_s03_10_oven_10_n04111531_12830.png
subject-03,1,577,1.10493588447571,boat,boat,10,0577_lp_s03_10_boat_10_n04273569_19699.png
subject-03,1,578,1.07654595375061,knife,knife,0,0578_lp_s03_0_knife_10_n03041632_42156.png
subject-03,1,579,0.982608079910278,elephant,elephant,7,0579_lp_s03_7_elephant_10_n02504013_7774.png
subject-03,1,580,1.15204405784607,chair,clock,5,0580_lp_s03_5_clock_10_n04548280_9144.png
subject-03,1,581,1.09210991859436,knife,keyboard,10,0581_lp_s03_10_keyboard_10_n03085013_9533.png
subject-03,1,582,0.795881986618042,elephant,elephant,1,0582_lp_s03_1_elephant_10_n02504458_7634.png
subject-03,1,583,0.743643999099731,knife,knife,5,0583_lp_s03_5_knife_10_n03041632_12748.png
subject-03,1,584,1.0873110294342,dog,knife,15,0584_lp_s03_15_knife_10_n03041632_24326.png
subject-03,1,585,1.03115701675415,chair,chair,1,0585_lp_s03_1_chair_10_n04429376_19354.png
subject-03,1,586,1.18710708618164,bear,oven,1,0586_lp_s03_1_oven_10_n04111531_10313.png
subject-03,1,587,0.730752944946289,boat,truck,10,0587_lp_s03_10_truck_10_n04467665_7975.png
subject-03,1,588,0.624757051467896,keyboard,keyboard,1,0588_lp_s03_1_keyboard_10_n03085013_20303.png
subject-03,1,589,0.610418796539307,cat,cat,10,0589_lp_s03_10_cat_10_n02123394_3144.png
subject-03,1,590,0.884190082550049,bird,bird,15,0590_lp_s03_15_bird_10_n02056570_9572.png
subject-03,1,591,0.613941192626953,bear,bird,40,0591_lp_s03_40_bird_10_n01820546_1123.png
subject-03,1,592,0.94188404083252,dog,dog,1,0592_lp_s03_1_dog_10_n02086646_2810.png
subject-03,1,593,0.853669166564941,knife,car,40,0593_lp_s03_40_car_10_n02814533_7984.png
subject-03,1,594,0.813533067703247,chair,knife,0,0594_lp_s03_0_knife_10_n03041632_101673.png
subject-03,1,595,0.61327600479126,clock,clock,7,0595_lp_s03_7_clock_10_n02708093_7020.png
subject-03,1,596,0.803062915802002,truck,bicycle,40,0596_lp_s03_40_bicycle_10_n03792782_11851.png
subject-03,1,597,0.584858894348145,bear,knife,40,0597_lp_s03_40_knife_10_n03041632_29827.png
subject-03,1,598,0.56286883354187,boat,elephant,15,0598_lp_s03_15_elephant_10_n02504458_7477.png
subject-03,1,599,0.728666067123413,airplane,airplane,7,0599_lp_s03_7_airplane_10_n02690373_2564.png
subject-03,1,600,1.24658298492432,knife,bird,3,0600_lp_s03_3_bird_10_n01531178_15380.png
subject-03,1,601,0.738147974014282,elephant,elephant,7,0601_lp_s03_7_elephant_10_n02504458_1848.png
subject-03,1,602,0.516106128692627,car,car,3,0602_lp_s03_3_car_10_n02814533_35386.png
subject-03,1,603,0.861916065216064,boat,car,40,0603_lp_s03_40_car_10_n03100240_16525.png
subject-03,1,604,0.663811922073364,keyboard,keyboard,1,0604_lp_s03_1_keyboard_10_n04505470_532.png
subject-03,1,605,0.9134202003479,chair,chair,1,0605_lp_s03_1_chair_10_n02791124_15383.png
subject-03,1,606,0.513126850128174,bear,bottle,40,0606_lp_s03_40_bottle_10_n04560804_3392.png
subject-03,1,607,0.637079954147339,truck,chair,40,0607_lp_s03_40_chair_10_n04099969_10401.png
subject-03,1,608,0.657009124755859,airplane,truck,5,0608_lp_s03_5_truck_10_n04467665_69582.png
subject-03,1,609,0.690948963165283,bear,bear,3,0609_lp_s03_3_bear_10_n02132136_15407.png
subject-03,1,610,0.700485944747925,car,boat,15,0610_lp_s03_15_boat_10_n02951358_26579.png
subject-03,1,611,1.22849178314209,keyboard,keyboard,1,0611_lp_s03_1_keyboard_10_n03085013_20914.png
subject-03,1,612,0.480366945266724,cat,cat,5,0612_lp_s03_5_cat_10_n02123045_11034.png
subject-03,1,613,0.769948959350586,knife,knife,3,0613_lp_s03_3_knife_10_n03041632_13130.png
subject-03,1,614,1.15187406539917,bottle,bottle,1,0614_lp_s03_1_bottle_10_n04591713_360.png
subject-03,1,615,1.02757000923157,bear,bird,15,0615_lp_s03_15_bird_10_n01819313_6340.png
subject-03,1,616,1.16769194602966,clock,elephant,40,0616_lp_s03_40_elephant_10_n02504013_7143.png
subject-03,1,617,0.877161026000977,chair,chair,7,0617_lp_s03_7_chair_10_n03376595_3181.png
subject-03,1,618,1.24483895301819,dog,bear,10,0618_lp_s03_10_bear_10_n02134418_3793.png
subject-03,1,619,0.824870109558105,knife,airplane,40,0619_lp_s03_40_airplane_10_n02690373_4671.png
subject-03,1,620,1.36252593994141,oven,oven,3,0620_lp_s03_3_oven_10_n04111531_7329.png
subject-03,1,621,0.916311979293823,elephant,elephant,1,0621_lp_s03_1_elephant_10_n02504458_900.png
subject-03,1,622,1.03411078453064,boat,boat,0,0622_lp_s03_0_boat_10_n02951358_31986.png
subject-03,1,623,0.821949005126953,bear,dog,3,0623_lp_s03_3_dog_10_n02108915_3652.png
subject-03,1,624,1.13373303413391,dog,bicycle,15,0624_lp_s03_15_bicycle_10_n03792782_24734.png
subject-03,1,625,0.603931903839111,truck,truck,7,0625_lp_s03_7_truck_10_n03796401_7928.png
subject-03,1,626,0.809453964233398,boat,elephant,40,0626_lp_s03_40_elephant_10_n02504458_2419.png
subject-03,1,627,0.795414924621582,bottle,bottle,10,0627_lp_s03_10_bottle_10_n04591713_10065.png
subject-03,1,628,0.737062931060791,bicycle,bear,15,0628_lp_s03_15_bear_10_n02132136_786.png
subject-03,1,629,0.568989038467407,bear,bicycle,40,0629_lp_s03_40_bicycle_10_n03792782_17666.png
subject-03,1,630,0.700740814208984,airplane,airplane,5,0630_lp_s03_5_airplane_10_n02690373_2981.png
subject-03,1,631,0.640450954437256,truck,cat,15,0631_lp_s03_15_cat_10_n02123159_7629.png
subject-03,1,632,0.830251216888428,chair,boat,40,0632_lp_s03_40_boat_10_n02951358_16196.png
subject-03,1,633,1.14611387252808,cat,chair,7,0633_lp_s03_7_chair_10_n04099969_3984.png
subject-03,1,634,0.913963079452515,oven,dog,40,0634_lp_s03_40_dog_10_n02110627_22484.png
subject-03,1,635,0.603799104690552,clock,clock,0,0635_lp_s03_0_clock_10_n04548280_2169.png
subject-03,1,636,0.637549877166748,car,car,7,0636_lp_s03_7_car_10_n02814533_3594.png
subject-03,1,637,0.873480081558228,chair,oven,7,0637_lp_s03_7_oven_10_n04111531_2987.png
subject-03,1,638,0.623250961303711,bear,keyboard,10,0638_lp_s03_10_keyboard_10_n03085013_14351.png
subject-03,1,639,0.985064029693604,keyboard,clock,15,0639_lp_s03_15_clock_10_n04548280_8892.png
subject-03,1,640,0.854856967926025,bicycle,bottle,10,0640_lp_s03_10_bottle_10_n02823428_4983.png
subject-03,1,641,0.870461940765381,oven,clock,5,0641_lp_s03_5_clock_10_n03196217_743.png
subject-03,1,642,0.5921630859375,boat,boat,5,0642_lp_s03_5_boat_10_n02951358_33277.png
subject-03,1,643,0.717992067337036,bear,car,40,0643_lp_s03_40_car_10_n03100240_2042.png
subject-03,1,644,0.673700094223022,dog,dog,7,0644_lp_s03_7_dog_10_n02097047_911.png
subject-03,1,645,0.599514007568359,cat,bicycle,7,0645_lp_s03_7_bicycle_10_n03792782_5416.png
subject-03,1,646,1.21331310272217,oven,oven,15,0646_lp_s03_15_oven_10_n04111531_5168.png
subject-03,1,647,0.865061044692993,bird,bird,7,0647_lp_s03_7_bird_10_n02018795_500.png
subject-03,1,648,0.676805019378662,boat,chair,7,0648_lp_s03_7_chair_10_n03376595_3499.png
subject-03,1,649,0.628807067871094,bicycle,boat,7,0649_lp_s03_7_boat_10_n02951358_4551.png
subject-03,1,650,0.800455808639526,bicycle,bicycle,3,0650_lp_s03_3_bicycle_10_n02835271_3246.png
subject-03,1,651,0.546280145645142,bear,bear,0,0651_lp_s03_0_bear_10_n02132136_7586.png
subject-03,1,652,0.852054119110107,keyboard,keyboard,0,0652_lp_s03_0_keyboard_10_n03085013_12164.png
subject-03,1,653,0.648033857345581,boat,airplane,15,0653_lp_s03_15_airplane_10_n02690373_9427.png
subject-03,1,654,0.587786912918091,bottle,bottle,0,0654_lp_s03_0_bottle_10_n02823428_2918.png
subject-03,1,655,1.32772994041443,cat,dog,5,0655_lp_s03_5_dog_10_n02110185_7886.png
subject-03,1,656,0.783700942993164,knife,knife,0,0656_lp_s03_0_knife_10_n03041632_22570.png
subject-03,1,657,0.501360893249512,clock,clock,1,0657_lp_s03_1_clock_10_n04548280_5525.png
subject-03,1,658,0.807169914245605,elephant,elephant,0,0658_lp_s03_0_elephant_10_n02504458_6835.png
subject-03,1,659,0.59881591796875,car,car,5,0659_lp_s03_5_car_10_n03100240_3083.png
subject-03,1,660,1.12251305580139,car,car,1,0660_lp_s03_1_car_10_n03100240_595.png
subject-03,1,661,0.840409994125366,boat,clock,7,0661_lp_s03_7_clock_10_n02708093_6890.png
subject-03,1,662,0.952201128005981,knife,knife,5,0662_lp_s03_5_knife_10_n03041632_1661.png
subject-03,1,663,0.830135822296143,knife,knife,3,0663_lp_s03_3_knife_10_n03041632_12949.png
subject-03,1,664,0.498175144195557,clock,clock,5,0664_lp_s03_5_clock_10_n02708093_2307.png
subject-03,1,665,0.603693962097168,cat,cat,3,0665_lp_s03_3_cat_10_n02124075_8693.png
subject-03,1,666,0.991652965545654,bottle,bottle,1,0666_lp_s03_1_bottle_10_n04560804_22426.png
subject-03,1,667,0.649435997009277,chair,chair,3,0667_lp_s03_3_chair_10_n04429376_16952.png
subject-03,1,668,0.965306043624878,bear,oven,40,0668_lp_s03_40_oven_10_n04111531_4795.png
subject-03,1,669,0.894861936569214,bird,oven,7,0669_lp_s03_7_oven_10_n04111531_8603.png
subject-03,1,670,0.878674983978271,bird,bird,0,0670_lp_s03_0_bird_10_n01855672_15005.png
subject-03,1,671,1.04870510101318,bicycle,knife,40,0671_lp_s03_40_knife_10_n03041632_24950.png
subject-03,1,672,0.544322967529297,clock,clock,5,0672_lp_s03_5_clock_10_n04548280_3563.png
subject-03,1,673,1.17429184913635,cat,knife,15,0673_lp_s03_15_knife_10_n03041632_27848.png
subject-03,1,674,0.73206615447998,car,car,1,0674_lp_s03_1_car_10_n02814533_48541.png
subject-03,1,675,0.89975905418396,dog,dog,1,0675_lp_s03_1_dog_10_n02097298_6466.png
subject-03,1,676,0.461806058883667,clock,clock,3,0676_lp_s03_3_clock_10_n02708093_4912.png
subject-03,1,677,0.59329891204834,bear,bear,1,0677_lp_s03_1_bear_10_n02133161_1356.png
subject-03,1,678,0.829362869262695,boat,bottle,10,0678_lp_s03_10_bottle_10_n03937543_9524.png
subject-03,1,679,0.909158945083618,elephant,elephant,5,0679_lp_s03_5_elephant_10_n02504458_66.png
subject-03,1,680,0.856915950775146,airplane,airplane,3,0680_lp_s03_3_airplane_10_n02690373_15392.png
subject-03,1,681,1.01654410362244,dog,dog,7,0681_lp_s03_7_dog_10_n02090721_7040.png
subject-03,1,682,1.29276704788208,cat,dog,5,0682_lp_s03_5_dog_10_n02111129_6495.png
subject-03,1,683,0.850366830825806,truck,boat,40,0683_lp_s03_40_boat_10_n03662601_8947.png
subject-03,1,684,1.07229995727539,car,cat,40,0684_lp_s03_40_cat_10_n02124075_12325.png
subject-03,1,685,0.918087005615234,bear,oven,15,0685_lp_s03_15_oven_10_n04111531_9113.png
subject-03,1,686,0.87215518951416,bicycle,knife,5,0686_lp_s03_5_knife_10_n03041632_18311.png
subject-03,1,687,0.91162896156311,chair,bear,7,0687_lp_s03_7_bear_10_n02134418_860.png
subject-03,1,688,0.849392890930176,cat,clock,15,0688_lp_s03_15_clock_10_n03196217_82.png
subject-03,1,689,0.751211166381836,boat,car,15,0689_lp_s03_15_car_10_n02814533_58708.png
subject-03,1,690,1.13094902038574,bicycle,keyboard,5,0690_lp_s03_5_keyboard_10_n03085013_26573.png
subject-03,1,691,0.832817077636719,knife,keyboard,40,0691_lp_s03_40_keyboard_10_n03085013_19547.png
subject-03,1,692,0.854751110076904,keyboard,bottle,15,0692_lp_s03_15_bottle_10_n04591713_2952.png
subject-03,1,693,0.762501001358032,dog,dog,7,0693_lp_s03_7_dog_10_n02098105_2343.png
subject-03,1,694,0.780460834503174,bicycle,chair,7,0694_lp_s03_7_chair_10_n02791124_6276.png
subject-03,1,695,0.564388990402222,bicycle,bicycle,7,0695_lp_s03_7_bicycle_10_n03792782_6149.png
subject-03,1,696,0.54599404335022,cat,cat,1,0696_lp_s03_1_cat_10_n02125311_3174.png
subject-03,1,697,1.0117449760437,chair,bottle,7,0697_lp_s03_7_bottle_10_n03983396_6011.png
subject-03,1,698,0.847512006759644,dog,dog,0,0698_lp_s03_0_dog_10_n02109961_1223.png
subject-03,1,699,0.771324157714844,truck,bottle,40,0699_lp_s03_40_bottle_10_n04591713_5204.png
subject-03,1,700,0.603096008300781,boat,bicycle,7,0700_lp_s03_7_bicycle_10_n03792782_11950.png
subject-03,1,701,1.25485301017761,bear,oven,15,0701_lp_s03_15_oven_10_n04111531_8793.png
subject-03,1,702,0.718833923339844,oven,keyboard,3,0702_lp_s03_3_keyboard_10_n03085013_24578.png
subject-03,1,703,0.808706045150757,keyboard,bottle,40,0703_lp_s03_40_bottle_10_n02823428_79.png
subject-03,1,704,1.08632397651672,dog,bird,3,0704_lp_s03_3_bird_10_n01616318_6874.png
subject-03,1,705,1.01648712158203,airplane,keyboard,3,0705_lp_s03_3_keyboard_10_n04505470_4621.png
subject-03,1,706,0.634126901626587,bear,bear,3,0706_lp_s03_3_bear_10_n02133161_1480.png
subject-03,1,707,0.624174118041992,bottle,bottle,5,0707_lp_s03_5_bottle_10_n03983396_10469.png
subject-03,1,708,0.899689912796021,bird,bird,0,0708_lp_s03_0_bird_10_n01514859_12705.png
subject-03,1,709,0.65781307220459,bear,bear,1,0709_lp_s03_1_bear_10_n02134418_14.png
subject-03,1,710,0.599199056625366,clock,knife,40,0710_lp_s03_40_knife_10_n03041632_49363.png
subject-03,1,711,0.754966974258423,keyboard,keyboard,0,0711_lp_s03_0_keyboard_10_n03085013_14237.png
subject-03,1,712,0.779242992401123,car,car,10,0712_lp_s03_10_car_10_n03100240_4421.png
subject-03,1,713,0.999166011810303,oven,chair,15,0713_lp_s03_15_chair_10_n03376595_4464.png
subject-03,1,714,1.50008392333984,bear,elephant,3,0714_lp_s03_3_elephant_10_n02504458_6348.png
subject-03,1,715,0.698307991027832,oven,oven,0,0715_lp_s03_0_oven_10_n04111531_136.png
subject-03,1,716,0.936017036437988,elephant,elephant,1,0716_lp_s03_1_elephant_10_n02504458_1626.png
subject-03,1,717,0.970373153686523,car,car,5,0717_lp_s03_5_car_10_n03100240_2138.png
subject-03,1,718,1.24980688095093,airplane,airplane,1,0718_lp_s03_1_airplane_10_n02690373_5266.png
subject-03,1,719,0.683779001235962,boat,oven,5,0719_lp_s03_5_oven_10_n04111531_9548.png
subject-03,1,720,0.893352031707764,knife,knife,10,0720_lp_s03_10_knife_10_n03041632_20707.png
subject-03,1,721,0.664722919464111,bird,bird,7,0721_lp_s03_7_bird_10_n01614925_1097.png
subject-03,1,722,0.566589117050171,oven,oven,3,0722_lp_s03_3_oven_10_n04111531_857.png
subject-03,1,723,0.686446905136108,boat,bicycle,15,0723_lp_s03_15_bicycle_10_n02835271_21707.png
subject-03,1,724,0.788259983062744,car,car,7,0724_lp_s03_7_car_10_n02814533_6593.png
subject-03,1,725,0.486055135726929,boat,boat,5,0725_lp_s03_5_boat_10_n04273569_22332.png
subject-03,1,726,0.677764892578125,car,keyboard,10,0726_lp_s03_10_keyboard_10_n04505470_3132.png
subject-03,1,727,1.31370306015015,dog,bird,5,0727_lp_s03_5_bird_10_n01795545_952.png
subject-03,1,728,0.669502019882202,boat,boat,40,0728_lp_s03_40_boat_10_n04612504_7446.png
subject-03,1,729,0.559392929077148,car,truck,7,0729_lp_s03_7_truck_10_n03796401_7527.png
subject-03,1,730,0.813369035720825,knife,knife,7,0730_lp_s03_7_knife_10_n03041632_46914.png
subject-03,1,731,0.893159151077271,boat,bear,40,0731_lp_s03_40_bear_10_n02132136_14346.png
subject-03,1,732,0.693043947219849,clock,boat,15,0732_lp_s03_15_boat_10_n02951358_29341.png
subject-03,1,733,1.13487601280212,chair,knife,7,0733_lp_s03_7_knife_10_n03041632_992.png
subject-03,1,734,1.1043221950531,boat,boat,0,0734_lp_s03_0_boat_10_n03662601_1947.png
subject-03,1,735,0.790462017059326,airplane,airplane,3,0735_lp_s03_3_airplane_10_n02690373_5056.png
subject-03,1,736,0.888229131698608,bear,knife,40,0736_lp_s03_40_knife_10_n03041632_23678.png
subject-03,1,737,0.886110067367554,dog,dog,5,0737_lp_s03_5_dog_10_n02107683_1076.png
subject-03,1,738,1.21165585517883,boat,airplane,10,0738_lp_s03_10_airplane_10_n02690373_8813.png
subject-03,1,739,0.909372806549072,bird,bird,0,0739_lp_s03_0_bird_10_n01860187_10562.png
subject-03,1,740,0.931674957275391,car,car,3,0740_lp_s03_3_car_10_n03100240_16466.png
subject-03,1,741,0.675165176391602,bear,dog,40,0741_lp_s03_40_dog_10_n02108915_11208.png
subject-03,1,742,0.989221096038818,airplane,keyboard,40,0742_lp_s03_40_keyboard_10_n04505470_1338.png
subject-03,1,743,0.650789022445679,boat,boat,1,0743_lp_s03_1_boat_10_n03344393_5417.png
subject-03,1,744,0.442298173904419,clock,clock,10,0744_lp_s03_10_clock_10_n02708093_6214.png
subject-03,1,745,0.718407869338989,chair,chair,1,0745_lp_s03_1_chair_10_n04429376_5238.png
subject-03,1,746,0.601945877075195,boat,boat,7,0746_lp_s03_7_boat_10_n02951358_30909.png
subject-03,1,747,0.829897880554199,bottle,bottle,0,0747_lp_s03_0_bottle_10_n04591713_5465.png
subject-03,1,748,0.991605997085571,dog,cat,10,0748_lp_s03_10_cat_10_n02123159_3226.png
subject-03,1,749,1.49553799629211,bottle,knife,1,0749_lp_s03_1_knife_10_n03041632_86783.png
subject-03,1,750,0.61151909828186,boat,elephant,1,0750_lp_s03_1_elephant_10_n02504458_5671.png
subject-03,1,751,0.7711181640625,bicycle,truck,40,0751_lp_s03_40_truck_10_n04467665_67527.png
subject-03,1,752,1.23493885993958,chair,keyboard,5,0752_lp_s03_5_keyboard_10_n04505470_9331.png
subject-03,1,753,1.02514481544495,truck,knife,40,0753_lp_s03_40_knife_10_n03041632_28658.png
subject-03,1,754,0.578613996505737,boat,truck,10,0754_lp_s03_10_truck_10_n03796401_22618.png
subject-03,1,755,0.774372100830078,airplane,airplane,15,0755_lp_s03_15_airplane_10_n02690373_848.png
subject-03,1,756,0.658652067184448,bicycle,car,40,0756_lp_s03_40_car_10_n04285008_11748.png
subject-03,1,757,0.864190816879272,car,car,0,0757_lp_s03_0_car_10_n02814533_27571.png
subject-03,1,758,0.695898056030273,clock,clock,0,0758_lp_s03_0_clock_10_n03196217_2414.png
subject-03,1,759,1.01554608345032,knife,knife,3,0759_lp_s03_3_knife_10_n03041632_10000.png
subject-03,1,760,0.639553070068359,boat,boat,3,0760_lp_s03_3_boat_10_n03662601_1427.png
subject-03,1,761,0.647317886352539,bear,bear,0,0761_lp_s03_0_bear_10_n02134084_7373.png
subject-03,1,762,1.18295907974243,bird,bear,7,0762_lp_s03_7_bear_10_n02132136_4888.png
subject-03,1,763,0.62483286857605,boat,car,15,0763_lp_s03_15_car_10_n03100240_5383.png
subject-03,1,764,1.3706579208374,dog,oven,0,0764_lp_s03_0_oven_10_n04111531_19274.png
subject-03,1,765,0.604412078857422,keyboard,keyboard,3,0765_lp_s03_3_keyboard_10_n03085013_21030.png
subject-03,1,766,0.826247930526733,boat,car,40,0766_lp_s03_40_car_10_n02814533_51701.png
subject-03,1,767,0.772243022918701,bicycle,boat,10,0767_lp_s03_10_boat_10_n02951358_9146.png
subject-03,1,768,1.18796992301941,bicycle,bicycle,3,0768_lp_s03_3_bicycle_10_n03792782_210.png
subject-03,1,769,0.535696029663086,car,car,1,0769_lp_s03_1_car_10_n03100240_1535.png
subject-03,1,770,1.21351099014282,oven,oven,10,0770_lp_s03_10_oven_10_n04111531_11279.png
subject-03,1,771,0.631698131561279,airplane,airplane,3,0771_lp_s03_3_airplane_10_n02690373_939.png
subject-03,1,772,0.93123197555542,airplane,airplane,0,0772_lp_s03_0_airplane_10_n02690373_3212.png
subject-03,1,773,0.722853899002075,car,car,1,0773_lp_s03_1_car_10_n04285008_9411.png
subject-03,1,774,1.01669001579285,dog,dog,1,0774_lp_s03_1_dog_10_n02111500_2905.png
subject-03,1,775,0.894545078277588,elephant,elephant,3,0775_lp_s03_3_elephant_10_n02504013_1813.png
subject-03,1,776,0.850452899932861,bird,bottle,5,0776_lp_s03_5_bottle_10_n04560804_2176.png
subject-03,1,777,0.752293825149536,knife,keyboard,40,0777_lp_s03_40_keyboard_10_n03085013_19317.png
subject-03,1,778,0.612069845199585,car,car,3,0778_lp_s03_3_car_10_n03100240_8987.png
subject-03,1,779,0.908053874969482,knife,knife,0,0779_lp_s03_0_knife_10_n03041632_8528.png
subject-03,1,780,0.565760850906372,bear,bicycle,15,0780_lp_s03_15_bicycle_10_n02835271_317.png
subject-03,1,781,0.581557989120483,clock,clock,1,0781_lp_s03_1_clock_10_n03196217_7836.png
subject-03,1,782,0.613363027572632,truck,oven,40,0782_lp_s03_40_oven_10_n04111531_21366.png
subject-03,1,783,0.701406002044678,bicycle,truck,10,0783_lp_s03_10_truck_10_n03796401_180.png
subject-03,1,784,0.686875820159912,chair,boat,40,0784_lp_s03_40_boat_10_n03662601_33625.png
subject-03,1,785,0.622661113739014,oven,cat,15,0785_lp_s03_15_cat_10_n02124075_13747.png
subject-03,1,786,0.630648136138916,bottle,bottle,1,0786_lp_s03_1_bottle_10_n04579145_4162.png
subject-03,1,787,1.27029204368591,car,keyboard,7,0787_lp_s03_7_keyboard_10_n03085013_22942.png
subject-03,1,788,0.710076093673706,airplane,airplane,5,0788_lp_s03_5_airplane_10_n02690373_2579.png
subject-03,1,789,0.861932992935181,boat,boat,15,0789_lp_s03_15_boat_10_n04273569_3095.png
subject-03,1,790,0.913688898086548,chair,keyboard,5,0790_lp_s03_5_keyboard_10_n03085013_18785.png
subject-03,1,791,1.16573119163513,car,truck,7,0791_lp_s03_7_truck_10_n03417042_2633.png
subject-03,1,792,0.589372873306274,knife,knife,5,0792_lp_s03_5_knife_10_n03041632_25022.png
subject-03,1,793,0.529391050338745,bottle,bottle,5,0793_lp_s03_5_bottle_10_n02823428_4694.png
subject-03,1,794,0.877039909362793,chair,chair,0,0794_lp_s03_0_chair_10_n04099969_8032.png
subject-03,1,795,0.638752937316895,dog,dog,10,0795_lp_s03_10_dog_10_n02101006_15350.png
subject-03,1,796,1.28296303749084,truck,truck,7,0796_lp_s03_7_truck_10_n03417042_19905.png
subject-03,1,797,0.628452062606812,keyboard,keyboard,1,0797_lp_s03_1_keyboard_10_n04505470_3852.png
subject-03,1,798,0.872246980667114,chair,chair,5,0798_lp_s03_5_chair_10_n04429376_45302.png
subject-03,1,799,0.918089866638184,dog,elephant,15,0799_lp_s03_15_elephant_10_n02504013_2052.png
subject-03,1,800,0.417821884155273,clock,clock,1,0800_lp_s03_1_clock_10_n04548280_9700.png
subject-03,1,801,0.961421966552734,bottle,chair,5,0801_lp_s03_5_chair_10_n02791124_3222.png
subject-03,1,802,0.588791847229004,bottle,bottle,5,0802_lp_s03_5_bottle_10_n03983396_8164.png
subject-03,1,803,0.451030015945435,bicycle,bicycle,0,0803_lp_s03_0_bicycle_10_n03792782_6546.png
subject-03,1,804,0.652522087097168,bird,bird,0,0804_lp_s03_0_bird_10_n01592084_2971.png
subject-03,1,805,0.608144044876099,clock,clock,0,0805_lp_s03_0_clock_10_n04548280_4391.png
subject-03,1,806,0.538068056106567,airplane,airplane,1,0806_lp_s03_1_airplane_10_n02690373_349.png
subject-03,1,807,0.655832052230835,car,oven,7,0807_lp_s03_7_oven_10_n04111531_13862.png
subject-03,1,808,0.681887865066528,oven,oven,3,0808_lp_s03_3_oven_10_n04111531_8373.png
subject-03,1,809,0.689670085906982,boat,boat,1,0809_lp_s03_1_boat_10_n04612504_26238.png
subject-03,1,810,0.795693159103394,bear,bear,3,0810_lp_s03_3_bear_10_n02134084_4818.png
subject-03,1,811,0.945076942443848,chair,chair,5,0811_lp_s03_5_chair_10_n02791124_3731.png
subject-03,1,812,0.893374919891357,bear,bear,3,0812_lp_s03_3_bear_10_n02132136_6441.png
subject-03,1,813,0.878761053085327,car,bottle,15,0813_lp_s03_15_bottle_10_n03937543_5375.png
subject-03,1,814,0.95493483543396,bird,bird,3,0814_lp_s03_3_bird_10_n01855032_8133.png
subject-03,1,815,0.958411931991577,car,truck,10,0815_lp_s03_10_truck_10_n04467665_69202.png
subject-03,1,816,0.738196849822998,oven,knife,10,0816_lp_s03_10_knife_10_n03041632_93026.png
subject-03,1,817,1.43594908714294,elephant,elephant,10,0817_lp_s03_10_elephant_10_n02504458_11265.png
subject-03,1,818,0.797762155532837,elephant,elephant,3,0818_lp_s03_3_elephant_10_n02504013_1777.png
subject-03,1,819,0.925699234008789,bottle,clock,15,0819_lp_s03_15_clock_10_n02708093_2867.png
subject-03,1,820,0.797420024871826,chair,chair,3,0820_lp_s03_3_chair_10_n04099969_12546.png
subject-03,1,821,0.917316913604736,truck,oven,5,0821_lp_s03_5_oven_10_n04111531_20493.png
subject-03,1,822,1.32709217071533,knife,knife,15,0822_lp_s03_15_knife_10_n03041632_1884.png
subject-03,1,823,0.61496901512146,boat,boat,1,0823_lp_s03_1_boat_10_n03662601_1319.png
subject-03,1,824,1.08505797386169,chair,oven,0,0824_lp_s03_0_oven_10_n04111531_6313.png
subject-03,1,825,1.07265305519104,boat,boat,3,0825_lp_s03_3_boat_10_n03344393_5091.png
subject-03,1,826,0.592390060424805,cat,cat,5,0826_lp_s03_5_cat_10_n02123045_1126.png
subject-03,1,827,0.668390035629272,bicycle,truck,40,0827_lp_s03_40_truck_10_n03796401_9.png
subject-03,1,828,0.672044992446899,bear,bear,0,0828_lp_s03_0_bear_10_n02134084_7790.png
subject-03,1,829,0.571755886077881,boat,bird,5,0829_lp_s03_5_bird_10_n02025239_10733.png
subject-03,1,830,0.83160400390625,keyboard,keyboard,1,0830_lp_s03_1_keyboard_10_n03085013_5950.png
subject-03,1,831,0.85158896446228,oven,keyboard,15,0831_lp_s03_15_keyboard_10_n04505470_1479.png
subject-03,1,832,0.819333076477051,bird,bicycle,5,0832_lp_s03_5_bicycle_10_n03792782_15.png
subject-03,1,833,0.626982927322388,keyboard,keyboard,1,0833_lp_s03_1_keyboard_10_n03085013_9066.png
subject-03,1,834,0.892853021621704,elephant,elephant,5,0834_lp_s03_5_elephant_10_n02504013_22704.png
subject-03,1,835,0.870705127716064,bear,bird,15,0835_lp_s03_15_bird_10_n02028035_33583.png
subject-03,1,836,0.796496152877808,knife,bird,15,0836_lp_s03_15_bird_10_n01843383_2843.png
subject-03,1,837,0.832375049591064,car,chair,10,0837_lp_s03_10_chair_10_n02791124_6865.png
subject-03,1,838,0.620234966278076,boat,airplane,10,0838_lp_s03_10_airplane_10_n02690373_8543.png
subject-03,1,839,0.648339986801147,elephant,elephant,0,0839_lp_s03_0_elephant_10_n02504458_10428.png
subject-03,1,840,0.753782033920288,car,car,0,0840_lp_s03_0_car_10_n04285008_3961.png
subject-03,1,841,0.719537973403931,cat,dog,3,0841_lp_s03_3_dog_10_n02113023_12640.png
subject-03,1,842,0.527405023574829,cat,cat,1,0842_lp_s03_1_cat_10_n02124075_7663.png
subject-03,1,843,1.37727999687195,elephant,elephant,7,0843_lp_s03_7_elephant_10_n02504458_1336.png
subject-03,1,844,0.536943912506104,cat,cat,7,0844_lp_s03_7_cat_10_n02123597_14267.png
subject-03,1,845,0.676671981811523,bear,oven,15,0845_lp_s03_15_oven_10_n04111531_11530.png
subject-03,1,846,0.782569885253906,boat,bird,15,0846_lp_s03_15_bird_10_n01819313_5131.png
subject-03,1,847,0.650450944900513,airplane,airplane,10,0847_lp_s03_10_airplane_10_n02690373_2580.png
subject-03,1,848,0.816235065460205,clock,dog,15,0848_lp_s03_15_dog_10_n02101388_20966.png
subject-03,1,849,0.796104907989502,clock,clock,5,0849_lp_s03_5_clock_10_n03196217_2530.png
subject-03,1,850,0.95387601852417,knife,cat,15,0850_lp_s03_15_cat_10_n02123394_5909.png
subject-03,1,851,0.765566825866699,airplane,airplane,15,0851_lp_s03_15_airplane_10_n02690373_19329.png
subject-03,1,852,0.837433099746704,knife,knife,0,0852_lp_s03_0_knife_10_n03041632_3023.png
subject-03,1,853,1.11329007148743,dog,bird,7,0853_lp_s03_7_bird_10_n01622779_1370.png
subject-03,1,854,0.781245946884155,boat,knife,15,0854_lp_s03_15_knife_10_n03041632_40530.png
subject-03,1,855,0.641079902648926,knife,knife,10,0855_lp_s03_10_knife_10_n03041632_55711.png
subject-03,1,856,0.736673831939697,car,bear,40,0856_lp_s03_40_bear_10_n02132136_25168.png
subject-03,1,857,1.01458978652954,dog,bear,5,0857_lp_s03_5_bear_10_n02133161_1490.png
subject-03,1,858,0.884851932525635,bear,elephant,15,0858_lp_s03_15_elephant_10_n02504013_5463.png
subject-03,1,859,0.996177196502686,airplane,bear,10,0859_lp_s03_10_bear_10_n02134084_27899.png
subject-03,1,860,0.867883920669556,car,car,7,0860_lp_s03_7_car_10_n04285008_1674.png
subject-03,1,861,0.567802906036377,boat,keyboard,40,0861_lp_s03_40_keyboard_10_n03085013_21955.png
subject-03,1,862,0.819668054580688,knife,knife,1,0862_lp_s03_1_knife_10_n03041632_2468.png
subject-03,1,863,0.975697040557861,knife,car,5,0863_lp_s03_5_car_10_n04285008_7428.png
subject-03,1,864,0.599628925323486,bicycle,cat,40,0864_lp_s03_40_cat_10_n02123394_5111.png
subject-03,1,865,0.671000957489014,truck,truck,0,0865_lp_s03_0_truck_10_n03417042_4557.png
subject-03,1,866,0.690897941589355,knife,knife,3,0866_lp_s03_3_knife_10_n03041632_47410.png
subject-03,1,867,0.648941993713379,car,car,10,0867_lp_s03_10_car_10_n02814533_32924.png
subject-03,1,868,0.698408842086792,bird,bird,10,0868_lp_s03_10_bird_10_n02011460_17499.png
subject-03,1,869,0.558241128921509,bear,car,40,0869_lp_s03_40_car_10_n04285008_12868.png
subject-03,1,870,0.653970003128052,chair,keyboard,15,0870_lp_s03_15_keyboard_10_n03085013_7955.png
subject-03,1,871,0.929839134216309,bear,dog,7,0871_lp_s03_7_dog_10_n02111277_50807.png
subject-03,1,872,0.577541828155518,car,car,7,0872_lp_s03_7_car_10_n02814533_28783.png
subject-03,1,873,0.503643035888672,boat,boat,7,0873_lp_s03_7_boat_10_n04612504_12444.png
subject-03,1,874,0.833226919174194,cat,bicycle,15,0874_lp_s03_15_bicycle_10_n03792782_18294.png
subject-03,1,875,0.681204080581665,truck,truck,1,0875_lp_s03_1_truck_10_n03417042_5768.png
subject-03,1,876,0.879102945327759,airplane,chair,15,0876_lp_s03_15_chair_10_n04429376_7123.png
subject-03,1,877,0.560824871063232,car,car,5,0877_lp_s03_5_car_10_n03100240_7385.png
subject-03,1,878,1.31869602203369,chair,truck,7,0878_lp_s03_7_truck_10_n03796401_8212.png
subject-03,1,879,0.712399005889893,oven,bottle,15,0879_lp_s03_15_bottle_10_n03937543_2333.png
subject-03,1,880,0.736545085906982,bird,dog,10,0880_lp_s03_10_dog_10_n02088094_9379.png
subject-03,1,881,0.931846141815186,chair,bicycle,5,0881_lp_s03_5_bicycle_10_n02835271_24207.png
subject-03,1,882,0.75781512260437,bicycle,dog,40,0882_lp_s03_40_dog_10_n02113712_4014.png
subject-03,1,883,0.583466053009033,bear,cat,40,0883_lp_s03_40_cat_10_n02123159_3724.png
subject-03,1,884,1.34956693649292,bicycle,car,7,0884_lp_s03_7_car_10_n04285008_8666.png
subject-03,1,885,0.605013132095337,boat,airplane,10,0885_lp_s03_10_airplane_10_n02690373_7432.png
subject-03,1,886,1.07692503929138,airplane,knife,7,0886_lp_s03_7_knife_10_n03041632_16206.png
subject-03,1,887,0.816636800765991,airplane,boat,3,0887_lp_s03_3_boat_10_n03662601_25023.png
subject-03,1,888,0.628422975540161,keyboard,keyboard,3,0888_lp_s03_3_keyboard_10_n03085013_20515.png
subject-03,1,889,0.574692010879517,airplane,airplane,7,0889_lp_s03_7_airplane_10_n02690373_2293.png
subject-03,1,890,0.968605995178223,elephant,clock,15,0890_lp_s03_15_clock_10_n02708093_274.png
subject-03,1,891,0.728288173675537,chair,chair,1,0891_lp_s03_1_chair_10_n02791124_2540.png
subject-03,1,892,0.715725183486938,keyboard,keyboard,7,0892_lp_s03_7_keyboard_10_n04505470_5150.png
subject-03,1,893,0.693531036376953,bird,bird,10,0893_lp_s03_10_bird_10_n02028035_17238.png
subject-03,1,894,0.513519048690796,oven,oven,15,0894_lp_s03_15_oven_10_n04111531_6508.png
subject-03,1,895,0.615260124206543,boat,bear,40,0895_lp_s03_40_bear_10_n02132136_7074.png
subject-03,1,896,0.747185945510864,bird,knife,15,0896_lp_s03_15_knife_10_n03041632_45264.png
subject-03,1,897,0.725097179412842,truck,airplane,15,0897_lp_s03_15_airplane_10_n02690373_17262.png
subject-03,1,898,0.696676969528198,boat,car,15,0898_lp_s03_15_car_10_n04285008_2781.png
subject-03,1,899,0.802647829055786,dog,dog,1,0899_lp_s03_1_dog_10_n02102480_7293.png
subject-03,1,900,0.93827486038208,bear,cat,40,0900_lp_s03_40_cat_10_n02124075_6638.png
subject-03,1,901,0.611989974975586,airplane,airplane,7,0901_lp_s03_7_airplane_10_n02690373_7370.png
subject-03,1,902,0.585751056671143,bicycle,oven,40,0902_lp_s03_40_oven_10_n04111531_5727.png
subject-03,1,903,0.613590955734253,car,car,7,0903_lp_s03_7_car_10_n02814533_44503.png
subject-03,1,904,0.559883117675781,airplane,airplane,1,0904_lp_s03_1_airplane_10_n02690373_5773.png
subject-03,1,905,0.619343996047974,dog,dog,3,0905_lp_s03_3_dog_10_n02091134_3075.png
subject-03,1,906,0.911327123641968,knife,chair,15,0906_lp_s03_15_chair_10_n02791124_3890.png
subject-03,1,907,0.925177097320557,knife,knife,0,0907_lp_s03_0_knife_10_n03041632_32048.png
subject-03,1,908,1.08497095108032,elephant,elephant,0,0908_lp_s03_0_elephant_10_n02504013_10990.png
subject-03,1,909,0.966826915740967,keyboard,bottle,5,0909_lp_s03_5_bottle_10_n04557648_29772.png
subject-03,1,910,1.0944459438324,knife,knife,3,0910_lp_s03_3_knife_10_n03041632_9256.png
subject-03,1,911,0.696527004241943,oven,oven,3,0911_lp_s03_3_oven_10_n04111531_8009.png
subject-03,1,912,0.51794695854187,car,car,0,0912_lp_s03_0_car_10_n04285008_11931.png
subject-03,1,913,0.807860851287842,bottle,bottle,0,0913_lp_s03_0_bottle_10_n04591713_2680.png
subject-03,1,914,0.94171404838562,elephant,elephant,7,0914_lp_s03_7_elephant_10_n02504458_716.png
subject-03,1,915,0.639473915100098,bear,dog,40,0915_lp_s03_40_dog_10_n02106662_56458.png
subject-03,1,916,1.29119801521301,airplane,bird,15,0916_lp_s03_15_bird_10_n01530575_10601.png
subject-03,1,917,0.81541895866394,boat,boat,7,0917_lp_s03_7_boat_10_n03662601_6042.png
subject-03,1,918,0.69284987449646,knife,knife,7,0918_lp_s03_7_knife_10_n03041632_2153.png
subject-03,1,919,1.03054094314575,bottle,bird,10,0919_lp_s03_10_bird_10_n02002556_5829.png
subject-03,1,920,1.39053702354431,bicycle,bicycle,1,0920_lp_s03_1_bicycle_10_n02835271_14235.png
subject-03,1,921,0.752262115478516,boat,bottle,15,0921_lp_s03_15_bottle_10_n03937543_2759.png
subject-03,1,922,0.880531072616577,elephant,elephant,10,0922_lp_s03_10_elephant_10_n02504458_3648.png
subject-03,1,923,0.693957090377808,oven,oven,3,0923_lp_s03_3_oven_10_n04111531_5171.png
subject-03,1,924,0.643686056137085,oven,oven,0,0924_lp_s03_0_oven_10_n04111531_15052.png
subject-03,1,925,0.895710945129395,truck,truck,1,0925_lp_s03_1_truck_10_n04467665_69447.png
subject-03,1,926,0.591359853744507,cat,cat,0,0926_lp_s03_0_cat_10_n02125311_35785.png
subject-03,1,927,0.673314094543457,bicycle,bicycle,40,0927_lp_s03_40_bicycle_10_n03792782_3410.png
subject-03,1,928,0.977307796478271,elephant,elephant,10,0928_lp_s03_10_elephant_10_n02504013_3425.png
subject-03,1,929,0.897175073623657,knife,bird,5,0929_lp_s03_5_bird_10_n01582220_9023.png
subject-03,1,930,0.752982139587402,keyboard,chair,40,0930_lp_s03_40_chair_10_n02791124_1935.png
subject-03,1,931,1.05637192726135,dog,bear,1,0931_lp_s03_1_bear_10_n02132136_1584.png
subject-03,1,932,0.742248058319092,boat,car,15,0932_lp_s03_15_car_10_n03100240_22499.png
subject-03,1,933,1.50003004074097,bottle,chair,3,0933_lp_s03_3_chair_10_n03376595_12583.png
subject-03,1,934,1.06801605224609,bicycle,elephant,40,0934_lp_s03_40_elephant_10_n02504458_5875.png
subject-03,1,935,1.50000405311584,elephant,bear,3,0935_lp_s03_3_bear_10_n02133161_10141.png
subject-03,1,936,0.723445892333984,bottle,bottle,1,0936_lp_s03_1_bottle_10_n03937543_4723.png
subject-03,1,937,0.683361053466797,bird,bird,7,0937_lp_s03_7_bird_10_n01601694_10927.png
subject-03,1,938,0.613087177276611,boat,bear,15,0938_lp_s03_15_bear_10_n02133161_1372.png
subject-03,1,939,0.757007122039795,bird,bird,5,0939_lp_s03_5_bird_10_n02011460_19314.png
subject-03,1,940,0.63516902923584,bear,bear,1,0940_lp_s03_1_bear_10_n02132136_22604.png
subject-03,1,941,1.37248301506042,dog,cat,5,0941_lp_s03_5_cat_10_n02123159_3729.png
subject-03,1,942,0.852483034133911,truck,truck,3,0942_lp_s03_3_truck_10_n03417042_6272.png
subject-03,1,943,0.58617901802063,airplane,airplane,0,0943_lp_s03_0_airplane_10_n02690373_20690.png
subject-03,1,944,0.541985988616943,clock,clock,7,0944_lp_s03_7_clock_10_n02708093_3751.png
subject-03,1,945,0.685901880264282,boat,elephant,15,0945_lp_s03_15_elephant_10_n02504013_22813.png
subject-03,1,946,0.465435028076172,clock,clock,3,0946_lp_s03_3_clock_10_n04548280_4225.png
subject-03,1,947,0.655574083328247,car,oven,7,0947_lp_s03_7_oven_10_n04111531_14208.png
subject-03,1,948,0.97506308555603,oven,clock,15,0948_lp_s03_15_clock_10_n04548280_7181.png
subject-03,1,949,0.705041170120239,boat,boat,0,0949_lp_s03_0_boat_10_n02951358_29756.png
subject-03,1,950,0.552736043930054,cat,cat,1,0950_lp_s03_1_cat_10_n02123045_12206.png
subject-03,1,951,0.848695993423462,knife,keyboard,40,0951_lp_s03_40_keyboard_10_n03085013_21507.png
subject-03,1,952,0.642414093017578,truck,truck,3,0952_lp_s03_3_truck_10_n04467665_19645.png
subject-03,1,953,0.666595935821533,bear,oven,40,0953_lp_s03_40_oven_10_n04111531_20823.png
subject-03,1,954,0.87606406211853,bear,truck,15,0954_lp_s03_15_truck_10_n03417042_10229.png
subject-03,1,955,1.05987691879272,bottle,chair,10,0955_lp_s03_10_chair_10_n03376595_1798.png
subject-03,1,956,0.873865127563477,airplane,boat,5,0956_lp_s03_5_boat_10_n04273569_2037.png
subject-03,1,957,1.19761896133423,bear,car,40,0957_lp_s03_40_car_10_n04285008_14573.png
subject-03,1,958,0.585278034210205,bicycle,bicycle,1,0958_lp_s03_1_bicycle_10_n03792782_46807.png
subject-03,1,959,0.803431987762451,cat,knife,10,0959_lp_s03_10_knife_10_n03041632_3079.png
subject-03,1,960,0.821208953857422,bottle,bottle,0,0960_lp_s03_0_bottle_10_n03983396_16224.png
subject-03,1,961,0.748615026473999,bicycle,cat,10,0961_lp_s03_10_cat_10_n02123045_5747.png
subject-03,1,962,0.621973991394043,bear,bear,10,0962_lp_s03_10_bear_10_n02134418_745.png
subject-03,1,963,0.913852214813232,elephant,elephant,1,0963_lp_s03_1_elephant_10_n02504458_4868.png
subject-03,1,964,0.699506998062134,dog,knife,3,0964_lp_s03_3_knife_10_n03041632_19098.png
subject-03,1,965,0.727533102035522,oven,oven,3,0965_lp_s03_3_oven_10_n04111531_12725.png
subject-03,1,966,0.699393033981323,oven,oven,5,0966_lp_s03_5_oven_10_n04111531_585.png
subject-03,1,967,0.718976974487305,chair,chair,1,0967_lp_s03_1_chair_10_n03376595_8012.png
subject-03,1,968,1.02479004859924,dog,dog,3,0968_lp_s03_3_dog_10_n02088364_4980.png
subject-03,1,969,0.770774841308594,elephant,elephant,5,0969_lp_s03_5_elephant_10_n02504458_10013.png
subject-03,1,970,0.652696847915649,chair,chair,0,0970_lp_s03_0_chair_10_n04429376_8237.png
subject-03,1,971,0.988278865814209,chair,keyboard,15,0971_lp_s03_15_keyboard_10_n03085013_12079.png
subject-03,1,972,0.677992820739746,chair,chair,3,0972_lp_s03_3_chair_10_n04429376_15078.png
subject-03,1,973,0.4859299659729,clock,clock,3,0973_lp_s03_3_clock_10_n04548280_5422.png
subject-03,1,974,1.07968807220459,oven,keyboard,5,0974_lp_s03_5_keyboard_10_n03085013_23319.png
subject-03,1,975,1.05946087837219,bicycle,oven,40,0975_lp_s03_40_oven_10_n04111531_8181.png
subject-03,1,976,0.753362894058228,boat,keyboard,10,0976_lp_s03_10_keyboard_10_n04505470_4587.png
subject-03,1,977,0.913059949874878,keyboard,keyboard,5,0977_lp_s03_5_keyboard_10_n04505470_4371.png
subject-03,1,978,0.626853942871094,oven,bird,10,0978_lp_s03_10_bird_10_n01616318_2290.png
subject-03,1,979,0.674774885177612,truck,truck,0,0979_lp_s03_0_truck_10_n04467665_71305.png
subject-03,1,980,0.628536939620972,bottle,bottle,1,0980_lp_s03_1_bottle_10_n04557648_12301.png
subject-03,1,981,1.32027697563171,bear,bicycle,10,0981_lp_s03_10_bicycle_10_n03792782_16290.png
subject-03,1,982,0.556233882904053,boat,elephant,40,0982_lp_s03_40_elephant_10_n02504013_3857.png
subject-03,1,983,0.634109020233154,clock,clock,3,0983_lp_s03_3_clock_10_n04548280_289.png
subject-03,1,984,1.46595811843872,bottle,bicycle,10,0984_lp_s03_10_bicycle_10_n03792782_22620.png
subject-03,1,985,0.611685991287231,car,car,10,0985_lp_s03_10_car_10_n03100240_1605.png
subject-03,1,986,0.605487108230591,clock,clock,1,0986_lp_s03_1_clock_10_n04548280_7951.png
subject-03,1,987,0.781239986419678,boat,knife,10,0987_lp_s03_10_knife_10_n03041632_6309.png
subject-03,1,988,0.879284858703613,bird,bird,1,0988_lp_s03_1_bird_10_n01843065_3596.png
subject-03,1,989,1.03484606742859,bicycle,bicycle,7,0989_lp_s03_7_bicycle_10_n03792782_30229.png
subject-03,1,990,0.880556106567383,bicycle,bicycle,1,0990_lp_s03_1_bicycle_10_n03792782_22416.png
subject-03,1,991,0.932554006576538,truck,truck,3,0991_lp_s03_3_truck_10_n03796401_24833.png
subject-03,1,992,1.28245997428894,bottle,knife,5,0992_lp_s03_5_knife_10_n03041632_21723.png
subject-03,1,993,0.808073997497559,chair,chair,10,0993_lp_s03_10_chair_10_n04429376_6308.png
subject-03,1,994,0.562263011932373,bicycle,bicycle,5,0994_lp_s03_5_bicycle_10_n03792782_5578.png
subject-03,1,995,0.737706899642944,boat,boat,10,0995_lp_s03_10_boat_10_n03662601_8554.png
subject-03,1,996,0.859573125839233,chair,bottle,3,0996_lp_s03_3_bottle_10_n02823428_7650.png
subject-03,1,997,0.869384050369263,knife,chair,40,0997_lp_s03_40_chair_10_n04099969_20684.png
subject-03,1,998,0.915303945541382,airplane,bear,40,0998_lp_s03_40_bear_10_n02133161_444.png
subject-03,1,999,0.615163087844849,clock,clock,0,0999_lp_s03_0_clock_10_n04548280_3036.png
subject-03,1,1000,0.708788871765137,keyboard,keyboard,0,1000_lp_s03_0_keyboard_10_n03085013_10984.png
subject-03,1,1001,1.11440992355347,oven,dog,15,1001_lp_s03_15_dog_10_n02107312_1538.png
subject-03,1,1002,0.73872709274292,boat,truck,5,1002_lp_s03_5_truck_10_n04467665_79452.png
subject-03,1,1003,1.02266907691956,dog,dog,0,1003_lp_s03_0_dog_10_n02100735_3595.png
subject-03,1,1004,0.860068798065186,chair,keyboard,10,1004_lp_s03_10_keyboard_10_n03085013_5542.png
subject-03,1,1005,0.817862987518311,cat,cat,1,1005_lp_s03_1_cat_10_n02125311_22037.png
subject-03,1,1006,1.00564503669739,keyboard,keyboard,3,1006_lp_s03_3_keyboard_10_n03085013_8136.png
subject-03,1,1007,0.963464021682739,elephant,elephant,7,1007_lp_s03_7_elephant_10_n02504013_16929.png
subject-03,1,1008,1.14548492431641,knife,knife,0,1008_lp_s03_0_knife_10_n03041632_52702.png
subject-03,1,1009,1.1913161277771,cat,cat,5,1009_lp_s03_5_cat_10_n02123394_4164.png
subject-03,1,1010,0.675222873687744,bear,bird,40,1010_lp_s03_40_bird_10_n01824575_822.png
subject-03,1,1011,0.888842105865479,keyboard,keyboard,3,1011_lp_s03_3_keyboard_10_n04505470_5091.png
subject-03,1,1012,1.34890508651733,bear,bear,0,1012_lp_s03_0_bear_10_n02134418_5581.png
subject-03,1,1013,0.760543823242188,bicycle,bicycle,1,1013_lp_s03_1_bicycle_10_n02835271_12473.png
subject-03,1,1014,0.872416973114014,airplane,airplane,0,1014_lp_s03_0_airplane_10_n02690373_1386.png
subject-03,1,1015,0.704069852828979,clock,cat,40,1015_lp_s03_40_cat_10_n02124075_9066.png
subject-03,1,1016,0.695897102355957,car,car,0,1016_lp_s03_0_car_10_n03100240_1696.png
subject-03,1,1017,0.717505931854248,cat,cat,10,1017_lp_s03_10_cat_10_n02123045_1754.png
subject-03,1,1018,1.25336384773254,elephant,elephant,1,1018_lp_s03_1_elephant_10_n02504013_3739.png
subject-03,1,1019,1.02508497238159,dog,dog,7,1019_lp_s03_7_dog_10_n02091467_13440.png
subject-03,1,1020,0.837355852127075,truck,truck,0,1020_lp_s03_0_truck_10_n03796401_29952.png
subject-03,1,1021,0.572923898696899,airplane,airplane,1,1021_lp_s03_1_airplane_10_n02690373_2724.png
subject-03,1,1022,1.38255405426025,bird,bottle,3,1022_lp_s03_3_bottle_10_n03937543_11101.png
subject-03,1,1023,0.674657106399536,airplane,airplane,5,1023_lp_s03_5_airplane_10_n02690373_6887.png
subject-03,1,1024,0.936422109603882,oven,bottle,5,1024_lp_s03_5_bottle_10_n04560804_12411.png
subject-03,1,1025,0.938123941421509,clock,boat,40,1025_lp_s03_40_boat_10_n02951358_1461.png
subject-03,1,1026,0.754337072372437,chair,keyboard,15,1026_lp_s03_15_keyboard_10_n03085013_21397.png
subject-03,1,1027,0.704118967056274,car,clock,40,1027_lp_s03_40_clock_10_n04548280_9801.png
subject-03,1,1028,0.877498865127563,bear,bear,1,1028_lp_s03_1_bear_10_n02133161_11333.png
subject-03,1,1029,0.573438882827759,elephant,elephant,3,1029_lp_s03_3_elephant_10_n02504458_10336.png
subject-03,1,1030,0.949185848236084,clock,clock,1,1030_lp_s03_1_clock_10_n04548280_821.png
subject-03,1,1031,1.09295606613159,chair,chair,5,1031_lp_s03_5_chair_10_n03376595_302.png
subject-03,1,1032,0.776977777481079,knife,car,40,1032_lp_s03_40_car_10_n03100240_13842.png
subject-03,1,1033,0.520508050918579,bicycle,clock,40,1033_lp_s03_40_clock_10_n04548280_2942.png
subject-03,1,1034,0.716525077819824,airplane,airplane,7,1034_lp_s03_7_airplane_10_n02690373_8789.png
subject-03,1,1035,0.624498128890991,bear,truck,40,1035_lp_s03_40_truck_10_n03417042_10038.png
subject-03,1,1036,0.845974922180176,clock,knife,40,1036_lp_s03_40_knife_10_n03041632_10136.png
subject-03,1,1037,0.613932132720947,dog,dog,0,1037_lp_s03_0_dog_10_n02094258_4979.png
subject-03,1,1038,0.4859938621521,oven,clock,40,1038_lp_s03_40_clock_10_n02708093_8276.png
subject-03,1,1039,0.831565856933594,boat,bottle,10,1039_lp_s03_10_bottle_10_n03983396_12670.png
subject-03,1,1040,0.633419036865234,boat,car,15,1040_lp_s03_15_car_10_n02814533_9785.png
subject-03,1,1041,0.779011011123657,dog,dog,15,1041_lp_s03_15_dog_10_n02090721_583.png
subject-03,1,1042,0.922880887985229,knife,knife,7,1042_lp_s03_7_knife_10_n03041632_2058.png
subject-03,1,1043,0.906484842300415,boat,boat,3,1043_lp_s03_3_boat_10_n04273569_1137.png
subject-03,1,1044,0.714632034301758,dog,dog,0,1044_lp_s03_0_dog_10_n02086910_9742.png
subject-03,1,1045,0.846085071563721,bird,bird,1,1045_lp_s03_1_bird_10_n02051845_1935.png
subject-03,1,1046,0.49614691734314,boat,truck,15,1046_lp_s03_15_truck_10_n04467665_68463.png
subject-03,1,1047,0.95181679725647,truck,car,7,1047_lp_s03_7_car_10_n03100240_1406.png
subject-03,1,1048,0.625525951385498,chair,chair,7,1048_lp_s03_7_chair_10_n02791124_57.png
subject-03,1,1049,0.683573961257935,clock,clock,5,1049_lp_s03_5_clock_10_n02708093_1794.png
subject-03,1,1050,1.05527806282043,chair,keyboard,0,1050_lp_s03_0_keyboard_10_n03085013_8865.png
subject-03,1,1051,0.624908924102783,bicycle,bicycle,3,1051_lp_s03_3_bicycle_10_n02835271_18205.png
subject-03,1,1052,0.746901035308838,cat,cat,0,1052_lp_s03_0_cat_10_n02125311_21169.png
subject-03,1,1053,0.756644010543823,boat,dog,15,1053_lp_s03_15_dog_10_n02093859_3707.png
subject-03,1,1054,1.02846193313599,bear,bear,0,1054_lp_s03_0_bear_10_n02133161_2135.png
subject-03,1,1055,1.0922679901123,bear,dog,15,1055_lp_s03_15_dog_10_n02108422_932.png
subject-03,1,1056,0.680129051208496,keyboard,keyboard,7,1056_lp_s03_7_keyboard_10_n03085013_21534.png
subject-03,1,1057,0.777979135513306,boat,elephant,10,1057_lp_s03_10_elephant_10_n02504458_6107.png
subject-03,1,1058,0.663977146148682,truck,truck,7,1058_lp_s03_7_truck_10_n03417042_16856.png
subject-03,1,1059,0.697640895843506,boat,truck,15,1059_lp_s03_15_truck_10_n04467665_3125.png
subject-03,1,1060,0.94774317741394,cat,chair,15,1060_lp_s03_15_chair_10_n02791124_634.png
subject-03,1,1061,1.31528902053833,chair,chair,0,1061_lp_s03_0_chair_10_n04099969_16161.png
subject-03,1,1062,0.810970067977905,cat,bird,10,1062_lp_s03_10_bird_10_n02037110_554.png
subject-03,1,1063,0.75273609161377,car,car,10,1063_lp_s03_10_car_10_n03100240_6029.png
subject-03,1,1064,1.1026930809021,bird,clock,7,1064_lp_s03_7_clock_10_n03196217_3006.png
subject-03,1,1065,0.864454030990601,boat,bird,10,1065_lp_s03_10_bird_10_n01843383_277.png
subject-03,1,1066,0.480246067047119,clock,clock,3,1066_lp_s03_3_clock_10_n04548280_21263.png
subject-03,1,1067,0.706151008605957,keyboard,keyboard,3,1067_lp_s03_3_keyboard_10_n04505470_4432.png
subject-03,1,1068,0.865853071212769,dog,cat,0,1068_lp_s03_0_cat_10_n02123597_2370.png
subject-03,1,1069,1.11174607276917,car,car,5,1069_lp_s03_5_car_10_n03100240_2075.png
subject-03,1,1070,1.02938795089722,cat,cat,1,1070_lp_s03_1_cat_10_n02123597_7592.png
subject-03,1,1071,0.643377065658569,chair,chair,1,1071_lp_s03_1_chair_10_n02791124_66.png
subject-03,1,1072,0.823076009750366,elephant,elephant,3,1072_lp_s03_3_elephant_10_n02504013_3418.png
subject-03,1,1073,1.34104704856873,chair,oven,0,1073_lp_s03_0_oven_10_n04111531_10420.png
subject-03,1,1074,0.722828149795532,bird,bird,0,1074_lp_s03_0_bird_10_n02002556_15721.png
subject-03,1,1075,0.888483047485352,boat,oven,15,1075_lp_s03_15_oven_10_n04111531_21963.png
subject-03,1,1076,0.976300001144409,elephant,oven,15,1076_lp_s03_15_oven_10_n04111531_2350.png
subject-03,1,1077,0.894266128540039,bird,bird,0,1077_lp_s03_0_bird_10_n01833805_5839.png
subject-03,1,1078,0.758066177368164,car,keyboard,15,1078_lp_s03_15_keyboard_10_n03085013_22496.png
subject-03,1,1079,0.68412184715271,cat,truck,40,1079_lp_s03_40_truck_10_n03417042_20650.png
subject-03,1,1080,0.943558931350708,dog,bicycle,10,1080_lp_s03_10_bicycle_10_n02835271_19565.png
subject-03,1,1081,0.697629928588867,bird,bird,3,1081_lp_s03_3_bird_10_n01797886_2711.png
subject-03,1,1082,0.801581144332886,bicycle,bicycle,5,1082_lp_s03_5_bicycle_10_n02835271_10814.png
subject-03,1,1083,0.629209995269775,oven,oven,0,1083_lp_s03_0_oven_10_n04111531_22388.png
subject-03,1,1084,0.725004911422729,airplane,airplane,1,1084_lp_s03_1_airplane_10_n02690373_3988.png
subject-03,1,1085,1.31454586982727,bottle,dog,7,1085_lp_s03_7_dog_10_n02099849_3128.png
subject-03,1,1086,0.714479923248291,airplane,airplane,1,1086_lp_s03_1_airplane_10_n02690373_5010.png
