subj,Session,trial,rt,object_response,category,condition,imagename
subject-04,1,1,1.14607691764832,bear,cat,15,0001_lp_s04_15_cat_10_n02125311_24439.png
subject-04,1,2,1.31186699867249,bear,elephant,10,0002_lp_s04_10_elephant_10_n02504458_3648.png
subject-04,1,3,1.50011110305786,bird,car,15,0003_lp_s04_15_car_10_n02814533_36206.png
subject-04,1,4,0.807672023773193,dog,dog,5,0004_lp_s04_5_dog_10_n02107683_1076.png
subject-04,1,5,1.27975392341614,boat,clock,40,0005_lp_s04_40_clock_10_n04548280_2942.png
subject-04,1,6,1.14918518066406,elephant,elephant,0,0006_lp_s04_0_elephant_10_n02504013_3569.png
subject-04,1,7,1.28334903717041,chair,chair,10,0007_lp_s04_10_chair_10_n03376595_9176.png
subject-04,1,8,1.50012302398682,bird,bird,5,0008_lp_s04_5_bird_10_n01824575_4941.png
subject-04,1,9,0.816940069198608,airplane,airplane,3,0009_lp_s04_3_airplane_10_n02690373_3993.png
subject-04,1,10,1.1964168548584,clock,bottle,7,0010_lp_s04_7_bottle_10_n04591713_6923.png
subject-04,1,11,1.438227891922,chair,chair,15,0011_lp_s04_15_chair_10_n04429376_16192.png
subject-04,1,12,1.31614899635315,clock,bottle,7,0012_lp_s04_7_bottle_10_n03937543_3358.png
subject-04,1,13,0.845925092697144,knife,knife,0,0013_lp_s04_0_knife_10_n03041632_22570.png
subject-04,1,14,1.26376414299011,car,bottle,3,0014_lp_s04_3_bottle_10_n02823428_7650.png
subject-04,1,15,1.18759298324585,boat,bird,40,0015_lp_s04_40_bird_10_n02018795_4730.png
subject-04,1,16,1.03942108154297,bicycle,bicycle,0,0016_lp_s04_0_bicycle_10_n03792782_8287.png
subject-04,1,17,1.0630419254303,car,car,3,0017_lp_s04_3_car_10_n03100240_7836.png
subject-04,1,18,1.50003409385681,elephant,bear,7,0018_lp_s04_7_bear_10_n02134418_5326.png
subject-04,1,19,1.43090891838074,boat,bottle,40,0019_lp_s04_40_bottle_10_n04560804_3392.png
subject-04,1,20,1.13450717926025,oven,bird,10,0020_lp_s04_10_bird_10_n01616318_2290.png
subject-04,1,21,1.27280211448669,boat,boat,1,0021_lp_s04_1_boat_10_n03344393_4616.png
subject-04,1,22,1.50012397766113,dog,truck,10,0022_lp_s04_10_truck_10_n03417042_1437.png
subject-04,1,23,1.23439598083496,bear,bear,10,0023_lp_s04_10_bear_10_n02134418_3793.png
subject-04,1,24,1.19816398620605,keyboard,oven,10,0024_lp_s04_10_oven_10_n04111531_7619.png
subject-04,1,25,0.957671880722046,truck,truck,5,0025_lp_s04_5_truck_10_n04467665_34253.png
subject-04,1,26,1.04945683479309,chair,oven,1,0026_lp_s04_1_oven_10_n04111531_2715.png
subject-04,1,27,0.911361932754517,keyboard,keyboard,7,0027_lp_s04_7_keyboard_10_n04505470_1120.png
subject-04,1,28,0.767267942428589,bottle,bottle,0,0028_lp_s04_0_bottle_10_n02823428_40.png
subject-04,1,29,1.11082005500793,clock,boat,40,0029_lp_s04_40_boat_10_n02951358_16196.png
subject-04,1,30,1.41271591186523,keyboard,keyboard,15,0030_lp_s04_15_keyboard_10_n04505470_1479.png
subject-04,1,31,1.0483250617981,elephant,elephant,1,0031_lp_s04_1_elephant_10_n02504458_1626.png
subject-04,1,32,1.09853386878967,bird,bird,3,0032_lp_s04_3_bird_10_n01616318_6874.png
subject-04,1,33,1.1725218296051,boat,keyboard,15,0033_lp_s04_15_keyboard_10_n03085013_24416.png
subject-04,1,34,1.1080310344696,airplane,knife,15,0034_lp_s04_15_knife_10_n03041632_289.png
subject-04,1,35,1.20571303367615,boat,car,15,0035_lp_s04_15_car_10_n02814533_9785.png
subject-04,1,36,0.627427101135254,boat,boat,3,0036_lp_s04_3_boat_10_n03662601_14478.png
subject-04,1,37,0.931335926055908,clock,clock,5,0037_lp_s04_5_clock_10_n04548280_1097.png
subject-04,1,38,1.33949589729309,dog,bottle,15,0038_lp_s04_15_bottle_10_n03937543_5678.png
subject-04,1,39,1.35896110534668,dog,keyboard,10,0039_lp_s04_10_keyboard_10_n03085013_5542.png
subject-04,1,40,1.00886511802673,chair,chair,0,0040_lp_s04_0_chair_10_n03376595_1981.png
subject-04,1,41,0.714566946029663,boat,boat,1,0041_lp_s04_1_boat_10_n03662601_11901.png
subject-04,1,42,0.882410049438477,elephant,elephant,3,0042_lp_s04_3_elephant_10_n02504013_3418.png
subject-04,1,43,1.23222208023071,keyboard,airplane,40,0043_lp_s04_40_airplane_10_n02690373_9687.png
subject-04,1,44,1.26603317260742,chair,bicycle,15,0044_lp_s04_15_bicycle_10_n03792782_13051.png
subject-04,1,45,1.50008797645569,chair,oven,15,0045_lp_s04_15_oven_10_n04111531_9113.png
subject-04,1,46,1.37984895706177,airplane,airplane,7,0046_lp_s04_7_airplane_10_n02690373_8789.png
subject-04,1,47,0.799948930740356,cat,cat,0,0047_lp_s04_0_cat_10_n02125311_35785.png
subject-04,1,48,0.701308965682983,airplane,airplane,0,0048_lp_s04_0_airplane_10_n02690373_3212.png
subject-04,1,49,0.895256042480469,truck,truck,1,0049_lp_s04_1_truck_10_n03417042_9480.png
subject-04,1,50,1.05484986305237,bottle,bottle,1,0050_lp_s04_1_bottle_10_n04591713_4764.png
subject-04,1,51,1.50009393692017,clock,clock,40,0051_lp_s04_40_clock_10_n04548280_4143.png
subject-04,1,52,1.07064509391785,bear,bear,3,0052_lp_s04_3_bear_10_n02133161_8614.png
subject-04,1,53,1.33243989944458,oven,oven,5,0053_lp_s04_5_oven_10_n04111531_15682.png
subject-04,1,54,0.620656967163086,clock,clock,5,0054_lp_s04_5_clock_10_n04548280_2421.png
subject-04,1,55,0.902411937713623,airplane,airplane,0,0055_lp_s04_0_airplane_10_n02690373_10114.png
subject-04,1,56,0.774115085601807,car,car,3,0056_lp_s04_3_car_10_n03100240_8987.png
subject-04,1,57,1.1256639957428,chair,oven,3,0057_lp_s04_3_oven_10_n04111531_5171.png
subject-04,1,58,1.23339605331421,cat,elephant,40,0058_lp_s04_40_elephant_10_n02504458_5875.png
subject-04,1,59,1.1996021270752,bear,clock,15,0059_lp_s04_15_clock_10_n04548280_8998.png
subject-04,1,60,1.35114693641663,oven,oven,3,0060_lp_s04_3_oven_10_n04111531_4370.png
subject-04,1,61,1.50001907348633,keyboard,bird,10,0061_lp_s04_10_bird_10_n02011460_17499.png
subject-04,1,62,1.25258898735046,boat,bear,15,0062_lp_s04_15_bear_10_n02134084_22736.png
subject-04,1,63,1.018630027771,elephant,elephant,5,0063_lp_s04_5_elephant_10_n02504013_4424.png
subject-04,1,64,1.10039615631104,clock,cat,40,0064_lp_s04_40_cat_10_n02123159_4348.png
subject-04,1,65,1.44418096542358,clock,knife,5,0065_lp_s04_5_knife_10_n03041632_29285.png
subject-04,1,66,0.774019956588745,boat,boat,10,0066_lp_s04_10_boat_10_n03662601_8067.png
subject-04,1,67,1.17784094810486,bear,elephant,5,0067_lp_s04_5_elephant_10_n02504013_1088.png
subject-04,1,68,1.21572089195251,oven,knife,15,0068_lp_s04_15_knife_10_n03041632_24326.png
subject-04,1,69,0.949410200119019,knife,knife,0,0069_lp_s04_0_knife_10_n03041632_32337.png
subject-04,1,70,1.07927298545837,airplane,airplane,0,0070_lp_s04_0_airplane_10_n02690373_1386.png
subject-04,1,71,1.36510014533997,boat,bear,40,0071_lp_s04_40_bear_10_n02134084_12428.png
subject-04,1,72,1.38899087905884,keyboard,oven,15,0072_lp_s04_15_oven_10_n04111531_8793.png
subject-04,1,73,0.936795949935913,truck,truck,1,0073_lp_s04_1_truck_10_n03417042_820.png
subject-04,1,74,1.41661810874939,dog,bear,10,0074_lp_s04_10_bear_10_n02133161_5106.png
subject-04,1,75,0.764340877532959,truck,truck,1,0075_lp_s04_1_truck_10_n04467665_50932.png
subject-04,1,76,1.23402404785156,dog,dog,1,0076_lp_s04_1_dog_10_n02091467_3403.png
subject-04,1,77,1.49411916732788,oven,clock,5,0077_lp_s04_5_clock_10_n02708093_8051.png
subject-04,1,78,1.10384202003479,elephant,elephant,3,0078_lp_s04_3_elephant_10_n02504458_205.png
subject-04,1,79,0.8177649974823,clock,clock,3,0079_lp_s04_3_clock_10_n03196217_8325.png
subject-04,1,80,1.31334590911865,dog,dog,0,0080_lp_s04_0_dog_10_n02088094_3274.png
subject-04,1,81,0.76255989074707,cat,cat,1,0081_lp_s04_1_cat_10_n02124075_7663.png
subject-04,1,82,1.0164680480957,bear,clock,15,0082_lp_s04_15_clock_10_n04548280_7181.png
subject-04,1,83,0.718329906463623,bottle,bottle,3,0083_lp_s04_3_bottle_10_n04591713_7134.png
subject-04,1,84,1.34003806114197,cat,airplane,7,0084_lp_s04_7_airplane_10_n02690373_5146.png
subject-04,1,85,0.972191095352173,dog,dog,3,0085_lp_s04_3_dog_10_n02088364_4980.png
subject-04,1,86,1.09359097480774,bird,dog,10,0086_lp_s04_10_dog_10_n02091032_9464.png
subject-04,1,87,1.30570006370544,dog,bear,7,0087_lp_s04_7_bear_10_n02134418_258.png
subject-04,1,88,1.01949501037598,dog,dog,10,0088_lp_s04_10_dog_10_n02085782_7651.png
subject-04,1,89,1.28145384788513,clock,clock,15,0089_lp_s04_15_clock_10_n03196217_2488.png
subject-04,1,90,1.50014209747314,bird,bird,5,0090_lp_s04_5_bird_10_n01819313_3505.png
subject-04,1,91,0.953083038330078,dog,dog,3,0091_lp_s04_3_dog_10_n02113023_12640.png
subject-04,1,92,1.23872590065002,chair,boat,15,0092_lp_s04_15_boat_10_n02951358_29341.png
subject-04,1,93,1.02431988716125,oven,cat,15,0093_lp_s04_15_cat_10_n02123045_20570.png
subject-04,1,94,1.31219005584717,oven,keyboard,15,0094_lp_s04_15_keyboard_10_n03085013_7955.png
subject-04,1,95,1.07422399520874,bear,bicycle,15,0095_lp_s04_15_bicycle_10_n03792782_5629.png
subject-04,1,96,1.1358118057251,boat,car,40,0096_lp_s04_40_car_10_n03100240_5018.png
subject-04,1,97,1.37391710281372,boat,oven,7,0097_lp_s04_7_oven_10_n04111531_14208.png
subject-04,1,98,0.837737798690796,car,car,1,0098_lp_s04_1_car_10_n02814533_43868.png
subject-04,1,99,1.25726294517517,bottle,dog,15,0099_lp_s04_15_dog_10_n02091244_10926.png
subject-04,1,100,0.947031021118164,elephant,elephant,5,0100_lp_s04_5_elephant_10_n02504013_9396.png
subject-04,1,101,0.86923885345459,car,car,3,0101_lp_s04_3_car_10_n02814533_35386.png
subject-04,1,102,0.71282696723938,airplane,airplane,5,0102_lp_s04_5_airplane_10_n02690373_2579.png
subject-04,1,103,0.714508056640625,cat,cat,1,0103_lp_s04_1_cat_10_n02124075_2268.png
subject-04,1,104,1.25467395782471,knife,bird,15,0104_lp_s04_15_bird_10_n01530575_10601.png
subject-04,1,105,0.930129051208496,clock,clock,7,0105_lp_s04_7_clock_10_n03196217_1272.png
subject-04,1,106,0.802248954772949,bird,bird,0,0106_lp_s04_0_bird_10_n02017213_1163.png
subject-04,1,107,0.675693035125732,airplane,airplane,0,0107_lp_s04_0_airplane_10_n02690373_20690.png
subject-04,1,108,1.09569597244263,bird,bird,3,0108_lp_s04_3_bird_10_n01531178_15380.png
subject-04,1,109,0.989362001419067,chair,truck,7,0109_lp_s04_7_truck_10_n03796401_8212.png
subject-04,1,110,0.649240016937256,bear,bear,0,0110_lp_s04_0_bear_10_n02134084_7790.png
subject-04,1,111,1.13752889633179,bird,bird,5,0111_lp_s04_5_bird_10_n02025239_7919.png
subject-04,1,112,0.842996835708618,boat,boat,15,0112_lp_s04_15_boat_10_n04273569_3095.png
subject-04,1,113,1.22064399719238,bear,truck,15,0113_lp_s04_15_truck_10_n04467665_39317.png
subject-04,1,114,1.31252598762512,airplane,airplane,3,0114_lp_s04_3_airplane_10_n02690373_5056.png
subject-04,1,115,0.900262832641602,boat,boat,3,0115_lp_s04_3_boat_10_n02951358_33722.png
subject-04,1,116,0.732002973556519,chair,chair,0,0116_lp_s04_0_chair_10_n03376595_13927.png
subject-04,1,117,1.17786598205566,dog,dog,7,0117_lp_s04_7_dog_10_n02091467_13440.png
subject-04,1,118,1.32168102264404,chair,cat,5,0118_lp_s04_5_cat_10_n02125311_22884.png
subject-04,1,119,1.50002908706665,boat,dog,40,0119_lp_s04_40_dog_10_n02105162_2662.png
subject-04,1,120,1.25124788284302,cat,knife,10,0120_lp_s04_10_knife_10_n03041632_20707.png
subject-04,1,121,NaN,na,keyboard,10,0121_lp_s04_10_keyboard_10_n03085013_14351.png
subject-04,1,122,1.27901983261108,boat,airplane,10,0122_lp_s04_10_airplane_10_n02690373_13326.png
subject-04,1,123,0.825135231018066,airplane,airplane,1,0123_lp_s04_1_airplane_10_n02690373_2724.png
subject-04,1,124,0.84661602973938,truck,truck,1,0124_lp_s04_1_truck_10_n03417042_18554.png
subject-04,1,125,1.03042006492615,bear,keyboard,15,0125_lp_s04_15_keyboard_10_n03085013_22496.png
subject-04,1,126,1.26825308799744,clock,clock,1,0126_lp_s04_1_clock_10_n02708093_3605.png
subject-04,1,127,1.26999092102051,bear,elephant,10,0127_lp_s04_10_elephant_10_n02504458_4587.png
subject-04,1,128,0.659899950027466,clock,clock,1,0128_lp_s04_1_clock_10_n03196217_7836.png
subject-04,1,129,0.679665803909302,car,car,7,0129_lp_s04_7_car_10_n04285008_13094.png
subject-04,1,130,0.821512937545776,bicycle,bicycle,1,0130_lp_s04_1_bicycle_10_n03792782_51466.png
subject-04,1,131,0.933202981948853,bird,bird,1,0131_lp_s04_1_bird_10_n02033041_11415.png
subject-04,1,132,1.50010800361633,chair,knife,40,0132_lp_s04_40_knife_10_n03041632_24950.png
subject-04,1,133,1.18307113647461,keyboard,oven,15,0133_lp_s04_15_oven_10_n04111531_5168.png
subject-04,1,134,1.18911910057068,elephant,elephant,5,0134_lp_s04_5_elephant_10_n02504013_22704.png
subject-04,1,135,1.36656093597412,keyboard,keyboard,3,0135_lp_s04_3_keyboard_10_n03085013_24578.png
subject-04,1,136,0.870342016220093,elephant,elephant,0,0136_lp_s04_0_elephant_10_n02504013_1187.png
subject-04,1,137,1.0420401096344,bottle,bottle,1,0137_lp_s04_1_bottle_10_n04560804_22426.png
subject-04,1,138,1.29385304450989,clock,clock,10,0138_lp_s04_10_clock_10_n03196217_9160.png
subject-04,1,139,1.33789706230164,cat,dog,3,0139_lp_s04_3_dog_10_n02098105_1217.png
subject-04,1,140,1.33757495880127,airplane,knife,40,0140_lp_s04_40_knife_10_n03041632_8468.png
subject-04,1,141,1.14135003089905,truck,truck,3,0141_lp_s04_3_truck_10_n03796401_23774.png
subject-04,1,142,1.50002908706665,boat,dog,10,0142_lp_s04_10_dog_10_n02112018_11708.png
subject-04,1,143,0.943184852600098,knife,knife,1,0143_lp_s04_1_knife_10_n03041632_33326.png
subject-04,1,144,1.2129499912262,bottle,knife,1,0144_lp_s04_1_knife_10_n03041632_2468.png
subject-04,1,145,0.794769048690796,airplane,airplane,3,0145_lp_s04_3_airplane_10_n02690373_5870.png
subject-04,1,146,1.3544340133667,oven,airplane,15,0146_lp_s04_15_airplane_10_n02690373_2521.png
subject-04,1,147,0.972359895706177,cat,cat,5,0147_lp_s04_5_cat_10_n02123394_4164.png
subject-04,1,148,0.952016115188599,dog,dog,0,0148_lp_s04_0_dog_10_n02100583_10960.png
subject-04,1,149,1.00179004669189,bottle,bottle,10,0149_lp_s04_10_bottle_10_n02823428_6766.png
subject-04,1,150,1.31978893280029,airplane,boat,15,0150_lp_s04_15_boat_10_n04612504_13309.png
subject-04,1,151,1.03340220451355,boat,boat,5,0151_lp_s04_5_boat_10_n04273569_2037.png
subject-04,1,152,1.201336145401,elephant,bird,5,0152_lp_s04_5_bird_10_n02025239_10733.png
subject-04,1,153,0.669323921203613,oven,oven,7,0153_lp_s04_7_oven_10_n04111531_2987.png
subject-04,1,154,0.62298321723938,clock,clock,3,0154_lp_s04_3_clock_10_n02708093_1747.png
subject-04,1,155,0.732684850692749,bicycle,bicycle,7,0155_lp_s04_7_bicycle_10_n02835271_769.png
subject-04,1,156,0.658473968505859,chair,chair,5,0156_lp_s04_5_chair_10_n03376595_9692.png
subject-04,1,157,0.584491014480591,clock,clock,3,0157_lp_s04_3_clock_10_n04548280_5765.png
subject-04,1,158,1.136234998703,bicycle,bicycle,3,0158_lp_s04_3_bicycle_10_n03792782_9280.png
subject-04,1,159,0.860089063644409,knife,knife,0,0159_lp_s04_0_knife_10_n03041632_8528.png
subject-04,1,160,0.609987020492554,clock,clock,7,0160_lp_s04_7_clock_10_n04548280_219.png
subject-04,1,161,0.853611946105957,knife,knife,5,0161_lp_s04_5_knife_10_n03041632_25022.png
subject-04,1,162,0.808997869491577,oven,oven,1,0162_lp_s04_1_oven_10_n04111531_10640.png
subject-04,1,163,1.09474897384644,dog,cat,10,0163_lp_s04_10_cat_10_n02123159_3226.png
subject-04,1,164,0.840598821640015,elephant,elephant,1,0164_lp_s04_1_elephant_10_n02504458_7634.png
subject-04,1,165,0.954538106918335,oven,bear,15,0165_lp_s04_15_bear_10_n02134084_8601.png
subject-04,1,166,0.860270023345947,cat,cat,5,0166_lp_s04_5_cat_10_n02123597_5887.png
subject-04,1,167,0.80202317237854,elephant,elephant,3,0167_lp_s04_3_elephant_10_n02504013_1777.png
subject-04,1,168,0.849868059158325,bear,bear,0,0168_lp_s04_0_bear_10_n02134418_3952.png
subject-04,1,169,1.24558687210083,boat,bear,40,0169_lp_s04_40_bear_10_n02134084_23165.png
subject-04,1,170,1.30371284484863,cat,keyboard,10,0170_lp_s04_10_keyboard_10_n03085013_4374.png
subject-04,1,171,1.38731694221497,bird,bird,5,0171_lp_s04_5_bird_10_n02011460_19314.png
subject-04,1,172,1.367103099823,bear,keyboard,3,0172_lp_s04_3_keyboard_10_n04505470_4621.png
subject-04,1,173,1.16507291793823,bird,bottle,7,0173_lp_s04_7_bottle_10_n04560804_15577.png
subject-04,1,174,0.608778953552246,bicycle,bicycle,3,0174_lp_s04_3_bicycle_10_n02835271_2594.png
subject-04,1,175,1.06285405158997,chair,chair,3,0175_lp_s04_3_chair_10_n04099969_5584.png
subject-04,1,176,1.36432313919067,boat,clock,40,0176_lp_s04_40_clock_10_n03196217_3903.png
subject-04,1,177,0.920236825942993,truck,truck,3,0177_lp_s04_3_truck_10_n03417042_6272.png
subject-04,1,178,0.924046993255615,knife,knife,1,0178_lp_s04_1_knife_10_n03041632_40887.png
subject-04,1,179,0.82577109336853,truck,truck,0,0179_lp_s04_0_truck_10_n04467665_71305.png
subject-04,1,180,0.689810991287231,cat,cat,10,0180_lp_s04_10_cat_10_n02123394_3144.png
subject-04,1,181,1.39343905448914,truck,airplane,10,0181_lp_s04_10_airplane_10_n02690373_8813.png
subject-04,1,182,0.861582040786743,airplane,airplane,5,0182_lp_s04_5_airplane_10_n02690373_9086.png
subject-04,1,183,1.11547088623047,oven,oven,10,0183_lp_s04_10_oven_10_n04111531_538.png
subject-04,1,184,0.790749073028564,chair,chair,0,0184_lp_s04_0_chair_10_n04429376_24319.png
subject-04,1,185,1.45686101913452,car,truck,1,0185_lp_s04_1_truck_10_n03417042_5371.png
subject-04,1,186,1.34439992904663,boat,knife,40,0186_lp_s04_40_knife_10_n03041632_28658.png
subject-04,1,187,0.926365852355957,truck,truck,5,0187_lp_s04_5_truck_10_n04467665_69582.png
subject-04,1,188,1.04021906852722,elephant,dog,5,0188_lp_s04_5_dog_10_n02092339_4132.png
subject-04,1,189,0.892278909683228,bicycle,bicycle,3,0189_lp_s04_3_bicycle_10_n03792782_12421.png
subject-04,1,190,0.887976884841919,bird,bird,1,0190_lp_s04_1_bird_10_n01820546_4609.png
subject-04,1,191,0.871608018875122,elephant,elephant,3,0191_lp_s04_3_elephant_10_n02504458_10336.png
subject-04,1,192,0.863312959671021,elephant,elephant,0,0192_lp_s04_0_elephant_10_n02504013_10990.png
subject-04,1,193,0.869111061096191,oven,oven,0,0193_lp_s04_0_oven_10_n04111531_19274.png
subject-04,1,194,1.10483384132385,car,truck,3,0194_lp_s04_3_truck_10_n03796401_24833.png
subject-04,1,195,1.18888592720032,keyboard,oven,15,0195_lp_s04_15_oven_10_n04111531_6508.png
subject-04,1,196,1.22695183753967,boat,keyboard,40,0196_lp_s04_40_keyboard_10_n03085013_21507.png
subject-04,1,197,1.3766450881958,bear,airplane,15,0197_lp_s04_15_airplane_10_n02690373_5845.png
subject-04,1,198,0.644244909286499,cat,cat,0,0198_lp_s04_0_cat_10_n02123597_2370.png
subject-04,1,199,1.42199397087097,truck,airplane,15,0199_lp_s04_15_airplane_10_n02690373_9427.png
subject-04,1,200,1.31189894676208,car,keyboard,5,0200_lp_s04_5_keyboard_10_n03085013_26573.png
subject-04,1,201,1.23384785652161,knife,knife,7,0201_lp_s04_7_knife_10_n03041632_46914.png
subject-04,1,202,1.17543506622314,oven,car,40,0202_lp_s04_40_car_10_n04285008_14573.png
subject-04,1,203,0.835258007049561,car,car,5,0203_lp_s04_5_car_10_n04285008_2880.png
subject-04,1,204,0.769027948379517,bottle,bottle,0,0204_lp_s04_0_bottle_10_n02823428_2422.png
subject-04,1,205,1.25504207611084,bicycle,dog,10,0205_lp_s04_10_dog_10_n02105056_9099.png
subject-04,1,206,1.24860095977783,clock,dog,40,0206_lp_s04_40_dog_10_n02108915_11208.png
subject-04,1,207,1.20845913887024,chair,knife,3,0207_lp_s04_3_knife_10_n03041632_13108.png
subject-04,1,208,1.49631500244141,elephant,bear,7,0208_lp_s04_7_bear_10_n02133161_2281.png
subject-04,1,209,1.05018305778503,elephant,elephant,5,0209_lp_s04_5_elephant_10_n02504013_2974.png
subject-04,1,210,1.50003600120544,car,oven,40,0210_lp_s04_40_oven_10_n04111531_8181.png
subject-04,1,211,0.861910820007324,car,car,0,0211_lp_s04_0_car_10_n03100240_1696.png
subject-04,1,212,0.801701068878174,knife,knife,3,0212_lp_s04_3_knife_10_n03041632_10000.png
subject-04,1,213,0.993870973587036,keyboard,keyboard,7,0213_lp_s04_7_keyboard_10_n04505470_5150.png
subject-04,1,214,1.45931506156921,airplane,chair,40,0214_lp_s04_40_chair_10_n04099969_20684.png
subject-04,1,215,0.731245994567871,bear,bear,5,0215_lp_s04_5_bear_10_n02134084_6606.png
subject-04,1,216,1.48695182800293,dog,dog,10,0216_lp_s04_10_dog_10_n02102040_6068.png
subject-04,1,217,0.878740072250366,elephant,elephant,3,0217_lp_s04_3_elephant_10_n02504458_2994.png
subject-04,1,218,1.34239602088928,cat,bird,5,0218_lp_s04_5_bird_10_n01795545_952.png
subject-04,1,219,1.28626894950867,airplane,airplane,3,0219_lp_s04_3_airplane_10_n02690373_8650.png
subject-04,1,220,1.34601712226868,oven,clock,10,0220_lp_s04_10_clock_10_n03196217_3986.png
subject-04,1,221,1.0580370426178,airplane,boat,40,0221_lp_s04_40_boat_10_n03344393_2148.png
subject-04,1,222,0.763983964920044,airplane,airplane,1,0222_lp_s04_1_airplane_10_n02690373_5773.png
subject-04,1,223,0.689917087554932,clock,clock,5,0223_lp_s04_5_clock_10_n02708093_2307.png
subject-04,1,224,1.183434009552,cat,bird,10,0224_lp_s04_10_bird_10_n01532829_14545.png
subject-04,1,225,0.887248039245605,clock,bicycle,7,0225_lp_s04_7_bicycle_10_n03792782_6149.png
subject-04,1,226,1.27307605743408,bicycle,bicycle,15,0226_lp_s04_15_bicycle_10_n02835271_6122.png
subject-04,1,227,1.13305616378784,truck,truck,5,0227_lp_s04_5_truck_10_n04467665_44714.png
subject-04,1,228,0.978554010391235,truck,boat,7,0228_lp_s04_7_boat_10_n03662601_12308.png
subject-04,1,229,1.26245498657227,bear,dog,10,0229_lp_s04_10_dog_10_n02100735_1764.png
subject-04,1,230,0.810211896896362,airplane,airplane,7,0230_lp_s04_7_airplane_10_n02690373_2564.png
subject-04,1,231,1.21015787124634,bear,elephant,0,0231_lp_s04_0_elephant_10_n02504458_1933.png
subject-04,1,232,1.4498279094696,cat,truck,7,0232_lp_s04_7_truck_10_n03417042_16856.png
subject-04,1,233,0.725806951522827,elephant,elephant,0,0233_lp_s04_0_elephant_10_n02504013_24486.png
subject-04,1,234,1.23194003105164,bear,dog,15,0234_lp_s04_15_dog_10_n02108422_932.png
subject-04,1,235,1.23328113555908,oven,chair,40,0235_lp_s04_40_chair_10_n03376595_6071.png
subject-04,1,236,1.02525782585144,keyboard,keyboard,3,0236_lp_s04_3_keyboard_10_n04505470_5091.png
subject-04,1,237,1.33501005172729,chair,boat,40,0237_lp_s04_40_boat_10_n03344393_2915.png
subject-04,1,238,0.892667770385742,boat,boat,1,0238_lp_s04_1_boat_10_n02951358_2445.png
subject-04,1,239,0.926538944244385,bottle,bottle,3,0239_lp_s04_3_bottle_10_n03983396_12728.png
subject-04,1,240,1.50004601478577,elephant,oven,40,0240_lp_s04_40_oven_10_n04111531_13625.png
subject-04,1,241,1.16048789024353,bicycle,bottle,10,0241_lp_s04_10_bottle_10_n03937543_9524.png
subject-04,1,242,1.0983419418335,keyboard,keyboard,5,0242_lp_s04_5_keyboard_10_n04505470_4371.png
subject-04,1,243,1.01414394378662,chair,cat,15,0243_lp_s04_15_cat_10_n02123159_7629.png
subject-04,1,244,0.765846014022827,car,car,0,0244_lp_s04_0_car_10_n04285008_3961.png
subject-04,1,245,1.35559511184692,truck,airplane,3,0245_lp_s04_3_airplane_10_n02690373_10462.png
subject-04,1,246,1.50002312660217,dog,dog,7,0246_lp_s04_7_dog_10_n02110806_23139.png
subject-04,1,247,1.49999594688416,chair,keyboard,40,0247_lp_s04_40_keyboard_10_n03085013_23793.png
subject-04,1,248,1.13909196853638,boat,bird,40,0248_lp_s04_40_bird_10_n02056570_9872.png
subject-04,1,249,0.738821029663086,boat,boat,0,0249_lp_s04_0_boat_10_n02951358_512.png
subject-04,1,250,0.681255102157593,boat,boat,3,0250_lp_s04_3_boat_10_n02951358_406.png
subject-04,1,251,1.2245500087738,bear,car,15,0251_lp_s04_15_car_10_n04285008_2781.png
subject-04,1,252,1.1165030002594,cat,cat,10,0252_lp_s04_10_cat_10_n02123394_1690.png
subject-04,1,253,1.04824113845825,dog,dog,15,0253_lp_s04_15_dog_10_n02090721_583.png
subject-04,1,254,0.88810396194458,clock,clock,5,0254_lp_s04_5_clock_10_n04548280_9144.png
subject-04,1,255,0.653748035430908,clock,clock,1,0255_lp_s04_1_clock_10_n04548280_5525.png
subject-04,1,256,1.317467212677,bird,oven,10,0256_lp_s04_10_oven_10_n04111531_13795.png
subject-04,1,257,1.35131096839905,chair,elephant,40,0257_lp_s04_40_elephant_10_n02504013_7635.png
subject-04,1,258,1.25759720802307,bear,elephant,15,0258_lp_s04_15_elephant_10_n02504458_7472.png
subject-04,1,259,0.987519025802612,knife,knife,5,0259_lp_s04_5_knife_10_n03041632_21723.png
subject-04,1,260,1.14482402801514,truck,truck,10,0260_lp_s04_10_truck_10_n03796401_22618.png
subject-04,1,261,0.850749969482422,airplane,airplane,5,0261_lp_s04_5_airplane_10_n02690373_6543.png
subject-04,1,262,0.970561027526855,boat,elephant,40,0262_lp_s04_40_elephant_10_n02504013_7143.png
subject-04,1,263,1.02835488319397,truck,truck,1,0263_lp_s04_1_truck_10_n03417042_20591.png
subject-04,1,264,1.34425091743469,oven,chair,5,0264_lp_s04_5_chair_10_n04429376_45302.png
subject-04,1,265,1.04005193710327,oven,boat,40,0265_lp_s04_40_boat_10_n03662601_8947.png
subject-04,1,266,1.00382995605469,keyboard,keyboard,1,0266_lp_s04_1_keyboard_10_n03085013_20303.png
subject-04,1,267,1.5000638961792,chair,knife,5,0267_lp_s04_5_knife_10_n03041632_20433.png
subject-04,1,268,0.705426931381226,cat,cat,3,0268_lp_s04_3_cat_10_n02123597_72.png
subject-04,1,269,1.08907318115234,knife,knife,3,0269_lp_s04_3_knife_10_n03041632_12949.png
subject-04,1,270,1.5000958442688,keyboard,keyboard,10,0270_lp_s04_10_keyboard_10_n03085013_2432.png
subject-04,1,271,0.790778875350952,car,car,0,0271_lp_s04_0_car_10_n03100240_8327.png
subject-04,1,272,1.47468495368958,truck,car,5,0272_lp_s04_5_car_10_n04285008_434.png
subject-04,1,273,1.34444189071655,oven,oven,15,0273_lp_s04_15_oven_10_n04111531_8269.png
subject-04,1,274,1.24438214302063,oven,bicycle,40,0274_lp_s04_40_bicycle_10_n02835271_9690.png
subject-04,1,275,NaN,na,bottle,7,0275_lp_s04_7_bottle_10_n03983396_12042.png
subject-04,1,276,0.900389194488525,knife,knife,7,0276_lp_s04_7_knife_10_n03041632_50423.png
subject-04,1,277,1.18392491340637,elephant,elephant,7,0277_lp_s04_7_elephant_10_n02504013_7674.png
subject-04,1,278,1.36756610870361,chair,chair,15,0278_lp_s04_15_chair_10_n04429376_7123.png
subject-04,1,279,1.38539695739746,chair,truck,10,0279_lp_s04_10_truck_10_n03796401_180.png
subject-04,1,280,0.963212966918945,dog,dog,0,0280_lp_s04_0_dog_10_n02101006_17876.png
subject-04,1,281,0.682855844497681,cat,cat,0,0281_lp_s04_0_cat_10_n02123045_8215.png
subject-04,1,282,1.39465188980103,cat,cat,3,0282_lp_s04_3_cat_10_n02123045_1596.png
subject-04,1,283,0.574655055999756,clock,clock,5,0283_lp_s04_5_clock_10_n02708093_1794.png
subject-04,1,284,0.720649003982544,clock,clock,0,0284_lp_s04_0_clock_10_n04548280_4391.png
subject-04,1,285,1.08215594291687,chair,chair,10,0285_lp_s04_10_chair_10_n04099969_3623.png
subject-04,1,286,1.28019905090332,bear,cat,5,0286_lp_s04_5_cat_10_n02123159_3729.png
subject-04,1,287,1.14209914207458,keyboard,keyboard,0,0287_lp_s04_0_keyboard_10_n03085013_10984.png
subject-04,1,288,1.23356914520264,car,airplane,5,0288_lp_s04_5_airplane_10_n02690373_9423.png
subject-04,1,289,1.47744512557983,chair,bottle,5,0289_lp_s04_5_bottle_10_n04557648_9493.png
subject-04,1,290,0.7674720287323,cat,cat,1,0290_lp_s04_1_cat_10_n02123597_7592.png
subject-04,1,291,1.19140100479126,truck,truck,3,0291_lp_s04_3_truck_10_n03796401_599.png
subject-04,1,292,1.01289200782776,car,car,7,0292_lp_s04_7_car_10_n02814533_28783.png
subject-04,1,293,1.11877202987671,knife,knife,1,0293_lp_s04_1_knife_10_n03041632_6446.png
subject-04,1,294,0.776431083679199,airplane,airplane,7,0294_lp_s04_7_airplane_10_n02690373_9533.png
subject-04,1,295,1.12426400184631,car,oven,5,0295_lp_s04_5_oven_10_n04111531_2930.png
subject-04,1,296,0.900498151779175,clock,clock,1,0296_lp_s04_1_clock_10_n04548280_7951.png
subject-04,1,297,0.841951131820679,airplane,airplane,1,0297_lp_s04_1_airplane_10_n02690373_7944.png
subject-04,1,298,1.38181400299072,boat,knife,40,0298_lp_s04_40_knife_10_n03041632_49363.png
subject-04,1,299,NaN,na,truck,5,0299_lp_s04_5_truck_10_n04467665_30023.png
subject-04,1,300,0.987467050552368,boat,chair,7,0300_lp_s04_7_chair_10_n03376595_3181.png
subject-04,1,301,1.46768307685852,dog,bear,3,0301_lp_s04_3_bear_10_n02132136_6441.png
subject-04,1,302,1.49139904975891,cat,bottle,10,0302_lp_s04_10_bottle_10_n02823428_5135.png
subject-04,1,303,0.770687103271484,keyboard,keyboard,0,0303_lp_s04_0_keyboard_10_n04505470_4044.png
subject-04,1,304,0.888715028762817,cat,cat,3,0304_lp_s04_3_cat_10_n02123045_20366.png
subject-04,1,305,0.736845016479492,cat,cat,1,0305_lp_s04_1_cat_10_n02125311_22037.png
subject-04,1,306,0.902302026748657,bird,bird,10,0306_lp_s04_10_bird_10_n01843383_277.png
subject-04,1,307,1.00211191177368,truck,truck,3,0307_lp_s04_3_truck_10_n03417042_20133.png
subject-04,1,308,1.27618908882141,bicycle,bicycle,5,0308_lp_s04_5_bicycle_10_n02835271_7450.png
subject-04,1,309,0.863903045654297,bear,bear,3,0309_lp_s04_3_bear_10_n02134418_14961.png
subject-04,1,310,0.647519826889038,boat,boat,1,0310_lp_s04_1_boat_10_n02951358_34917.png
subject-04,1,311,0.811209917068481,chair,chair,3,0311_lp_s04_3_chair_10_n04429376_16952.png
subject-04,1,312,1.11318302154541,car,car,7,0312_lp_s04_7_car_10_n02814533_6593.png
subject-04,1,313,1.25117611885071,bear,bird,15,0313_lp_s04_15_bird_10_n01582220_17430.png
subject-04,1,314,1.14488196372986,chair,knife,5,0314_lp_s04_5_knife_10_n03041632_43506.png
subject-04,1,315,0.968613862991333,bottle,bottle,3,0315_lp_s04_3_bottle_10_n04591713_3683.png
subject-04,1,316,NaN,na,car,3,0316_lp_s04_3_car_10_n02814533_3202.png
subject-04,1,317,1.25027513504028,elephant,dog,7,0317_lp_s04_7_dog_10_n02092339_2636.png
subject-04,1,318,0.782268047332764,knife,knife,5,0318_lp_s04_5_knife_10_n03041632_4879.png
subject-04,1,319,1.02799701690674,boat,knife,15,0319_lp_s04_15_knife_10_n03041632_27848.png
subject-04,1,320,0.797683000564575,bottle,bottle,0,0320_lp_s04_0_bottle_10_n03983396_16224.png
subject-04,1,321,1.08418798446655,bird,boat,10,0321_lp_s04_10_boat_10_n03662601_12034.png
subject-04,1,322,1.09606409072876,airplane,bottle,40,0322_lp_s04_40_bottle_10_n04591713_2537.png
subject-04,1,323,1.41780710220337,car,car,5,0323_lp_s04_5_car_10_n04285008_7428.png
subject-04,1,324,1.22959589958191,cat,bicycle,40,0324_lp_s04_40_bicycle_10_n02835271_14499.png
subject-04,1,325,0.627439975738525,airplane,airplane,5,0325_lp_s04_5_airplane_10_n02690373_633.png
subject-04,1,326,0.675318002700806,bicycle,bicycle,0,0326_lp_s04_0_bicycle_10_n02835271_11929.png
subject-04,1,327,1.10928797721863,chair,dog,15,0327_lp_s04_15_dog_10_n02098286_2582.png
subject-04,1,328,0.960685968399048,boat,knife,40,0328_lp_s04_40_knife_10_n03041632_32459.png
subject-04,1,329,1.2546980381012,boat,boat,5,0329_lp_s04_5_boat_10_n03344393_9575.png
subject-04,1,330,0.49034309387207,clock,clock,3,0330_lp_s04_3_clock_10_n04548280_289.png
subject-04,1,331,1.50005698204041,clock,cat,40,0331_lp_s04_40_cat_10_n02123394_5111.png
subject-04,1,332,0.828171968460083,elephant,elephant,1,0332_lp_s04_1_elephant_10_n02504013_1244.png
subject-04,1,333,0.995893001556396,bear,bear,3,0333_lp_s04_3_bear_10_n02134084_4818.png
subject-04,1,334,0.735965967178345,bottle,bottle,0,0334_lp_s04_0_bottle_10_n04591713_2680.png
subject-04,1,335,0.735504150390625,bicycle,bicycle,1,0335_lp_s04_1_bicycle_10_n02835271_19019.png
subject-04,1,336,1.36913108825684,clock,chair,40,0336_lp_s04_40_chair_10_n04099969_20107.png
subject-04,1,337,1.22301983833313,bear,bird,7,0337_lp_s04_7_bird_10_n02018795_5770.png
subject-04,1,338,1.26495599746704,bear,clock,10,0338_lp_s04_10_clock_10_n03196217_454.png
subject-04,1,339,0.992642879486084,chair,chair,1,0339_lp_s04_1_chair_10_n03376595_6942.png
subject-04,1,340,1.21242809295654,boat,car,40,0340_lp_s04_40_car_10_n04285008_12868.png
subject-04,1,341,1.25637006759644,dog,dog,5,0341_lp_s04_5_dog_10_n02102040_1660.png
subject-04,1,342,1.50004291534424,bird,car,7,0342_lp_s04_7_car_10_n04285008_8666.png
subject-04,1,343,0.650026082992554,cat,cat,0,0343_lp_s04_0_cat_10_n02123045_7482.png
subject-04,1,344,1.00768303871155,boat,bear,3,0344_lp_s04_3_bear_10_n02134084_20142.png
subject-04,1,345,1.15162801742554,keyboard,airplane,15,0345_lp_s04_15_airplane_10_n02690373_7239.png
subject-04,1,346,0.613446950912476,boat,boat,7,0346_lp_s04_7_boat_10_n04612504_12444.png
subject-04,1,347,0.797211885452271,oven,oven,3,0347_lp_s04_3_oven_10_n04111531_8009.png
subject-04,1,348,0.903048992156982,bicycle,bicycle,3,0348_lp_s04_3_bicycle_10_n02835271_9440.png
subject-04,1,349,NaN,na,keyboard,40,0349_lp_s04_40_keyboard_10_n04505470_4672.png
subject-04,1,350,1.14054918289185,dog,dog,15,0350_lp_s04_15_dog_10_n02107142_46045.png
subject-04,1,351,1.09041094779968,oven,chair,1,0351_lp_s04_1_chair_10_n02791124_2540.png
subject-04,1,352,0.968183994293213,boat,clock,40,0352_lp_s04_40_clock_10_n04548280_7662.png
subject-04,1,353,1.3400719165802,elephant,bird,15,0353_lp_s04_15_bird_10_n01819313_5131.png
subject-04,1,354,1.25389289855957,clock,chair,40,0354_lp_s04_40_chair_10_n04429376_6817.png
subject-04,1,355,0.923969984054565,bear,bear,5,0355_lp_s04_5_bear_10_n02133161_5616.png
subject-04,1,356,0.653398990631104,oven,oven,5,0356_lp_s04_5_oven_10_n04111531_20953.png
subject-04,1,357,1.27737212181091,bird,elephant,7,0357_lp_s04_7_elephant_10_n02504458_716.png
subject-04,1,358,0.949130058288574,bird,bird,3,0358_lp_s04_3_bird_10_n01560419_1470.png
subject-04,1,359,1.20505595207214,cat,keyboard,40,0359_lp_s04_40_keyboard_10_n03085013_22960.png
subject-04,1,360,0.639056921005249,boat,chair,15,0360_lp_s04_15_chair_10_n03376595_3462.png
subject-04,1,361,1.12700796127319,oven,bird,40,0361_lp_s04_40_bird_10_n01514859_11682.png
subject-04,1,362,0.574470996856689,clock,clock,3,0362_lp_s04_3_clock_10_n04548280_21263.png
subject-04,1,363,1.02459096908569,cat,knife,15,0363_lp_s04_15_knife_10_n03041632_28443.png
subject-04,1,364,1.18643093109131,bear,chair,15,0364_lp_s04_15_chair_10_n04429376_24434.png
subject-04,1,365,1.21022319793701,bear,bear,15,0365_lp_s04_15_bear_10_n02134418_1978.png
subject-04,1,366,0.603753805160522,clock,clock,0,0366_lp_s04_0_clock_10_n03196217_6160.png
subject-04,1,367,1.05346608161926,oven,oven,3,0367_lp_s04_3_oven_10_n04111531_5204.png
subject-04,1,368,0.941318035125732,chair,chair,3,0368_lp_s04_3_chair_10_n04429376_18863.png
subject-04,1,369,1.01715302467346,bottle,oven,7,0369_lp_s04_7_oven_10_n04111531_5218.png
subject-04,1,370,0.774906158447266,clock,clock,3,0370_lp_s04_3_clock_10_n04548280_5422.png
subject-04,1,371,1.29073810577393,truck,truck,1,0371_lp_s04_1_truck_10_n03417042_12235.png
subject-04,1,372,1.1844220161438,bird,chair,40,0372_lp_s04_40_chair_10_n04099969_10401.png
subject-04,1,373,0.99833083152771,cat,cat,40,0373_lp_s04_40_cat_10_n02124075_12325.png
subject-04,1,374,0.690248012542725,oven,oven,0,0374_lp_s04_0_oven_10_n04111531_15052.png
subject-04,1,375,0.748319864273071,bear,bear,10,0375_lp_s04_10_bear_10_n02132136_10468.png
subject-04,1,376,1.48170304298401,bear,bear,5,0376_lp_s04_5_bear_10_n02132136_24311.png
subject-04,1,377,0.901490926742554,truck,truck,3,0377_lp_s04_3_truck_10_n04467665_19645.png
subject-04,1,378,1.35377192497253,keyboard,knife,7,0378_lp_s04_7_knife_10_n03041632_992.png
subject-04,1,379,0.957679033279419,airplane,airplane,10,0379_lp_s04_10_airplane_10_n02690373_10657.png
subject-04,1,380,0.863101005554199,bicycle,bicycle,0,0380_lp_s04_0_bicycle_10_n03792782_33649.png
subject-04,1,381,1.24315905570984,bear,dog,5,0381_lp_s04_5_dog_10_n02106382_1806.png
subject-04,1,382,1.16287398338318,cat,elephant,10,0382_lp_s04_10_elephant_10_n02504458_5379.png
subject-04,1,383,0.830509901046753,bear,bear,1,0383_lp_s04_1_bear_10_n02134418_2231.png
subject-04,1,384,1.08041405677795,boat,bottle,40,0384_lp_s04_40_bottle_10_n04560804_9457.png
subject-04,1,385,0.716229915618896,airplane,airplane,1,0385_lp_s04_1_airplane_10_n02690373_11908.png
subject-04,1,386,1.35207891464233,bottle,elephant,10,0386_lp_s04_10_elephant_10_n02504013_3197.png
subject-04,1,387,0.675952911376953,bear,bear,3,0387_lp_s04_3_bear_10_n02133161_1480.png
subject-04,1,388,1.21755886077881,bear,cat,0,0388_lp_s04_0_cat_10_n02123045_4237.png
subject-04,1,389,1.45535206794739,elephant,cat,10,0389_lp_s04_10_cat_10_n02123159_8396.png
subject-04,1,390,0.925184011459351,bottle,bottle,5,0390_lp_s04_5_bottle_10_n03937543_339.png
subject-04,1,391,0.910907983779907,car,dog,10,0391_lp_s04_10_dog_10_n02088364_2119.png
subject-04,1,392,1.34069514274597,bird,bicycle,10,0392_lp_s04_10_bicycle_10_n03792782_62398.png
subject-04,1,393,1.28256702423096,chair,chair,10,0393_lp_s04_10_chair_10_n04429376_6308.png
subject-04,1,394,1.23250198364258,keyboard,bottle,40,0394_lp_s04_40_bottle_10_n04591713_5204.png
subject-04,1,395,1.01816201210022,elephant,elephant,3,0395_lp_s04_3_elephant_10_n02504013_9021.png
subject-04,1,396,1.37790894508362,chair,keyboard,5,0396_lp_s04_5_keyboard_10_n04505470_9331.png
subject-04,1,397,0.702005863189697,cat,keyboard,3,0397_lp_s04_3_keyboard_10_n03085013_18841.png
subject-04,1,398,1.19774699211121,keyboard,keyboard,0,0398_lp_s04_0_keyboard_10_n03085013_26656.png
subject-04,1,399,0.901330947875977,bottle,bottle,1,0399_lp_s04_1_bottle_10_n04579145_4162.png
subject-04,1,400,1.08537888526917,chair,chair,7,0400_lp_s04_7_chair_10_n04099969_34325.png
subject-04,1,401,1.206946849823,elephant,elephant,10,0401_lp_s04_10_elephant_10_n02504013_3425.png
subject-04,1,402,1.00082588195801,keyboard,keyboard,5,0402_lp_s04_5_keyboard_10_n04505470_8364.png
subject-04,1,403,0.864586114883423,oven,bottle,15,0403_lp_s04_15_bottle_10_n03937543_2333.png
subject-04,1,404,0.806437015533447,car,car,1,0404_lp_s04_1_car_10_n02814533_48541.png
subject-04,1,405,0.842283010482788,car,car,3,0405_lp_s04_3_car_10_n02814533_44079.png
subject-04,1,406,1.22197604179382,oven,knife,40,0406_lp_s04_40_knife_10_n03041632_23678.png
subject-04,1,407,1.17176294326782,clock,oven,40,0407_lp_s04_40_oven_10_n04111531_283.png
subject-04,1,408,0.725756883621216,chair,chair,5,0408_lp_s04_5_chair_10_n03376595_12326.png
subject-04,1,409,0.901411056518555,oven,keyboard,15,0409_lp_s04_15_keyboard_10_n04505470_313.png
subject-04,1,410,1.02721309661865,cat,bottle,15,0410_lp_s04_15_bottle_10_n02823428_6627.png
subject-04,1,411,0.57711386680603,clock,clock,7,0411_lp_s04_7_clock_10_n04548280_4069.png
subject-04,1,412,0.928740978240967,bicycle,bicycle,0,0412_lp_s04_0_bicycle_10_n02835271_14966.png
subject-04,1,413,1.32470202445984,keyboard,car,15,0413_lp_s04_15_car_10_n04285008_11714.png
subject-04,1,414,1.32488393783569,dog,oven,7,0414_lp_s04_7_oven_10_n04111531_8603.png
subject-04,1,415,1.41849899291992,clock,boat,7,0415_lp_s04_7_boat_10_n03662601_16925.png
subject-04,1,416,1.19626903533936,truck,car,10,0416_lp_s04_10_car_10_n04285008_12182.png
subject-04,1,417,0.993825197219849,truck,truck,5,0417_lp_s04_5_truck_10_n03417042_4665.png
subject-04,1,418,0.980233192443848,airplane,airplane,3,0418_lp_s04_3_airplane_10_n02690373_7487.png
subject-04,1,419,1.43197202682495,bear,bottle,3,0419_lp_s04_3_bottle_10_n03937543_11101.png
subject-04,1,420,1.10144686698914,boat,boat,40,0420_lp_s04_40_boat_10_n03662601_35800.png
subject-04,1,421,0.761581182479858,bicycle,bicycle,1,0421_lp_s04_1_bicycle_10_n02835271_14235.png
subject-04,1,422,0.797129154205322,car,car,5,0422_lp_s04_5_car_10_n03100240_2138.png
subject-04,1,423,1.19886207580566,elephant,chair,40,0423_lp_s04_40_chair_10_n02791124_2972.png
subject-04,1,424,0.834633111953735,boat,boat,15,0424_lp_s04_15_boat_10_n04612504_19111.png
subject-04,1,425,1.20621395111084,bicycle,chair,7,0425_lp_s04_7_chair_10_n02791124_6276.png
subject-04,1,426,1.43611907958984,boat,keyboard,10,0426_lp_s04_10_keyboard_10_n03085013_7285.png
subject-04,1,427,0.948061943054199,chair,knife,5,0427_lp_s04_5_knife_10_n03041632_18311.png
subject-04,1,428,1.5001060962677,airplane,airplane,7,0428_lp_s04_7_airplane_10_n02690373_4839.png
subject-04,1,429,1.50001287460327,bottle,clock,10,0429_lp_s04_10_clock_10_n02708093_6730.png
subject-04,1,430,1.49999594688416,keyboard,car,15,0430_lp_s04_15_car_10_n03100240_2996.png
subject-04,1,431,1.15530610084534,chair,chair,10,0431_lp_s04_10_chair_10_n04429376_16459.png
subject-04,1,432,1.18899393081665,boat,truck,15,0432_lp_s04_15_truck_10_n03796401_10519.png
subject-04,1,433,1.10095191001892,bear,elephant,5,0433_lp_s04_5_elephant_10_n02504458_1636.png
subject-04,1,434,0.925276041030884,boat,boat,7,0434_lp_s04_7_boat_10_n03344393_4234.png
subject-04,1,435,1.29648303985596,bicycle,bicycle,7,0435_lp_s04_7_bicycle_10_n02835271_12608.png
subject-04,1,436,1.15456485748291,bottle,knife,3,0436_lp_s04_3_knife_10_n03041632_19866.png
subject-04,1,437,1.41602396965027,elephant,elephant,15,0437_lp_s04_15_elephant_10_n02504013_22813.png
subject-04,1,438,1.11187386512756,oven,oven,0,0438_lp_s04_0_oven_10_n04111531_1612.png
subject-04,1,439,0.807666063308716,oven,oven,1,0439_lp_s04_1_oven_10_n04111531_22445.png
subject-04,1,440,0.733688116073608,bicycle,bicycle,0,0440_lp_s04_0_bicycle_10_n02835271_24213.png
subject-04,1,441,1.02946877479553,bird,bird,0,0441_lp_s04_0_bird_10_n01833805_5839.png
subject-04,1,442,1.14110207557678,oven,oven,0,0442_lp_s04_0_oven_10_n04111531_10420.png
subject-04,1,443,1.20727181434631,cat,bear,5,0443_lp_s04_5_bear_10_n02133161_1490.png
subject-04,1,444,1.23332285881042,clock,airplane,40,0444_lp_s04_40_airplane_10_n02690373_6002.png
subject-04,1,445,1.08671689033508,oven,truck,40,0445_lp_s04_40_truck_10_n04467665_62626.png
subject-04,1,446,0.920502901077271,bear,bear,7,0446_lp_s04_7_bear_10_n02133161_14810.png
subject-04,1,447,0.668095111846924,clock,clock,3,0447_lp_s04_3_clock_10_n02708093_4912.png
subject-04,1,448,1.04807591438293,car,car,3,0448_lp_s04_3_car_10_n02814533_36174.png
subject-04,1,449,1.10811901092529,keyboard,oven,7,0449_lp_s04_7_oven_10_n04111531_2086.png
subject-04,1,450,0.825888872146606,truck,truck,7,0450_lp_s04_7_truck_10_n03417042_19905.png
subject-04,1,451,1.29151487350464,bear,dog,5,0451_lp_s04_5_dog_10_n02111129_6495.png
subject-04,1,452,0.791792869567871,bottle,bottle,3,0452_lp_s04_3_bottle_10_n02823428_4658.png
subject-04,1,453,0.881281852722168,car,car,10,0453_lp_s04_10_car_10_n02814533_32924.png
subject-04,1,454,1.19501185417175,airplane,boat,40,0454_lp_s04_40_boat_10_n02951358_1461.png
subject-04,1,455,1.18469715118408,bear,bird,1,0455_lp_s04_1_bird_10_n01819313_18188.png
subject-04,1,456,0.742908000946045,oven,oven,1,0456_lp_s04_1_oven_10_n04111531_9427.png
subject-04,1,457,1.07075190544128,keyboard,keyboard,0,0457_lp_s04_0_keyboard_10_n03085013_8865.png
subject-04,1,458,0.864331007003784,keyboard,keyboard,3,0458_lp_s04_3_keyboard_10_n03085013_20515.png
subject-04,1,459,1.05197405815125,bird,bird,0,0459_lp_s04_0_bird_10_n02011460_3892.png
subject-04,1,460,1.05796599388123,bicycle,bicycle,0,0460_lp_s04_0_bicycle_10_n02835271_12674.png
subject-04,1,461,1.23168015480042,bear,bottle,10,0461_lp_s04_10_bottle_10_n03983396_12670.png
subject-04,1,462,1.07134890556335,keyboard,keyboard,3,0462_lp_s04_3_keyboard_10_n03085013_8136.png
subject-04,1,463,1.27753210067749,keyboard,airplane,40,0463_lp_s04_40_airplane_10_n02690373_4671.png
subject-04,1,464,0.737039089202881,bicycle,bicycle,1,0464_lp_s04_1_bicycle_10_n02835271_17184.png
subject-04,1,465,1.10500478744507,oven,bear,40,0465_lp_s04_40_bear_10_n02133161_20090.png
subject-04,1,466,0.694797992706299,clock,clock,7,0466_lp_s04_7_clock_10_n02708093_6890.png
subject-04,1,467,0.756572961807251,clock,clock,7,0467_lp_s04_7_clock_10_n03196217_4309.png
subject-04,1,468,0.790311098098755,boat,boat,3,0468_lp_s04_3_boat_10_n03662601_1427.png
subject-04,1,469,1.31821894645691,bicycle,bicycle,10,0469_lp_s04_10_bicycle_10_n03792782_22620.png
subject-04,1,470,0.966443061828613,boat,boat,1,0470_lp_s04_1_boat_10_n03662601_1319.png
subject-04,1,471,0.74574089050293,boat,boat,0,0471_lp_s04_0_boat_10_n02951358_31986.png
subject-04,1,472,1.10574698448181,oven,bear,40,0472_lp_s04_40_bear_10_n02132136_25168.png
subject-04,1,473,1.50001192092896,truck,cat,7,0473_lp_s04_7_cat_10_n02123159_587.png
subject-04,1,474,1.26120805740356,boat,elephant,40,0474_lp_s04_40_elephant_10_n02504013_572.png
subject-04,1,475,1.24309492111206,oven,truck,15,0475_lp_s04_15_truck_10_n03417042_8121.png
subject-04,1,476,1.07486510276794,boat,knife,15,0476_lp_s04_15_knife_10_n03041632_1964.png
subject-04,1,477,0.804782152175903,bear,bear,1,0477_lp_s04_1_bear_10_n02134418_14.png
subject-04,1,478,0.844483137130737,chair,chair,5,0478_lp_s04_5_chair_10_n03376595_899.png
subject-04,1,479,1.0504789352417,cat,oven,10,0479_lp_s04_10_oven_10_n04111531_4392.png
subject-04,1,480,1.00012707710266,bird,bird,3,0480_lp_s04_3_bird_10_n01601694_20287.png
subject-04,1,481,1.26863598823547,chair,bottle,15,0481_lp_s04_15_bottle_10_n03937543_2759.png
subject-04,1,482,0.82220983505249,car,car,0,0482_lp_s04_0_car_10_n04285008_11931.png
subject-04,1,483,0.880414009094238,cat,cat,7,0483_lp_s04_7_cat_10_n02123159_6954.png
subject-04,1,484,1.25372791290283,truck,truck,7,0484_lp_s04_7_truck_10_n03796401_4119.png
subject-04,1,485,1.18774700164795,bicycle,bicycle,10,0485_lp_s04_10_bicycle_10_n03792782_42795.png
subject-04,1,486,1.50013113021851,keyboard,oven,15,0486_lp_s04_15_oven_10_n04111531_21963.png
subject-04,1,487,0.797302007675171,keyboard,keyboard,3,0487_lp_s04_3_keyboard_10_n04505470_4432.png
subject-04,1,488,0.699275016784668,oven,oven,1,0488_lp_s04_1_oven_10_n04111531_9289.png
subject-04,1,489,1.1067521572113,truck,truck,5,0489_lp_s04_5_truck_10_n03417042_12128.png
subject-04,1,490,1.18252205848694,chair,bear,15,0490_lp_s04_15_bear_10_n02132136_786.png
subject-04,1,491,0.922343015670776,bicycle,clock,7,0491_lp_s04_7_clock_10_n03196217_10578.png
subject-04,1,492,0.990319013595581,bicycle,elephant,5,0492_lp_s04_5_elephant_10_n02504458_5797.png
subject-04,1,493,1.34013319015503,cat,cat,5,0493_lp_s04_5_cat_10_n02123394_1627.png
subject-04,1,494,1.11786699295044,boat,boat,10,0494_lp_s04_10_boat_10_n03344393_4482.png
subject-04,1,495,1.24360108375549,oven,cat,7,0495_lp_s04_7_cat_10_n02123394_4232.png
subject-04,1,496,1.13753318786621,oven,oven,1,0496_lp_s04_1_oven_10_n04111531_10313.png
subject-04,1,497,0.633250951766968,boat,boat,1,0497_lp_s04_1_boat_10_n04612504_26238.png
subject-04,1,498,0.985259056091309,truck,truck,0,0498_lp_s04_0_truck_10_n03796401_2559.png
subject-04,1,499,0.549308061599731,clock,clock,1,0499_lp_s04_1_clock_10_n04548280_9700.png
subject-04,1,500,1.00700306892395,boat,airplane,15,0500_lp_s04_15_airplane_10_n02690373_19329.png
subject-04,1,501,0.908537149429321,car,car,0,0501_lp_s04_0_car_10_n04285008_11290.png
subject-04,1,502,1.09232997894287,cat,cat,3,0502_lp_s04_3_cat_10_n02125311_6283.png
subject-04,1,503,0.850154876708984,boat,airplane,15,0503_lp_s04_15_airplane_10_n02690373_17262.png
subject-04,1,504,0.84011697769165,bird,bird,0,0504_lp_s04_0_bird_10_n02002556_15721.png
subject-04,1,505,1.19777297973633,car,truck,40,0505_lp_s04_40_truck_10_n03796401_9.png
subject-04,1,506,0.825674057006836,boat,boat,7,0506_lp_s04_7_boat_10_n02951358_30909.png
subject-04,1,507,1.29155707359314,truck,chair,10,0507_lp_s04_10_chair_10_n04429376_24716.png
subject-04,1,508,0.649620056152344,boat,boat,0,0508_lp_s04_0_boat_10_n03344393_3349.png
subject-04,1,509,1.28305912017822,bear,bear,10,0509_lp_s04_10_bear_10_n02134084_27899.png
subject-04,1,510,1.10100793838501,chair,clock,1,0510_lp_s04_1_clock_10_n04548280_2809.png
subject-04,1,511,1.50002408027649,truck,clock,15,0511_lp_s04_15_clock_10_n03196217_3140.png
subject-04,1,512,NaN,na,truck,10,0512_lp_s04_10_truck_10_n03796401_16425.png
subject-04,1,513,0.950302124023438,keyboard,keyboard,7,0513_lp_s04_7_keyboard_10_n03085013_21534.png
subject-04,1,514,1.03202700614929,boat,truck,40,0514_lp_s04_40_truck_10_n04467665_13193.png
subject-04,1,515,0.876061916351318,bear,bear,1,0515_lp_s04_1_bear_10_n02132136_22604.png
subject-04,1,516,1.26800298690796,car,oven,7,0516_lp_s04_7_oven_10_n04111531_13354.png
subject-04,1,517,0.65355396270752,boat,boat,0,0517_lp_s04_0_boat_10_n03344393_8599.png
subject-04,1,518,1.2833149433136,oven,bottle,15,0518_lp_s04_15_bottle_10_n04557648_634.png
subject-04,1,519,0.865164041519165,bear,bear,0,0519_lp_s04_0_bear_10_n02134418_2719.png
subject-04,1,520,1.10920095443726,knife,knife,0,0520_lp_s04_0_knife_10_n03041632_3023.png
subject-04,1,521,0.842941045761108,chair,chair,1,0521_lp_s04_1_chair_10_n03376595_8012.png
subject-04,1,522,0.93264102935791,keyboard,keyboard,7,0522_lp_s04_7_keyboard_10_n04505470_4501.png
subject-04,1,523,1.50000882148743,oven,clock,40,0523_lp_s04_40_clock_10_n04548280_9801.png
subject-04,1,524,0.954743146896362,bear,bear,0,0524_lp_s04_0_bear_10_n02134418_5581.png
subject-04,1,525,1.23215794563293,bird,cat,1,0525_lp_s04_1_cat_10_n02123045_5820.png
subject-04,1,526,0.89176607131958,keyboard,keyboard,0,0526_lp_s04_0_keyboard_10_n03085013_23018.png
subject-04,1,527,1.193687915802,keyboard,boat,40,0527_lp_s04_40_boat_10_n04612504_7446.png
subject-04,1,528,0.829406023025513,keyboard,keyboard,0,0528_lp_s04_0_keyboard_10_n04505470_1105.png
subject-04,1,529,0.973536014556885,oven,bicycle,5,0529_lp_s04_5_bicycle_10_n03792782_22760.png
subject-04,1,530,1.27311682701111,boat,bird,7,0530_lp_s04_7_bird_10_n01829413_3550.png
subject-04,1,531,1.21482801437378,boat,knife,15,0531_lp_s04_15_knife_10_n03041632_45264.png
subject-04,1,532,1.14865303039551,chair,dog,1,0532_lp_s04_1_dog_10_n02086646_2810.png
subject-04,1,533,1.46461200714111,oven,cat,7,0533_lp_s04_7_cat_10_n02123597_14094.png
subject-04,1,534,1.07874894142151,boat,airplane,10,0534_lp_s04_10_airplane_10_n02690373_1862.png
subject-04,1,535,0.750151872634888,bird,bird,1,0535_lp_s04_1_bird_10_n01843065_3596.png
subject-04,1,536,1.44210600852966,car,cat,15,0536_lp_s04_15_cat_10_n02123159_737.png
subject-04,1,537,1.3518488407135,chair,car,10,0537_lp_s04_10_car_10_n03100240_5136.png
subject-04,1,538,0.869477033615112,keyboard,keyboard,3,0538_lp_s04_3_keyboard_10_n04505470_3615.png
subject-04,1,539,1.05756592750549,elephant,elephant,1,0539_lp_s04_1_elephant_10_n02504458_900.png
subject-04,1,540,1.22935819625854,knife,airplane,5,0540_lp_s04_5_airplane_10_n02690373_5184.png
subject-04,1,541,1.25954389572144,clock,clock,7,0541_lp_s04_7_clock_10_n03196217_3006.png
subject-04,1,542,0.878971815109253,bottle,bottle,3,0542_lp_s04_3_bottle_10_n04591713_5364.png
subject-04,1,543,0.796818017959595,keyboard,keyboard,7,0543_lp_s04_7_keyboard_10_n03085013_6828.png
subject-04,1,544,1.01254081726074,dog,dog,1,0544_lp_s04_1_dog_10_n02111500_2905.png
subject-04,1,545,1.02472591400146,bird,bird,3,0545_lp_s04_3_bird_10_n01797886_2711.png
subject-04,1,546,0.960232019424438,chair,knife,10,0546_lp_s04_10_knife_10_n03041632_17091.png
subject-04,1,547,1.29397916793823,keyboard,keyboard,5,0547_lp_s04_5_keyboard_10_n03085013_15295.png
subject-04,1,548,0.911732196807861,bottle,bottle,0,0548_lp_s04_0_bottle_10_n04591713_6235.png
subject-04,1,549,0.63767409324646,cat,cat,3,0549_lp_s04_3_cat_10_n02123045_5371.png
subject-04,1,550,0.99358606338501,elephant,elephant,0,0550_lp_s04_0_elephant_10_n02504458_7506.png
subject-04,1,551,1.07309889793396,bear,bear,15,0551_lp_s04_15_bear_10_n02134084_19849.png
subject-04,1,552,0.877151966094971,keyboard,keyboard,0,0552_lp_s04_0_keyboard_10_n03085013_12164.png
subject-04,1,553,1.02473306655884,dog,dog,3,0553_lp_s04_3_dog_10_n02111500_7233.png
subject-04,1,554,0.927030086517334,knife,knife,3,0554_lp_s04_3_knife_10_n03041632_47410.png
subject-04,1,555,1.00433993339539,car,car,0,0555_lp_s04_0_car_10_n02814533_27571.png
subject-04,1,556,1.16417908668518,boat,bear,40,0556_lp_s04_40_bear_10_n02133161_444.png
subject-04,1,557,1.21630215644836,airplane,airplane,1,0557_lp_s04_1_airplane_10_n02690373_5266.png
subject-04,1,558,0.704207897186279,oven,oven,3,0558_lp_s04_3_oven_10_n04111531_857.png
subject-04,1,559,0.807548999786377,bottle,bottle,5,0559_lp_s04_5_bottle_10_n04591713_3495.png
subject-04,1,560,1.18957114219666,keyboard,knife,7,0560_lp_s04_7_knife_10_n03041632_4708.png
subject-04,1,561,1.26078915596008,bear,dog,40,0561_lp_s04_40_dog_10_n02105056_12631.png
subject-04,1,562,1.06454515457153,car,car,10,0562_lp_s04_10_car_10_n02814533_13802.png
subject-04,1,563,0.818685054779053,oven,oven,1,0563_lp_s04_1_oven_10_n04111531_15629.png
subject-04,1,564,0.728115081787109,cat,cat,1,0564_lp_s04_1_cat_10_n02124075_8884.png
subject-04,1,565,1.16781306266785,truck,truck,10,0565_lp_s04_10_truck_10_n04467665_69202.png
subject-04,1,566,0.872087955474854,elephant,elephant,1,0566_lp_s04_1_elephant_10_n02504458_5766.png
subject-04,1,567,1.21965384483337,keyboard,chair,15,0567_lp_s04_15_chair_10_n03376595_4464.png
subject-04,1,568,1.15333199501038,car,car,40,0568_lp_s04_40_car_10_n03100240_16525.png
subject-04,1,569,0.807091951370239,chair,chair,3,0569_lp_s04_3_chair_10_n04099969_12546.png
subject-04,1,570,1.35099196434021,truck,bicycle,10,0570_lp_s04_10_bicycle_10_n02835271_19565.png
subject-04,1,571,1.28076887130737,knife,oven,10,0571_lp_s04_10_oven_10_n04111531_11634.png
subject-04,1,572,1.32658720016479,bear,chair,15,0572_lp_s04_15_chair_10_n02791124_3857.png
subject-04,1,573,1.30227494239807,car,keyboard,40,0573_lp_s04_40_keyboard_10_n03085013_25809.png
subject-04,1,574,0.696608066558838,boat,boat,5,0574_lp_s04_5_boat_10_n04273569_22274.png
subject-04,1,575,1.03606986999512,chair,dog,3,0575_lp_s04_3_dog_10_n02092002_12007.png
subject-04,1,576,1.09988188743591,boat,bottle,40,0576_lp_s04_40_bottle_10_n02823428_5227.png
subject-04,1,577,0.815597057342529,bottle,bottle,5,0577_lp_s04_5_bottle_10_n03983396_10469.png
subject-04,1,578,1.13749194145203,bottle,bicycle,40,0578_lp_s04_40_bicycle_10_n02835271_16850.png
subject-04,1,579,1.29330611228943,cat,bird,15,0579_lp_s04_15_bird_10_n02056570_9572.png
subject-04,1,580,0.873307943344116,elephant,elephant,1,0580_lp_s04_1_elephant_10_n02504458_3985.png
subject-04,1,581,1.2829270362854,boat,bird,5,0581_lp_s04_5_bird_10_n01582220_9023.png
subject-04,1,582,0.574722051620483,clock,clock,1,0582_lp_s04_1_clock_10_n03196217_8282.png
subject-04,1,583,0.978579044342041,bicycle,bicycle,5,0583_lp_s04_5_bicycle_10_n02835271_10814.png
subject-04,1,584,0.874373912811279,bicycle,bicycle,0,0584_lp_s04_0_bicycle_10_n03792782_13281.png
subject-04,1,585,1.0962450504303,bear,bear,0,0585_lp_s04_0_bear_10_n02133161_2135.png
subject-04,1,586,0.844024896621704,bottle,keyboard,10,0586_lp_s04_10_keyboard_10_n03085013_7573.png
subject-04,1,587,1.02578997612,clock,dog,40,0587_lp_s04_40_dog_10_n02088364_11910.png
subject-04,1,588,1.30398201942444,clock,chair,40,0588_lp_s04_40_chair_10_n02791124_1935.png
subject-04,1,589,1.08187890052795,chair,knife,10,0589_lp_s04_10_knife_10_n03041632_3079.png
subject-04,1,590,1.19314312934875,bird,bottle,5,0590_lp_s04_5_bottle_10_n04560804_2176.png
subject-04,1,591,0.923341035842896,bear,bear,10,0591_lp_s04_10_bear_10_n02132136_21799.png
subject-04,1,592,1.08493208885193,bear,bird,7,0592_lp_s04_7_bird_10_n02018207_1606.png
subject-04,1,593,0.766702890396118,chair,chair,7,0593_lp_s04_7_chair_10_n03376595_11572.png
subject-04,1,594,1.19699788093567,bicycle,cat,10,0594_lp_s04_10_cat_10_n02123045_5747.png
subject-04,1,595,1.04224801063538,truck,truck,10,0595_lp_s04_10_truck_10_n03796401_28465.png
subject-04,1,596,0.956019163131714,knife,knife,0,0596_lp_s04_0_knife_10_n03041632_52702.png
subject-04,1,597,1.04790210723877,elephant,elephant,5,0597_lp_s04_5_elephant_10_n02504458_3059.png
subject-04,1,598,0.8798828125,chair,bottle,0,0598_lp_s04_0_bottle_10_n04591713_5465.png
subject-04,1,599,0.817697048187256,truck,truck,0,0599_lp_s04_0_truck_10_n03417042_22918.png
subject-04,1,600,0.853446960449219,bicycle,bicycle,1,0600_lp_s04_1_bicycle_10_n03792782_22416.png
subject-04,1,601,0.965365886688232,cat,cat,10,0601_lp_s04_10_cat_10_n02123045_1754.png
subject-04,1,602,1.1189591884613,bear,clock,15,0602_lp_s04_15_clock_10_n03196217_82.png
subject-04,1,603,1.06310606002808,chair,elephant,7,0603_lp_s04_7_elephant_10_n02504013_24811.png
subject-04,1,604,1.26456713676453,bicycle,bird,10,0604_lp_s04_10_bird_10_n02002556_5829.png
subject-04,1,605,0.862620115280151,airplane,airplane,7,0605_lp_s04_7_airplane_10_n02690373_10131.png
subject-04,1,606,0.888239145278931,elephant,elephant,0,0606_lp_s04_0_elephant_10_n02504458_10428.png
subject-04,1,607,0.982388973236084,chair,bear,7,0607_lp_s04_7_bear_10_n02134084_34902.png
subject-04,1,608,1.07787680625916,truck,keyboard,40,0608_lp_s04_40_keyboard_10_n04505470_1338.png
subject-04,1,609,1.08970189094543,boat,oven,10,0609_lp_s04_10_oven_10_n04111531_8537.png
subject-04,1,610,1.0615701675415,clock,chair,0,0610_lp_s04_0_chair_10_n04429376_7888.png
subject-04,1,611,1.28365516662598,keyboard,car,10,0611_lp_s04_10_car_10_n03100240_8670.png
subject-04,1,612,1.45913696289062,bicycle,bear,3,0612_lp_s04_3_bear_10_n02132136_15407.png
subject-04,1,613,1.19307088851929,elephant,elephant,10,0613_lp_s04_10_elephant_10_n02504458_5197.png
subject-04,1,614,1.02073788642883,truck,truck,10,0614_lp_s04_10_truck_10_n04467665_7975.png
subject-04,1,615,1.080726146698,bear,bear,7,0615_lp_s04_7_bear_10_n02134418_826.png
subject-04,1,616,1.01033806800842,car,bicycle,40,0616_lp_s04_40_bicycle_10_n02835271_2580.png
subject-04,1,617,1.12222790718079,elephant,elephant,7,0617_lp_s04_7_elephant_10_n02504458_1848.png
subject-04,1,618,0.897966861724854,airplane,airplane,0,0618_lp_s04_0_airplane_10_n02690373_4269.png
subject-04,1,619,1.23416614532471,keyboard,keyboard,7,0619_lp_s04_7_keyboard_10_n03085013_22942.png
subject-04,1,620,1.47968888282776,car,bicycle,5,0620_lp_s04_5_bicycle_10_n03792782_15.png
subject-04,1,621,0.975355863571167,truck,truck,7,0621_lp_s04_7_truck_10_n03417042_2633.png
subject-04,1,622,1.04934096336365,bottle,car,40,0622_lp_s04_40_car_10_n03100240_13842.png
subject-04,1,623,1.06105089187622,car,car,15,0623_lp_s04_15_car_10_n04285008_9107.png
subject-04,1,624,1.16078615188599,oven,truck,1,0624_lp_s04_1_truck_10_n03796401_2866.png
subject-04,1,625,0.779000997543335,boat,boat,5,0625_lp_s04_5_boat_10_n04612504_15944.png
subject-04,1,626,0.870473146438599,bottle,bottle,1,0626_lp_s04_1_bottle_10_n04591713_360.png
subject-04,1,627,0.848285913467407,dog,dog,0,0627_lp_s04_0_dog_10_n02107312_3673.png
subject-04,1,628,1.29845190048218,chair,bottle,7,0628_lp_s04_7_bottle_10_n03983396_587.png
subject-04,1,629,0.5900719165802,clock,clock,1,0629_lp_s04_1_clock_10_n04548280_821.png
subject-04,1,630,0.749720096588135,boat,bicycle,5,0630_lp_s04_5_bicycle_10_n02835271_13439.png
subject-04,1,631,1.01174402236938,boat,boat,40,0631_lp_s04_40_boat_10_n03344393_2599.png
subject-04,1,632,0.995733022689819,clock,bird,15,0632_lp_s04_15_bird_10_n01843383_2843.png
subject-04,1,633,1.22932887077332,bottle,knife,7,0633_lp_s04_7_knife_10_n03041632_16206.png
subject-04,1,634,0.810948848724365,bird,bird,3,0634_lp_s04_3_bird_10_n01829413_8792.png
subject-04,1,635,1.4169819355011,oven,elephant,40,0635_lp_s04_40_elephant_10_n02504013_4044.png
subject-04,1,636,1.11477303504944,airplane,boat,3,0636_lp_s04_3_boat_10_n03662601_25023.png
subject-04,1,637,1.38651084899902,bottle,bottle,5,0637_lp_s04_5_bottle_10_n02823428_5451.png
subject-04,1,638,1.26625394821167,dog,dog,7,0638_lp_s04_7_dog_10_n02106662_2384.png
subject-04,1,639,1.50009703636169,car,oven,7,0639_lp_s04_7_oven_10_n04111531_21068.png
subject-04,1,640,0.750171899795532,bear,bear,3,0640_lp_s04_3_bear_10_n02134084_17875.png
subject-04,1,641,1.06002187728882,dog,dog,0,0641_lp_s04_0_dog_10_n02097047_2800.png
subject-04,1,642,1.3218789100647,airplane,airplane,10,0642_lp_s04_10_airplane_10_n02690373_7432.png
subject-04,1,643,0.729656934738159,clock,clock,10,0643_lp_s04_10_clock_10_n03196217_2695.png
subject-04,1,644,0.795509815216064,knife,knife,1,0644_lp_s04_1_knife_10_n03041632_24798.png
subject-04,1,645,1.05332803726196,keyboard,bottle,10,0645_lp_s04_10_bottle_10_n02823428_3788.png
subject-04,1,646,0.691170930862427,bottle,bottle,1,0646_lp_s04_1_bottle_10_n04591713_4232.png
subject-04,1,647,1.21875810623169,dog,elephant,7,0647_lp_s04_7_elephant_10_n02504013_8052.png
subject-04,1,648,1.00266981124878,keyboard,keyboard,1,0648_lp_s04_1_keyboard_10_n03085013_23619.png
subject-04,1,649,0.832381963729858,truck,truck,0,0649_lp_s04_0_truck_10_n03796401_29952.png
subject-04,1,650,1.07826805114746,bottle,keyboard,40,0650_lp_s04_40_keyboard_10_n04505470_4492.png
subject-04,1,651,0.9204421043396,dog,dog,0,0651_lp_s04_0_dog_10_n02109961_1223.png
subject-04,1,652,0.830235004425049,bear,bear,10,0652_lp_s04_10_bear_10_n02133161_396.png
subject-04,1,653,0.955727100372314,dog,dog,1,0653_lp_s04_1_dog_10_n02102480_7293.png
subject-04,1,654,1.46748781204224,clock,oven,40,0654_lp_s04_40_oven_10_n04111531_21366.png
subject-04,1,655,0.911553144454956,keyboard,keyboard,5,0655_lp_s04_5_keyboard_10_n04505470_4742.png
subject-04,1,656,0.723122835159302,knife,knife,1,0656_lp_s04_1_knife_10_n03041632_81943.png
subject-04,1,657,0.874997854232788,elephant,elephant,5,0657_lp_s04_5_elephant_10_n02504458_10013.png
subject-04,1,658,0.741137027740479,bear,bear,5,0658_lp_s04_5_bear_10_n02134084_20723.png
subject-04,1,659,0.658634901046753,bicycle,bicycle,3,0659_lp_s04_3_bicycle_10_n02835271_9202.png
subject-04,1,660,1.45036888122559,cat,bird,3,0660_lp_s04_3_bird_10_n01855032_8133.png
subject-04,1,661,0.644101142883301,bottle,bottle,1,0661_lp_s04_1_bottle_10_n04557648_12301.png
subject-04,1,662,1.0300829410553,clock,bird,40,0662_lp_s04_40_bird_10_n01820546_1123.png
subject-04,1,663,0.611860990524292,boat,boat,5,0663_lp_s04_5_boat_10_n02951358_33277.png
subject-04,1,664,0.835637092590332,bicycle,bicycle,5,0664_lp_s04_5_bicycle_10_n03792782_5578.png
subject-04,1,665,1.50011205673218,bottle,bottle,3,0665_lp_s04_3_bottle_10_n04557648_32252.png
subject-04,1,666,0.637302160263062,boat,boat,5,0666_lp_s04_5_boat_10_n04273569_22332.png
subject-04,1,667,0.563163042068481,cat,cat,0,0667_lp_s04_0_cat_10_n02123597_680.png
subject-04,1,668,1.27940583229065,boat,elephant,15,0668_lp_s04_15_elephant_10_n02504013_2052.png
subject-04,1,669,1.08513188362122,bear,cat,10,0669_lp_s04_10_cat_10_n02123394_1957.png
subject-04,1,670,1.27651286125183,bear,dog,10,0670_lp_s04_10_dog_10_n02088094_9379.png
subject-04,1,671,1.22232818603516,bicycle,bicycle,10,0671_lp_s04_10_bicycle_10_n03792782_16290.png
subject-04,1,672,1.08420205116272,car,truck,0,0672_lp_s04_0_truck_10_n04467665_19131.png
subject-04,1,673,0.930138826370239,bird,bird,3,0673_lp_s04_3_bird_10_n01582220_4078.png
subject-04,1,674,0.923773050308228,bottle,bottle,10,0674_lp_s04_10_bottle_10_n04591713_4876.png
subject-04,1,675,0.849575042724609,clock,oven,7,0675_lp_s04_7_oven_10_n04111531_9702.png
subject-04,1,676,0.839334011077881,bottle,bottle,0,0676_lp_s04_0_bottle_10_n02823428_2510.png
subject-04,1,677,1.06514596939087,oven,oven,7,0677_lp_s04_7_oven_10_n04111531_505.png
subject-04,1,678,0.809059858322144,airplane,airplane,5,0678_lp_s04_5_airplane_10_n02690373_6992.png
subject-04,1,679,0.676951885223389,car,car,0,0679_lp_s04_0_car_10_n02814533_4689.png
subject-04,1,680,1.2126190662384,bear,bear,40,0680_lp_s04_40_bear_10_n02132136_7074.png
subject-04,1,681,0.982573986053467,bicycle,bicycle,7,0681_lp_s04_7_bicycle_10_n03792782_9692.png
subject-04,1,682,1.27045607566833,boat,cat,40,0682_lp_s04_40_cat_10_n02123597_6542.png
subject-04,1,683,1.15623497962952,clock,bicycle,40,0683_lp_s04_40_bicycle_10_n03792782_43328.png
subject-04,1,684,0.869930982589722,boat,boat,15,0684_lp_s04_15_boat_10_n02951358_26579.png
subject-04,1,685,0.983727216720581,knife,knife,0,0685_lp_s04_0_knife_10_n03041632_42156.png
subject-04,1,686,1.12766885757446,chair,chair,0,0686_lp_s04_0_chair_10_n02791124_13033.png
subject-04,1,687,1.09542798995972,bicycle,cat,7,0687_lp_s04_7_cat_10_n02125311_53412.png
subject-04,1,688,1.14123606681824,chair,oven,5,0688_lp_s04_5_oven_10_n04111531_1580.png
subject-04,1,689,1.22516202926636,bicycle,oven,3,0689_lp_s04_3_oven_10_n04111531_10216.png
subject-04,1,690,0.914707899093628,keyboard,keyboard,1,0690_lp_s04_1_keyboard_10_n04505470_5112.png
subject-04,1,691,0.668586015701294,boat,elephant,1,0691_lp_s04_1_elephant_10_n02504458_5671.png
subject-04,1,692,0.644708156585693,clock,clock,10,0692_lp_s04_10_clock_10_n02708093_6572.png
subject-04,1,693,0.976244926452637,knife,knife,3,0693_lp_s04_3_knife_10_n03041632_13130.png
subject-04,1,694,1.00833606719971,truck,truck,7,0694_lp_s04_7_truck_10_n03417042_28773.png
subject-04,1,695,1.05182981491089,elephant,elephant,0,0695_lp_s04_0_elephant_10_n02504458_6835.png
subject-04,1,696,0.953657150268555,elephant,elephant,7,0696_lp_s04_7_elephant_10_n02504013_16929.png
subject-04,1,697,1.08949589729309,cat,boat,10,0697_lp_s04_10_boat_10_n04273569_10716.png
subject-04,1,698,1.21923899650574,airplane,airplane,1,0698_lp_s04_1_airplane_10_n02690373_9328.png
subject-04,1,699,1.50005602836609,elephant,bear,10,0699_lp_s04_10_bear_10_n02134418_745.png
subject-04,1,700,0.838937997817993,keyboard,keyboard,7,0700_lp_s04_7_keyboard_10_n03085013_1188.png
subject-04,1,701,1.01109099388123,bottle,bottle,15,0701_lp_s04_15_bottle_10_n02823428_8114.png
subject-04,1,702,1.12890291213989,bear,cat,15,0702_lp_s04_15_cat_10_n02124075_13747.png
subject-04,1,703,0.976284980773926,bear,bottle,10,0703_lp_s04_10_bottle_10_n03937543_1740.png
subject-04,1,704,1.07817602157593,cat,dog,5,0704_lp_s04_5_dog_10_n02113023_8535.png
subject-04,1,705,1.45589590072632,keyboard,airplane,15,0705_lp_s04_15_airplane_10_n02690373_2042.png
subject-04,1,706,1.22613406181335,keyboard,truck,15,0706_lp_s04_15_truck_10_n03796401_25386.png
subject-04,1,707,0.867755174636841,car,truck,7,0707_lp_s04_7_truck_10_n04467665_9521.png
subject-04,1,708,1.03553986549377,bicycle,chair,7,0708_lp_s04_7_chair_10_n04099969_12456.png
subject-04,1,709,0.841508865356445,bottle,bottle,7,0709_lp_s04_7_bottle_10_n03983396_6011.png
subject-04,1,710,1.05304098129272,boat,boat,40,0710_lp_s04_40_boat_10_n03662601_33625.png
subject-04,1,711,0.934893846511841,knife,knife,10,0711_lp_s04_10_knife_10_n03041632_55711.png
subject-04,1,712,0.922708988189697,boat,bear,7,0712_lp_s04_7_bear_10_n02134084_17529.png
subject-04,1,713,0.650546789169312,clock,clock,10,0713_lp_s04_10_clock_10_n02708093_6214.png
subject-04,1,714,1.19221305847168,bottle,clock,40,0714_lp_s04_40_clock_10_n02708093_8276.png
subject-04,1,715,0.85007905960083,airplane,airplane,7,0715_lp_s04_7_airplane_10_n02690373_7370.png
subject-04,1,716,1.24590396881104,bird,dog,15,0716_lp_s04_15_dog_10_n02107312_5733.png
subject-04,1,717,0.756150007247925,car,car,7,0717_lp_s04_7_car_10_n03100240_1216.png
subject-04,1,718,0.919686079025269,boat,keyboard,40,0718_lp_s04_40_keyboard_10_n03085013_19317.png
subject-04,1,719,0.805401086807251,knife,knife,1,0719_lp_s04_1_knife_10_n03041632_2644.png
subject-04,1,720,0.917147159576416,bottle,elephant,40,0720_lp_s04_40_elephant_10_n02504013_19419.png
subject-04,1,721,0.843064069747925,elephant,elephant,7,0721_lp_s04_7_elephant_10_n02504458_4838.png
subject-04,1,722,1.25284004211426,boat,car,15,0722_lp_s04_15_car_10_n03100240_22499.png
subject-04,1,723,0.940652847290039,bottle,chair,10,0723_lp_s04_10_chair_10_n02791124_6281.png
subject-04,1,724,0.980597972869873,cat,knife,15,0724_lp_s04_15_knife_10_n03041632_52848.png
subject-04,1,725,1.16029000282288,boat,cat,10,0725_lp_s04_10_cat_10_n02123597_3828.png
subject-04,1,726,1.40019106864929,bottle,bear,40,0726_lp_s04_40_bear_10_n02132136_5815.png
subject-04,1,727,1.41409111022949,dog,dog,5,0727_lp_s04_5_dog_10_n02093256_6258.png
subject-04,1,728,1.02980017662048,chair,chair,0,0728_lp_s04_0_chair_10_n04099969_16161.png
subject-04,1,729,1.35372400283813,clock,keyboard,5,0729_lp_s04_5_keyboard_10_n04505470_4878.png
subject-04,1,730,1.3575119972229,elephant,car,5,0730_lp_s04_5_car_10_n02814533_9634.png
subject-04,1,731,0.781283855438232,bottle,bottle,0,0731_lp_s04_0_bottle_10_n04557648_376.png
subject-04,1,732,1.10702586174011,bear,bird,0,0732_lp_s04_0_bird_10_n01860187_10562.png
subject-04,1,733,1.20494794845581,elephant,cat,40,0733_lp_s04_40_cat_10_n02124075_6638.png
subject-04,1,734,0.794740200042725,bear,bear,7,0734_lp_s04_7_bear_10_n02134418_4696.png
subject-04,1,735,0.808470010757446,boat,airplane,40,0735_lp_s04_40_airplane_10_n02690373_2525.png
subject-04,1,736,0.762418031692505,bottle,bottle,0,0736_lp_s04_0_bottle_10_n02823428_2918.png
subject-04,1,737,1.02411484718323,boat,truck,40,0737_lp_s04_40_truck_10_n04467665_66876.png
subject-04,1,738,0.488016128540039,boat,boat,1,0738_lp_s04_1_boat_10_n04273569_1201.png
subject-04,1,739,0.899746894836426,knife,knife,10,0739_lp_s04_10_knife_10_n03041632_11969.png
subject-04,1,740,1.21601819992065,keyboard,clock,15,0740_lp_s04_15_clock_10_n02708093_2867.png
subject-04,1,741,0.935557126998901,boat,boat,10,0741_lp_s04_10_boat_10_n03344393_7826.png
subject-04,1,742,0.763564109802246,car,car,7,0742_lp_s04_7_car_10_n04285008_1674.png
subject-04,1,743,0.985142946243286,bicycle,bicycle,3,0743_lp_s04_3_bicycle_10_n03792782_72443.png
subject-04,1,744,0.903024911880493,chair,chair,3,0744_lp_s04_3_chair_10_n04099969_18463.png
subject-04,1,745,0.836620092391968,car,car,1,0745_lp_s04_1_car_10_n04285008_6154.png
subject-04,1,746,1.03463912010193,car,clock,3,0746_lp_s04_3_clock_10_n03196217_3086.png
subject-04,1,747,0.848428010940552,bird,bird,0,0747_lp_s04_0_bird_10_n01514859_12705.png
subject-04,1,748,1.01854801177979,dog,dog,3,0748_lp_s04_3_dog_10_n02112018_6635.png
subject-04,1,749,1.17791390419006,cat,bottle,40,0749_lp_s04_40_bottle_10_n02823428_3486.png
subject-04,1,750,0.8559410572052,bear,bird,7,0750_lp_s04_7_bird_10_n01820546_1222.png
subject-04,1,751,0.769742012023926,airplane,airplane,1,0751_lp_s04_1_airplane_10_n02690373_5010.png
subject-04,1,752,0.969375848770142,boat,airplane,40,0752_lp_s04_40_airplane_10_n02690373_1279.png
subject-04,1,753,0.997035980224609,bottle,dog,40,0753_lp_s04_40_dog_10_n02097047_2426.png
subject-04,1,754,0.856904029846191,chair,chair,5,0754_lp_s04_5_chair_10_n03376595_11280.png
subject-04,1,755,0.868927955627441,cat,cat,3,0755_lp_s04_3_cat_10_n02124075_8693.png
subject-04,1,756,1.16862201690674,car,bird,7,0756_lp_s04_7_bird_10_n02009229_11916.png
subject-04,1,757,1.27839517593384,oven,cat,5,0757_lp_s04_5_cat_10_n02125311_39208.png
subject-04,1,758,1.44465208053589,bear,truck,15,0758_lp_s04_15_truck_10_n04467665_3125.png
subject-04,1,759,1.1601779460907,bear,dog,40,0759_lp_s04_40_dog_10_n02113712_4014.png
subject-04,1,760,1.01389694213867,knife,knife,15,0760_lp_s04_15_knife_10_n03041632_42887.png
subject-04,1,761,1.0257670879364,dog,dog,1,0761_lp_s04_1_dog_10_n02113624_8023.png
subject-04,1,762,1.05999994277954,bird,bird,15,0762_lp_s04_15_bird_10_n01797886_904.png
subject-04,1,763,0.805737018585205,boat,car,40,0763_lp_s04_40_car_10_n04285008_3185.png
subject-04,1,764,0.793033123016357,bottle,bottle,5,0764_lp_s04_5_bottle_10_n02823428_4694.png
subject-04,1,765,0.972813129425049,dog,dog,0,0765_lp_s04_0_dog_10_n02094258_4979.png
subject-04,1,766,0.832621812820435,bicycle,bicycle,7,0766_lp_s04_7_bicycle_10_n03792782_30229.png
subject-04,1,767,0.826647996902466,airplane,airplane,1,0767_lp_s04_1_airplane_10_n02690373_349.png
subject-04,1,768,0.916399955749512,car,car,3,0768_lp_s04_3_car_10_n03100240_2495.png
subject-04,1,769,1.15835976600647,truck,truck,3,0769_lp_s04_3_truck_10_n03796401_3250.png
subject-04,1,770,1.07605886459351,boat,car,40,0770_lp_s04_40_car_10_n04285008_11748.png
subject-04,1,771,0.977958917617798,bottle,bottle,3,0771_lp_s04_3_bottle_10_n04560804_19001.png
subject-04,1,772,1.30350708961487,oven,cat,1,0772_lp_s04_1_cat_10_n02124075_7579.png
subject-04,1,773,0.747267961502075,oven,oven,0,0773_lp_s04_0_oven_10_n04111531_22388.png
subject-04,1,774,1.01333212852478,car,car,1,0774_lp_s04_1_car_10_n04285008_9411.png
subject-04,1,775,1.3530068397522,bicycle,elephant,3,0775_lp_s04_3_elephant_10_n02504013_1502.png
subject-04,1,776,0.708786010742188,clock,keyboard,5,0776_lp_s04_5_keyboard_10_n03085013_2594.png
subject-04,1,777,0.893004179000854,bird,bird,0,0777_lp_s04_0_bird_10_n01592084_2971.png
subject-04,1,778,1.01855301856995,bicycle,bicycle,10,0778_lp_s04_10_bicycle_10_n02835271_13862.png
subject-04,1,779,1.18628120422363,cat,dog,15,0779_lp_s04_15_dog_10_n02101388_20966.png
subject-04,1,780,1.19624900817871,dog,bottle,10,0780_lp_s04_10_bottle_10_n04557648_7601.png
subject-04,1,781,1.14590311050415,bicycle,bird,10,0781_lp_s04_10_bird_10_n02006656_11017.png
subject-04,1,782,0.876168012619019,car,car,0,0782_lp_s04_0_car_10_n03100240_11428.png
subject-04,1,783,1.27201509475708,boat,bicycle,15,0783_lp_s04_15_bicycle_10_n02835271_317.png
subject-04,1,784,1.15126490592957,knife,oven,1,0784_lp_s04_1_oven_10_n04111531_3072.png
subject-04,1,785,0.973277807235718,boat,airplane,40,0785_lp_s04_40_airplane_10_n02690373_3561.png
subject-04,1,786,0.972946166992188,bottle,boat,15,0786_lp_s04_15_boat_10_n02951358_13352.png
subject-04,1,787,1.2789351940155,dog,dog,7,0787_lp_s04_7_dog_10_n02088238_3078.png
subject-04,1,788,0.70283579826355,boat,boat,0,0788_lp_s04_0_boat_10_n03344393_5350.png
subject-04,1,789,1.50001692771912,bird,chair,10,0789_lp_s04_10_chair_10_n04429376_10341.png
subject-04,1,790,0.940335035324097,knife,knife,7,0790_lp_s04_7_knife_10_n03041632_45326.png
subject-04,1,791,0.834161996841431,oven,oven,5,0791_lp_s04_5_oven_10_n04111531_6080.png
subject-04,1,792,0.967893123626709,boat,boat,5,0792_lp_s04_5_boat_10_n02951358_12432.png
subject-04,1,793,0.611690998077393,boat,boat,3,0793_lp_s04_3_boat_10_n03344393_8265.png
subject-04,1,794,0.987339019775391,bird,bird,1,0794_lp_s04_1_bird_10_n02002556_5977.png
subject-04,1,795,1.00721502304077,knife,knife,0,0795_lp_s04_0_knife_10_n03041632_32048.png
subject-04,1,796,1.21546578407288,bottle,elephant,40,0796_lp_s04_40_elephant_10_n02504013_3634.png
subject-04,1,797,0.937112092971802,bicycle,bicycle,3,0797_lp_s04_3_bicycle_10_n02835271_18205.png
subject-04,1,798,1.19899296760559,bird,bottle,15,0798_lp_s04_15_bottle_10_n03937543_5512.png
subject-04,1,799,0.934476852416992,cat,cat,15,0799_lp_s04_15_cat_10_n02124075_11888.png
subject-04,1,800,0.624305009841919,clock,clock,0,0800_lp_s04_0_clock_10_n04548280_9294.png
subject-04,1,801,1.01838803291321,bird,bottle,7,0801_lp_s04_7_bottle_10_n04560804_2002.png
subject-04,1,802,0.912055969238281,car,car,10,0802_lp_s04_10_car_10_n04285008_4811.png
subject-04,1,803,0.764224052429199,keyboard,keyboard,3,0803_lp_s04_3_keyboard_10_n03085013_21030.png
subject-04,1,804,0.595787048339844,clock,clock,0,0804_lp_s04_0_clock_10_n04548280_3036.png
subject-04,1,805,0.847494125366211,cat,oven,5,0805_lp_s04_5_oven_10_n04111531_20493.png
subject-04,1,806,0.909253120422363,clock,oven,40,0806_lp_s04_40_oven_10_n04111531_15947.png
subject-04,1,807,0.631151914596558,oven,oven,0,0807_lp_s04_0_oven_10_n04111531_7189.png
subject-04,1,808,0.876990079879761,boat,bicycle,40,0808_lp_s04_40_bicycle_10_n03792782_11851.png
subject-04,1,809,0.794995069503784,bicycle,bicycle,5,0809_lp_s04_5_bicycle_10_n03792782_6159.png
subject-04,1,810,0.874682903289795,car,car,5,0810_lp_s04_5_car_10_n03100240_16907.png
subject-04,1,811,0.918520927429199,airplane,airplane,15,0811_lp_s04_15_airplane_10_n02690373_848.png
subject-04,1,812,1.23415589332581,bicycle,car,3,0812_lp_s04_3_car_10_n04285008_3410.png
subject-04,1,813,1.2423779964447,boat,bear,15,0813_lp_s04_15_bear_10_n02133161_1372.png
subject-04,1,814,1.03792405128479,boat,boat,10,0814_lp_s04_10_boat_10_n03662601_8554.png
subject-04,1,815,1.07971596717834,car,elephant,10,0815_lp_s04_10_elephant_10_n02504458_3209.png
subject-04,1,816,1.15172600746155,airplane,truck,15,0816_lp_s04_15_truck_10_n04467665_68463.png
subject-04,1,817,1.02957916259766,dog,dog,7,0817_lp_s04_7_dog_10_n02098105_2343.png
subject-04,1,818,1.19923496246338,cat,elephant,10,0818_lp_s04_10_elephant_10_n02504013_7923.png
subject-04,1,819,1.00328588485718,bear,oven,15,0819_lp_s04_15_oven_10_n04111531_92.png
subject-04,1,820,0.994647026062012,car,bicycle,15,0820_lp_s04_15_bicycle_10_n03792782_24734.png
subject-04,1,821,0.920423030853271,dog,dog,0,0821_lp_s04_0_dog_10_n02100735_3595.png
subject-04,1,822,0.854480028152466,elephant,elephant,5,0822_lp_s04_5_elephant_10_n02504458_66.png
subject-04,1,823,1.50002408027649,bear,bear,40,0823_lp_s04_40_bear_10_n02133161_2670.png
subject-04,1,824,0.995817899703979,bear,bear,1,0824_lp_s04_1_bear_10_n02133161_195.png
subject-04,1,825,0.909761190414429,bird,bird,1,0825_lp_s04_1_bird_10_n02002724_18548.png
subject-04,1,826,1.1515679359436,bird,boat,7,0826_lp_s04_7_boat_10_n02951358_34783.png
subject-04,1,827,0.707311868667603,bird,bird,1,0827_lp_s04_1_bird_10_n02051845_1935.png
subject-04,1,828,1.25538396835327,boat,boat,15,0828_lp_s04_15_boat_10_n04612504_2805.png
subject-04,1,829,1.15506482124329,bottle,knife,40,0829_lp_s04_40_knife_10_n03041632_28201.png
subject-04,1,830,0.703072071075439,car,car,1,0830_lp_s04_1_car_10_n03100240_1535.png
subject-04,1,831,0.952587127685547,airplane,airplane,7,0831_lp_s04_7_airplane_10_n02690373_2293.png
subject-04,1,832,0.694360017776489,airplane,airplane,0,0832_lp_s04_0_airplane_10_n02690373_9401.png
subject-04,1,833,1.18254995346069,car,car,7,0833_lp_s04_7_car_10_n04285008_13156.png
subject-04,1,834,0.94208288192749,keyboard,keyboard,1,0834_lp_s04_1_keyboard_10_n03085013_20914.png
subject-04,1,835,1.1257119178772,oven,clock,40,0835_lp_s04_40_clock_10_n03196217_634.png
subject-04,1,836,0.823745965957642,bottle,bottle,0,0836_lp_s04_0_bottle_10_n02823428_14536.png
subject-04,1,837,0.921540021896362,elephant,elephant,1,0837_lp_s04_1_elephant_10_n02504458_4868.png
subject-04,1,838,0.987658023834229,knife,knife,7,0838_lp_s04_7_knife_10_n03041632_49513.png
subject-04,1,839,1.21928596496582,car,truck,10,0839_lp_s04_10_truck_10_n03417042_12308.png
subject-04,1,840,0.940798044204712,chair,chair,3,0840_lp_s04_3_chair_10_n04429376_15078.png
subject-04,1,841,1.35477113723755,truck,bird,40,0841_lp_s04_40_bird_10_n02006656_10568.png
subject-04,1,842,0.994495868682861,boat,airplane,40,0842_lp_s04_40_airplane_10_n02690373_5961.png
subject-04,1,843,1.12065887451172,keyboard,knife,10,0843_lp_s04_10_knife_10_n03041632_93026.png
subject-04,1,844,1.07617592811584,oven,dog,15,0844_lp_s04_15_dog_10_n02107312_1538.png
subject-04,1,845,0.814143180847168,chair,chair,1,0845_lp_s04_1_chair_10_n03376595_9054.png
subject-04,1,846,1.1199631690979,dog,dog,3,0846_lp_s04_3_dog_10_n02108915_3652.png
subject-04,1,847,1.38145589828491,oven,knife,40,0847_lp_s04_40_knife_10_n03041632_29827.png
subject-04,1,848,1.0873749256134,car,car,15,0848_lp_s04_15_car_10_n02814533_58708.png
subject-04,1,849,1.18928003311157,cat,bird,10,0849_lp_s04_10_bird_10_n02028035_17238.png
subject-04,1,850,0.653488874435425,cat,cat,3,0850_lp_s04_3_cat_10_n02123394_1038.png
subject-04,1,851,1.25927710533142,airplane,airplane,0,0851_lp_s04_0_airplane_10_n02690373_1310.png
subject-04,1,852,0.894575834274292,bicycle,bicycle,10,0852_lp_s04_10_bicycle_10_n02835271_22623.png
subject-04,1,853,0.810483932495117,dog,dog,0,0853_lp_s04_0_dog_10_n02086910_9742.png
subject-04,1,854,1.0222270488739,cat,bear,3,0854_lp_s04_3_bear_10_n02134084_21577.png
subject-04,1,855,0.872241973876953,chair,chair,3,0855_lp_s04_3_chair_10_n03376595_5112.png
subject-04,1,856,0.778281927108765,airplane,airplane,3,0856_lp_s04_3_airplane_10_n02690373_15392.png
subject-04,1,857,1.08792591094971,bear,dog,15,0857_lp_s04_15_dog_10_n02093859_3707.png
subject-04,1,858,1.08168411254883,boat,airplane,40,0858_lp_s04_40_airplane_10_n02690373_2656.png
subject-04,1,859,0.853248834609985,keyboard,keyboard,0,0859_lp_s04_0_keyboard_10_n04505470_73.png
subject-04,1,860,0.775093078613281,bicycle,bicycle,7,0860_lp_s04_7_bicycle_10_n02835271_2900.png
subject-04,1,861,0.843380212783813,boat,boat,0,0861_lp_s04_0_boat_10_n03344393_3452.png
subject-04,1,862,1.29682517051697,cat,bottle,40,0862_lp_s04_40_bottle_10_n02823428_79.png
subject-04,1,863,1.06668615341187,chair,chair,0,0863_lp_s04_0_chair_10_n04099969_2038.png
subject-04,1,864,0.820455074310303,keyboard,bottle,5,0864_lp_s04_5_bottle_10_n04557648_29772.png
subject-04,1,865,0.692198038101196,chair,chair,1,0865_lp_s04_1_chair_10_n02791124_15383.png
subject-04,1,866,1.46621489524841,keyboard,bird,15,0866_lp_s04_15_bird_10_n01531178_5130.png
subject-04,1,867,0.83587908744812,keyboard,keyboard,7,0867_lp_s04_7_keyboard_10_n04505470_578.png
subject-04,1,868,1.40573000907898,knife,knife,3,0868_lp_s04_3_knife_10_n03041632_19098.png
subject-04,1,869,1.39756011962891,clock,car,10,0869_lp_s04_10_car_10_n03100240_1605.png
subject-04,1,870,0.893392086029053,dog,dog,1,0870_lp_s04_1_dog_10_n02097298_6466.png
subject-04,1,871,1.32705307006836,bird,truck,40,0871_lp_s04_40_truck_10_n03417042_21758.png
subject-04,1,872,0.818861961364746,car,car,1,0872_lp_s04_1_car_10_n04285008_10893.png
subject-04,1,873,0.610705852508545,clock,clock,0,0873_lp_s04_0_clock_10_n04548280_2169.png
subject-04,1,874,1.39860987663269,clock,oven,10,0874_lp_s04_10_oven_10_n04111531_11279.png
subject-04,1,875,0.752290010452271,bird,bird,1,0875_lp_s04_1_bird_10_n01601694_3230.png
subject-04,1,876,1.01437902450562,bottle,bottle,3,0876_lp_s04_3_bottle_10_n04591713_5019.png
subject-04,1,877,0.729992866516113,elephant,elephant,0,0877_lp_s04_0_elephant_10_n02504458_5482.png
subject-04,1,878,1.50012803077698,truck,bear,7,0878_lp_s04_7_bear_10_n02134418_860.png
subject-04,1,879,0.763556957244873,bicycle,bicycle,0,0879_lp_s04_0_bicycle_10_n03792782_6546.png
subject-04,1,880,1.129478931427,bird,bicycle,10,0880_lp_s04_10_bicycle_10_n03792782_7108.png
subject-04,1,881,0.592814922332764,clock,clock,0,0881_lp_s04_0_clock_10_n02708093_2762.png
subject-04,1,882,0.722471952438354,bicycle,bicycle,3,0882_lp_s04_3_bicycle_10_n02835271_22355.png
subject-04,1,883,0.906191110610962,boat,elephant,40,0883_lp_s04_40_elephant_10_n02504458_2419.png
subject-04,1,884,0.590443849563599,clock,clock,10,0884_lp_s04_10_clock_10_n02708093_135.png
subject-04,1,885,0.83613395690918,cat,oven,7,0885_lp_s04_7_oven_10_n04111531_13862.png
subject-04,1,886,0.939755916595459,bear,bear,15,0886_lp_s04_15_bear_10_n02134084_4923.png
subject-04,1,887,1.29369497299194,knife,knife,0,0887_lp_s04_0_knife_10_n03041632_1006.png
subject-04,1,888,0.971521139144897,knife,knife,1,0888_lp_s04_1_knife_10_n03041632_45338.png
subject-04,1,889,1.07733011245728,bird,bird,0,0889_lp_s04_0_bird_10_n02018795_5662.png
subject-04,1,890,1.17502403259277,airplane,airplane,0,0890_lp_s04_0_airplane_10_n02690373_1051.png
subject-04,1,891,0.987184047698975,keyboard,keyboard,10,0891_lp_s04_10_keyboard_10_n04505470_9570.png
subject-04,1,892,1.1845531463623,knife,chair,7,0892_lp_s04_7_chair_10_n03376595_4190.png
subject-04,1,893,1.50000810623169,bicycle,truck,10,0893_lp_s04_10_truck_10_n04467665_67861.png
subject-04,1,894,0.83233904838562,bird,bird,3,0894_lp_s04_3_bird_10_n01855672_3491.png
subject-04,1,895,1.09027695655823,bear,dog,10,0895_lp_s04_10_dog_10_n02088364_7448.png
subject-04,1,896,1.3798840045929,boat,bicycle,15,0896_lp_s04_15_bicycle_10_n03792782_54350.png
subject-04,1,897,1.17969703674316,bird,bird,7,0897_lp_s04_7_bird_10_n02009912_11907.png
subject-04,1,898,1.27560496330261,keyboard,keyboard,15,0898_lp_s04_15_keyboard_10_n03085013_21397.png
subject-04,1,899,1.34141802787781,bear,bicycle,15,0899_lp_s04_15_bicycle_10_n02835271_21707.png
subject-04,1,900,1.33747386932373,bird,car,15,0900_lp_s04_15_car_10_n03100240_5383.png
subject-04,1,901,1.06331396102905,elephant,elephant,10,0901_lp_s04_10_elephant_10_n02504458_11265.png
subject-04,1,902,0.734673976898193,truck,truck,3,0902_lp_s04_3_truck_10_n04467665_16069.png
subject-04,1,903,1.04865694046021,keyboard,bottle,5,0903_lp_s04_5_bottle_10_n04560804_12411.png
subject-04,1,904,1.20426917076111,bird,bird,7,0904_lp_s04_7_bird_10_n01622779_1370.png
subject-04,1,905,1.08632802963257,bicycle,bicycle,10,0905_lp_s04_10_bicycle_10_n02835271_8597.png
subject-04,1,906,1.00820684432983,chair,chair,0,0906_lp_s04_0_chair_10_n04099969_8032.png
subject-04,1,907,0.869787931442261,oven,oven,0,0907_lp_s04_0_oven_10_n04111531_21173.png
subject-04,1,908,0.88585901260376,chair,boat,7,0908_lp_s04_7_boat_10_n02951358_4551.png
subject-04,1,909,0.639521837234497,bottle,bottle,1,0909_lp_s04_1_bottle_10_n03937543_4723.png
subject-04,1,910,1.08921408653259,boat,cat,40,0910_lp_s04_40_cat_10_n02123159_5872.png
subject-04,1,911,1.50013589859009,keyboard,cat,40,0911_lp_s04_40_cat_10_n02124075_12815.png
subject-04,1,912,0.920961856842041,chair,elephant,7,0912_lp_s04_7_elephant_10_n02504458_1336.png
subject-04,1,913,1.33859491348267,dog,bear,1,0913_lp_s04_1_bear_10_n02134418_3383.png
subject-04,1,914,0.600633859634399,cat,cat,1,0914_lp_s04_1_cat_10_n02125311_3174.png
subject-04,1,915,1.23856210708618,truck,boat,7,0915_lp_s04_7_boat_10_n03662601_6042.png
subject-04,1,916,1.06206178665161,airplane,airplane,10,0916_lp_s04_10_airplane_10_n02690373_2580.png
subject-04,1,917,0.979959964752197,keyboard,keyboard,3,0917_lp_s04_3_keyboard_10_n04505470_3947.png
subject-04,1,918,1.05770897865295,keyboard,clock,5,0918_lp_s04_5_clock_10_n04548280_3563.png
subject-04,1,919,1.29754996299744,bear,bear,0,0919_lp_s04_0_bear_10_n02133161_5681.png
subject-04,1,920,1.50004911422729,boat,bird,15,0920_lp_s04_15_bird_10_n02028035_33583.png
subject-04,1,921,1.26319193840027,car,chair,5,0921_lp_s04_5_chair_10_n03376595_302.png
subject-04,1,922,1.03292393684387,clock,oven,40,0922_lp_s04_40_oven_10_n04111531_4795.png
subject-04,1,923,0.930893898010254,oven,oven,1,0923_lp_s04_1_oven_10_n04111531_7667.png
subject-04,1,924,1.12074494361877,cat,elephant,15,0924_lp_s04_15_elephant_10_n02504013_5463.png
subject-04,1,925,1.03484606742859,airplane,airplane,10,0925_lp_s04_10_airplane_10_n02690373_5427.png
subject-04,1,926,0.932210922241211,truck,truck,7,0926_lp_s04_7_truck_10_n03796401_7928.png
subject-04,1,927,0.772089958190918,elephant,elephant,1,0927_lp_s04_1_elephant_10_n02504013_3739.png
subject-04,1,928,1.26776504516602,knife,knife,3,0928_lp_s04_3_knife_10_n03041632_9256.png
subject-04,1,929,0.691701173782349,cat,cat,7,0929_lp_s04_7_cat_10_n02123597_14267.png
subject-04,1,930,0.811484098434448,clock,clock,0,0930_lp_s04_0_clock_10_n03196217_6163.png
subject-04,1,931,1.26324200630188,bear,chair,15,0931_lp_s04_15_chair_10_n02791124_634.png
subject-04,1,932,0.721110820770264,chair,chair,1,0932_lp_s04_1_chair_10_n02791124_3883.png
subject-04,1,933,0.828799962997437,bear,bear,1,0933_lp_s04_1_bear_10_n02133161_2100.png
subject-04,1,934,0.792876958847046,chair,oven,15,0934_lp_s04_15_oven_10_n04111531_2350.png
subject-04,1,935,0.71045994758606,chair,chair,1,0935_lp_s04_1_chair_10_n02791124_66.png
subject-04,1,936,1.05822587013245,knife,knife,1,0936_lp_s04_1_knife_10_n03041632_86783.png
subject-04,1,937,1.29822182655334,clock,bird,10,0937_lp_s04_10_bird_10_n02013706_10026.png
subject-04,1,938,1.3279128074646,cat,cat,15,0938_lp_s04_15_cat_10_n02125311_44920.png
subject-04,1,939,0.980081081390381,chair,cat,15,0939_lp_s04_15_cat_10_n02123394_5909.png
subject-04,1,940,1.30990481376648,car,bird,40,0940_lp_s04_40_bird_10_n01824575_822.png
subject-04,1,941,1.50010919570923,boat,chair,40,0941_lp_s04_40_chair_10_n03376595_1740.png
subject-04,1,942,1.21512722969055,boat,cat,40,0942_lp_s04_40_cat_10_n02123159_3724.png
subject-04,1,943,1.17502498626709,keyboard,bottle,40,0943_lp_s04_40_bottle_10_n04557648_2002.png
subject-04,1,944,1.05132699012756,chair,car,15,0944_lp_s04_15_car_10_n02814533_82674.png
subject-04,1,945,0.664766073226929,car,car,0,0945_lp_s04_0_car_10_n02814533_10069.png
subject-04,1,946,0.964530944824219,bear,truck,15,0946_lp_s04_15_truck_10_n03796401_3495.png
subject-04,1,947,1.34623718261719,boat,bicycle,7,0947_lp_s04_7_bicycle_10_n02835271_7426.png
subject-04,1,948,0.732017040252686,chair,chair,5,0948_lp_s04_5_chair_10_n02791124_3222.png
subject-04,1,949,0.674376010894775,clock,clock,0,0949_lp_s04_0_clock_10_n03196217_2414.png
subject-04,1,950,1.11415481567383,chair,dog,40,0950_lp_s04_40_dog_10_n02100583_14082.png
subject-04,1,951,0.951565027236938,cat,cat,0,0951_lp_s04_0_cat_10_n02124075_10310.png
subject-04,1,952,0.861346960067749,bird,bird,0,0952_lp_s04_0_bird_10_n01855672_15005.png
subject-04,1,953,0.981084823608398,knife,knife,7,0953_lp_s04_7_knife_10_n03041632_2058.png
subject-04,1,954,0.843060970306396,truck,truck,0,0954_lp_s04_0_truck_10_n04467665_17101.png
subject-04,1,955,1.50006484985352,keyboard,keyboard,40,0955_lp_s04_40_keyboard_10_n03085013_21955.png
subject-04,1,956,1.04257082939148,dog,dog,5,0956_lp_s04_5_dog_10_n02091635_7361.png
subject-04,1,957,0.612426042556763,cat,cat,1,0957_lp_s04_1_cat_10_n02123394_4299.png
subject-04,1,958,1.16437721252441,bird,bottle,7,0958_lp_s04_7_bottle_10_n02823428_2355.png
subject-04,1,959,1.20206499099731,boat,dog,40,0959_lp_s04_40_dog_10_n02106662_56458.png
subject-04,1,960,1.36378502845764,chair,bear,40,0960_lp_s04_40_bear_10_n02132136_14346.png
subject-04,1,961,1.18167495727539,bird,clock,40,0961_lp_s04_40_clock_10_n02708093_8141.png
subject-04,1,962,1.31767702102661,cat,bear,5,0962_lp_s04_5_bear_10_n02134084_13175.png
subject-04,1,963,0.965165138244629,oven,boat,15,0963_lp_s04_15_boat_10_n04612504_26151.png
subject-04,1,964,0.887085914611816,chair,chair,1,0964_lp_s04_1_chair_10_n04429376_19354.png
subject-04,1,965,0.960850954055786,bear,car,40,0965_lp_s04_40_car_10_n03100240_2042.png
subject-04,1,966,1.27087903022766,chair,cat,7,0966_lp_s04_7_cat_10_n02123045_9184.png
subject-04,1,967,1.14647698402405,oven,bottle,40,0967_lp_s04_40_bottle_10_n03937543_5254.png
subject-04,1,968,0.708337068557739,car,car,5,0968_lp_s04_5_car_10_n03100240_2075.png
subject-04,1,969,0.574371814727783,boat,boat,5,0969_lp_s04_5_boat_10_n03344393_5916.png
subject-04,1,970,0.714424133300781,airplane,airplane,5,0970_lp_s04_5_airplane_10_n02690373_2981.png
subject-04,1,971,1.15017008781433,clock,clock,5,0971_lp_s04_5_clock_10_n04548280_4557.png
subject-04,1,972,0.96991491317749,bird,bird,7,0972_lp_s04_7_bird_10_n02018795_500.png
subject-04,1,973,0.973541021347046,bird,bird,5,0973_lp_s04_5_bird_10_n01530575_10367.png
subject-04,1,974,0.75729513168335,boat,boat,3,0974_lp_s04_3_boat_10_n04273569_11445.png
subject-04,1,975,0.793004989624023,oven,oven,5,0975_lp_s04_5_oven_10_n04111531_4155.png
subject-04,1,976,1.21895384788513,airplane,elephant,40,0976_lp_s04_40_elephant_10_n02504013_3857.png
subject-04,1,977,0.956604957580566,oven,oven,1,0977_lp_s04_1_oven_10_n04111531_14383.png
subject-04,1,978,1.28244996070862,chair,chair,7,0978_lp_s04_7_chair_10_n04099969_3984.png
subject-04,1,979,1.31037712097168,bird,boat,10,0979_lp_s04_10_boat_10_n02951358_9146.png
subject-04,1,980,0.856458902359009,dog,dog,1,0980_lp_s04_1_dog_10_n02097047_2376.png
subject-04,1,981,0.863948106765747,car,car,10,0981_lp_s04_10_car_10_n03100240_6029.png
subject-04,1,982,0.803837060928345,keyboard,keyboard,0,0982_lp_s04_0_keyboard_10_n04505470_4599.png
subject-04,1,983,0.865500926971436,airplane,airplane,5,0983_lp_s04_5_airplane_10_n02690373_7489.png
subject-04,1,984,0.697803020477295,oven,oven,0,0984_lp_s04_0_oven_10_n04111531_2189.png
subject-04,1,985,1.03308701515198,chair,cat,15,0985_lp_s04_15_cat_10_n02123159_6281.png
subject-04,1,986,0.948966026306152,boat,bottle,40,0986_lp_s04_40_bottle_10_n03937543_1391.png
subject-04,1,987,0.986832141876221,elephant,bird,1,0987_lp_s04_1_bird_10_n01860187_348.png
subject-04,1,988,1.46869707107544,boat,elephant,10,0988_lp_s04_10_elephant_10_n02504458_6107.png
subject-04,1,989,1.21043300628662,chair,dog,3,0989_lp_s04_3_dog_10_n02101006_5024.png
subject-04,1,990,NaN,na,elephant,3,0990_lp_s04_3_elephant_10_n02504458_6348.png
subject-04,1,991,0.817962169647217,bear,bear,3,0991_lp_s04_3_bear_10_n02133161_10141.png
subject-04,1,992,1.05595397949219,chair,chair,10,0992_lp_s04_10_chair_10_n03376595_1798.png
subject-04,1,993,1.12998199462891,oven,oven,15,0993_lp_s04_15_oven_10_n04111531_11530.png
subject-04,1,994,0.733383178710938,bicycle,bicycle,1,0994_lp_s04_1_bicycle_10_n03792782_46807.png
subject-04,1,995,0.87732195854187,truck,truck,0,0995_lp_s04_0_truck_10_n04467665_18621.png
subject-04,1,996,1.16309809684753,elephant,cat,40,0996_lp_s04_40_cat_10_n02124075_9066.png
subject-04,1,997,0.763006925582886,knife,knife,0,0997_lp_s04_0_knife_10_n03041632_11741.png
subject-04,1,998,1.27469992637634,boat,keyboard,10,0998_lp_s04_10_keyboard_10_n04505470_4587.png
subject-04,1,999,0.926570177078247,bird,bird,7,0999_lp_s04_7_bird_10_n01614925_1097.png
subject-04,1,1000,1.16864204406738,bear,bird,0,1000_lp_s04_0_bird_10_n02009229_4838.png
subject-04,1,1001,1.32834219932556,keyboard,keyboard,40,1001_lp_s04_40_keyboard_10_n03085013_19547.png
subject-04,1,1002,1.11994290351868,bottle,knife,7,1002_lp_s04_7_knife_10_n03041632_25772.png
subject-04,1,1003,0.951874971389771,elephant,elephant,3,1003_lp_s04_3_elephant_10_n02504013_10330.png
subject-04,1,1004,0.983608961105347,dog,dog,1,1004_lp_s04_1_dog_10_n02113023_5237.png
subject-04,1,1005,1.0693211555481,boat,boat,10,1005_lp_s04_10_boat_10_n03344393_5343.png
subject-04,1,1006,1.03111100196838,chair,chair,1,1006_lp_s04_1_chair_10_n02791124_241.png
subject-04,1,1007,0.731194972991943,bicycle,bicycle,0,1007_lp_s04_0_bicycle_10_n03792782_9512.png
subject-04,1,1008,0.916800975799561,car,car,5,1008_lp_s04_5_car_10_n02814533_82372.png
subject-04,1,1009,0.818749904632568,keyboard,keyboard,0,1009_lp_s04_0_keyboard_10_n03085013_14237.png
subject-04,1,1010,0.984506130218506,airplane,airplane,10,1010_lp_s04_10_airplane_10_n02690373_5176.png
subject-04,1,1011,0.890344142913818,bottle,bottle,1,1011_lp_s04_1_bottle_10_n04591713_6138.png
subject-04,1,1012,0.790229082107544,bear,bear,0,1012_lp_s04_0_bear_10_n02134084_13075.png
subject-04,1,1013,0.980029106140137,keyboard,keyboard,7,1013_lp_s04_7_keyboard_10_n03085013_18830.png
subject-04,1,1014,0.890001058578491,knife,knife,5,1014_lp_s04_5_knife_10_n03041632_12748.png
subject-04,1,1015,1.1236457824707,dog,dog,1,1015_lp_s04_1_dog_10_n02091635_5740.png
subject-04,1,1016,1.40138292312622,cat,clock,10,1016_lp_s04_10_clock_10_n02708093_321.png
subject-04,1,1017,1.32518792152405,bottle,chair,15,1017_lp_s04_15_chair_10_n04099969_3312.png
subject-04,1,1018,1.00308108329773,boat,bear,15,1018_lp_s04_15_bear_10_n02134418_5777.png
subject-04,1,1019,1.44079780578613,bear,boat,15,1019_lp_s04_15_boat_10_n03662601_16825.png
subject-04,1,1020,1.41504693031311,car,car,40,1020_lp_s04_40_car_10_n02814533_51701.png
subject-04,1,1021,1.31635093688965,bottle,bicycle,40,1021_lp_s04_40_bicycle_10_n03792782_3410.png
subject-04,1,1022,0.920583009719849,airplane,airplane,10,1022_lp_s04_10_airplane_10_n02690373_18468.png
subject-04,1,1023,1.24011206626892,bottle,knife,10,1023_lp_s04_10_knife_10_n03041632_29920.png
subject-04,1,1024,1.36417818069458,oven,keyboard,15,1024_lp_s04_15_keyboard_10_n03085013_18797.png
subject-04,1,1025,1.29564905166626,keyboard,clock,5,1025_lp_s04_5_clock_10_n03196217_2530.png
subject-04,1,1026,1.18934917449951,airplane,airplane,15,1026_lp_s04_15_airplane_10_n02690373_6336.png
subject-04,1,1027,0.925343990325928,elephant,elephant,1,1027_lp_s04_1_elephant_10_n02504458_11345.png
subject-04,1,1028,1.38908004760742,oven,elephant,15,1028_lp_s04_15_elephant_10_n02504458_7835.png
subject-04,1,1029,1.35899186134338,chair,chair,5,1029_lp_s04_5_chair_10_n04429376_1935.png
subject-04,1,1030,1.34869599342346,oven,bicycle,5,1030_lp_s04_5_bicycle_10_n02835271_10556.png
subject-04,1,1031,1.40676712989807,boat,truck,40,1031_lp_s04_40_truck_10_n03796401_10234.png
subject-04,1,1032,1.03842902183533,dog,dog,0,1032_lp_s04_0_dog_10_n02108422_1164.png
subject-04,1,1033,1.05242991447449,chair,chair,3,1033_lp_s04_3_chair_10_n02791124_14040.png
subject-04,1,1034,1.13207983970642,truck,truck,3,1034_lp_s04_3_truck_10_n03417042_5508.png
subject-04,1,1035,1.311851978302,keyboard,oven,40,1035_lp_s04_40_oven_10_n04111531_5727.png
subject-04,1,1036,0.745667934417725,keyboard,keyboard,1,1036_lp_s04_1_keyboard_10_n03085013_23697.png
subject-04,1,1037,1.29149794578552,dog,bear,5,1037_lp_s04_5_bear_10_n02132136_9965.png
subject-04,1,1038,1.23376417160034,chair,elephant,40,1038_lp_s04_40_elephant_10_n02504458_5169.png
subject-04,1,1039,0.903058052062988,keyboard,keyboard,1,1039_lp_s04_1_keyboard_10_n03085013_5950.png
subject-04,1,1040,1.32912707328796,dog,cat,5,1040_lp_s04_5_cat_10_n02123597_13835.png
subject-04,1,1041,1.18499994277954,bicycle,chair,7,1041_lp_s04_7_chair_10_n03376595_3499.png
subject-04,1,1042,0.914805889129639,boat,truck,40,1042_lp_s04_40_truck_10_n03417042_17616.png
subject-04,1,1043,0.830739974975586,dog,dog,1,1043_lp_s04_1_dog_10_n02093754_5037.png
subject-04,1,1044,0.952453136444092,oven,chair,15,1044_lp_s04_15_chair_10_n02791124_3890.png
subject-04,1,1045,0.804229021072388,car,car,0,1045_lp_s04_0_car_10_n03100240_9625.png
subject-04,1,1046,1.35010099411011,oven,cat,40,1046_lp_s04_40_cat_10_n02123045_2029.png
subject-04,1,1047,1.13004803657532,oven,cat,5,1047_lp_s04_5_cat_10_n02124075_13187.png
subject-04,1,1048,0.743736982345581,car,car,1,1048_lp_s04_1_car_10_n02814533_42547.png
subject-04,1,1049,1.50010991096497,boat,boat,7,1049_lp_s04_7_boat_10_n03344393_3921.png
subject-04,1,1050,0.961359977722168,car,car,5,1050_lp_s04_5_car_10_n03100240_7385.png
subject-04,1,1051,1.40929508209229,airplane,clock,15,1051_lp_s04_15_clock_10_n04548280_8892.png
subject-04,1,1052,1.04916000366211,elephant,elephant,3,1052_lp_s04_3_elephant_10_n02504013_1813.png
subject-04,1,1053,1.20061302185059,chair,chair,5,1053_lp_s04_5_chair_10_n02791124_3731.png
subject-04,1,1054,1.09057402610779,dog,dog,3,1054_lp_s04_3_dog_10_n02091134_3075.png
subject-04,1,1055,1.50017595291138,keyboard,chair,0,1055_lp_s04_0_chair_10_n03376595_6107.png
subject-04,1,1056,1.50009512901306,elephant,bicycle,7,1056_lp_s04_7_bicycle_10_n03792782_11950.png
subject-04,1,1057,0.797883033752441,airplane,airplane,1,1057_lp_s04_1_airplane_10_n02690373_3988.png
subject-04,1,1058,1.33971095085144,chair,keyboard,5,1058_lp_s04_5_keyboard_10_n03085013_23319.png
subject-04,1,1059,1.15560698509216,bear,bicycle,15,1059_lp_s04_15_bicycle_10_n03792782_18294.png
subject-04,1,1060,1.46331191062927,boat,bicycle,15,1060_lp_s04_15_bicycle_10_n02835271_3535.png
subject-04,1,1061,0.847047090530396,cat,cat,5,1061_lp_s04_5_cat_10_n02123045_11034.png
subject-04,1,1062,1.12289881706238,knife,knife,10,1062_lp_s04_10_knife_10_n03041632_6309.png
subject-04,1,1063,1.26521611213684,oven,truck,15,1063_lp_s04_15_truck_10_n03417042_10229.png
subject-04,1,1064,0.694579124450684,car,car,1,1064_lp_s04_1_car_10_n02814533_83577.png
subject-04,1,1065,1.08228802680969,boat,oven,40,1065_lp_s04_40_oven_10_n04111531_4988.png
subject-04,1,1066,0.956480979919434,oven,oven,5,1066_lp_s04_5_oven_10_n04111531_12942.png
subject-04,1,1067,1.08604097366333,keyboard,keyboard,10,1067_lp_s04_10_keyboard_10_n04505470_3132.png
subject-04,1,1068,1.4617018699646,bear,bear,10,1068_lp_s04_10_bear_10_n02134418_1311.png
subject-04,1,1069,1.14579796791077,truck,oven,10,1069_lp_s04_10_oven_10_n04111531_24096.png
subject-04,1,1070,0.855561017990112,boat,bird,40,1070_lp_s04_40_bird_10_n02033041_4901.png
subject-04,1,1071,0.57326602935791,boat,boat,1,1071_lp_s04_1_boat_10_n03344393_5417.png
subject-04,1,1072,1.44892597198486,bicycle,bicycle,10,1072_lp_s04_10_bicycle_10_n02835271_20445.png
subject-04,1,1073,0.992952108383179,boat,boat,40,1073_lp_s04_40_boat_10_n04273569_5811.png
subject-04,1,1074,1.4527051448822,chair,bear,5,1074_lp_s04_5_bear_10_n02134418_3531.png
subject-04,1,1075,0.660842895507812,cat,cat,7,1075_lp_s04_7_cat_10_n02124075_9149.png
subject-04,1,1076,0.696560144424438,cat,cat,0,1076_lp_s04_0_cat_10_n02125311_21169.png
subject-04,1,1077,1.12205219268799,clock,bicycle,40,1077_lp_s04_40_bicycle_10_n03792782_1868.png
subject-04,1,1078,0.969884872436523,knife,knife,1,1078_lp_s04_1_knife_10_n03041632_3101.png
subject-04,1,1079,1.31410908699036,knife,airplane,40,1079_lp_s04_40_airplane_10_n02690373_4591.png
subject-04,1,1080,0.949667930603027,airplane,airplane,0,1080_lp_s04_0_airplane_10_n02690373_181.png
subject-04,1,1081,0.871400833129883,bottle,bottle,7,1081_lp_s04_7_bottle_10_n02823428_7630.png
subject-04,1,1082,0.883183002471924,boat,clock,40,1082_lp_s04_40_clock_10_n02708093_32.png
subject-04,1,1083,0.843003034591675,knife,knife,7,1083_lp_s04_7_knife_10_n03041632_2153.png
subject-04,1,1084,0.680808067321777,boat,boat,0,1084_lp_s04_0_boat_10_n02951358_29756.png
subject-04,1,1085,1.49999785423279,knife,airplane,40,1085_lp_s04_40_airplane_10_n02690373_19134.png
subject-04,1,1086,1.30651307106018,clock,keyboard,15,1086_lp_s04_15_keyboard_10_n03085013_12079.png
subject-04,1,1087,1.25619006156921,cat,truck,40,1087_lp_s04_40_truck_10_n04467665_67527.png
subject-04,1,1088,1.17430305480957,cat,dog,15,1088_lp_s04_15_dog_10_n02108915_1114.png
subject-04,1,1089,1.42180109024048,clock,knife,10,1089_lp_s04_10_knife_10_n03041632_24384.png
subject-04,1,1090,0.759738922119141,oven,oven,3,1090_lp_s04_3_oven_10_n04111531_8373.png
subject-04,1,1091,0.615559101104736,clock,clock,1,1091_lp_s04_1_clock_10_n02708093_2806.png
