subj,Session,trial,rt,object_response,category,condition,imagename
subject-02,1,1,1.01214194297791,elephant,elephant,10,0001_lp_s02_10_elephant_10_n02504458_5379.png
subject-02,1,2,0.820026159286499,bear,dog,15,0002_lp_s02_15_dog_10_n02091244_10926.png
subject-02,1,3,1.15009307861328,dog,dog,0,0003_lp_s02_0_dog_10_n02109961_1223.png
subject-02,1,4,0.81782603263855,car,car,3,0004_lp_s02_3_car_10_n03100240_13707.png
subject-02,1,5,0.783656120300293,bear,bear,0,0005_lp_s02_0_bear_10_n02132136_7586.png
subject-02,1,6,1.15130090713501,keyboard,clock,7,0006_lp_s02_7_clock_10_n03196217_3006.png
subject-02,1,7,0.98501992225647,oven,truck,15,0007_lp_s02_15_truck_10_n03796401_25386.png
subject-02,1,8,1.13501811027527,car,airplane,1,0008_lp_s02_1_airplane_10_n02690373_5266.png
subject-02,1,9,1.1247820854187,cat,chair,10,0009_lp_s02_10_chair_10_n04429376_2450.png
subject-02,1,10,0.676587104797363,bicycle,bicycle,0,0010_lp_s02_0_bicycle_10_n02835271_24213.png
subject-02,1,11,1.03438401222229,boat,elephant,10,0011_lp_s02_10_elephant_10_n02504458_6107.png
subject-02,1,12,1.3365957736969,chair,boat,15,0012_lp_s02_15_boat_10_n03662601_16825.png
subject-02,1,13,0.6200270652771,boat,boat,0,0013_lp_s02_0_boat_10_n03344393_5350.png
subject-02,1,14,1.38189196586609,airplane,boat,3,0014_lp_s02_3_boat_10_n03662601_25023.png
subject-02,1,15,1.5000422000885,bicycle,car,15,0015_lp_s02_15_car_10_n02814533_9785.png
subject-02,1,16,0.74344277381897,airplane,airplane,3,0016_lp_s02_3_airplane_10_n02690373_20074.png
subject-02,1,17,0.685302019119263,bear,bicycle,40,0017_lp_s02_40_bicycle_10_n02835271_9690.png
subject-02,1,18,1.22304320335388,bird,airplane,40,0018_lp_s02_40_airplane_10_n02690373_2525.png
subject-02,1,19,1.05501508712769,dog,cat,7,0019_lp_s02_7_cat_10_n02124075_9149.png
subject-02,1,20,0.582701921463013,clock,clock,1,0020_lp_s02_1_clock_10_n02708093_3605.png
subject-02,1,21,1.50007700920105,keyboard,truck,5,0021_lp_s02_5_truck_10_n04467665_69582.png
subject-02,1,22,1.11244702339172,chair,elephant,7,0022_lp_s02_7_elephant_10_n02504013_24811.png
subject-02,1,23,0.852230072021484,bird,bird,7,0023_lp_s02_7_bird_10_n01614925_1097.png
subject-02,1,24,0.695775985717773,keyboard,keyboard,3,0024_lp_s02_3_keyboard_10_n04505470_3947.png
subject-02,1,25,0.771787881851196,car,car,5,0025_lp_s02_5_car_10_n03100240_16907.png
subject-02,1,26,1.01758503913879,bottle,bottle,3,0026_lp_s02_3_bottle_10_n04591713_5364.png
subject-02,1,27,1.07379698753357,bear,oven,10,0027_lp_s02_10_oven_10_n04111531_13795.png
subject-02,1,28,0.945235013961792,oven,airplane,10,0028_lp_s02_10_airplane_10_n02690373_8813.png
subject-02,1,29,0.955464124679565,chair,bird,40,0029_lp_s02_40_bird_10_n02018795_4730.png
subject-02,1,30,0.891122102737427,bicycle,bicycle,3,0030_lp_s02_3_bicycle_10_n02835271_9440.png
subject-02,1,31,1.10667490959167,truck,truck,0,0031_lp_s02_0_truck_10_n04467665_19131.png
subject-02,1,32,0.562603950500488,boat,boat,0,0032_lp_s02_0_boat_10_n03344393_3349.png
subject-02,1,33,0.764654874801636,oven,oven,1,0033_lp_s02_1_oven_10_n04111531_2715.png
subject-02,1,34,1.14404010772705,car,car,5,0034_lp_s02_5_car_10_n02814533_82372.png
subject-02,1,35,0.99776291847229,boat,clock,40,0035_lp_s02_40_clock_10_n03196217_634.png
subject-02,1,36,0.733758926391602,chair,chair,1,0036_lp_s02_1_chair_10_n04429376_5238.png
subject-02,1,37,0.767786026000977,car,car,7,0037_lp_s02_7_car_10_n03100240_1406.png
subject-02,1,38,0.913273096084595,chair,clock,1,0038_lp_s02_1_clock_10_n04548280_2809.png
subject-02,1,39,1.12105011940002,cat,chair,15,0039_lp_s02_15_chair_10_n02791124_634.png
subject-02,1,40,1.41705298423767,dog,cat,5,0040_lp_s02_5_cat_10_n02124075_13187.png
subject-02,1,41,0.66084885597229,bottle,bear,15,0041_lp_s02_15_bear_10_n02132136_786.png
subject-02,1,42,0.646771907806396,boat,boat,0,0042_lp_s02_0_boat_10_n03344393_8599.png
subject-02,1,43,1.11434602737427,bear,bear,0,0043_lp_s02_0_bear_10_n02134418_5581.png
subject-02,1,44,0.876098871231079,bicycle,bicycle,1,0044_lp_s02_1_bicycle_10_n02835271_20920.png
subject-02,1,45,0.981912136077881,clock,clock,1,0045_lp_s02_1_clock_10_n03196217_7836.png
subject-02,1,46,1.14192795753479,keyboard,airplane,40,0046_lp_s02_40_airplane_10_n02690373_19134.png
subject-02,1,47,1.19586396217346,chair,knife,3,0047_lp_s02_3_knife_10_n03041632_13108.png
subject-02,1,48,0.823709011077881,bottle,bottle,3,0048_lp_s02_3_bottle_10_n02823428_4658.png
subject-02,1,49,0.699482917785645,boat,boat,0,0049_lp_s02_0_boat_10_n04273569_12318.png
subject-02,1,50,0.873231887817383,truck,truck,7,0050_lp_s02_7_truck_10_n03796401_4119.png
subject-02,1,51,0.895271062850952,cat,cat,15,0051_lp_s02_15_cat_10_n02124075_11888.png
subject-02,1,52,1.03085207939148,knife,chair,10,0052_lp_s02_10_chair_10_n03376595_1798.png
subject-02,1,53,0.940433979034424,bird,cat,15,0053_lp_s02_15_cat_10_n02123394_5909.png
subject-02,1,54,1.31479620933533,elephant,knife,10,0054_lp_s02_10_knife_10_n03041632_24384.png
subject-02,1,55,0.732177019119263,clock,clock,0,0055_lp_s02_0_clock_10_n03196217_6160.png
subject-02,1,56,0.784018039703369,bottle,bottle,7,0056_lp_s02_7_bottle_10_n03983396_12042.png
subject-02,1,57,0.695835828781128,clock,clock,7,0057_lp_s02_7_clock_10_n02708093_6890.png
subject-02,1,58,0.691659927368164,oven,bird,10,0058_lp_s02_10_bird_10_n01843383_277.png
subject-02,1,59,0.797425985336304,chair,boat,10,0059_lp_s02_10_boat_10_n03344393_4482.png
subject-02,1,60,0.887279033660889,truck,keyboard,40,0060_lp_s02_40_keyboard_10_n03085013_23793.png
subject-02,1,61,1.24312615394592,bird,bird,5,0061_lp_s02_5_bird_10_n02011460_19314.png
subject-02,1,62,0.786919116973877,keyboard,bear,15,0062_lp_s02_15_bear_10_n02134418_5777.png
subject-02,1,63,1.38656306266785,knife,bear,3,0063_lp_s02_3_bear_10_n02134084_20142.png
subject-02,1,64,0.648765087127686,chair,elephant,40,0064_lp_s02_40_elephant_10_n02504013_572.png
subject-02,1,65,0.932284116744995,keyboard,oven,10,0065_lp_s02_10_oven_10_n04111531_11279.png
subject-02,1,66,0.804112911224365,chair,keyboard,5,0066_lp_s02_5_keyboard_10_n03085013_23319.png
subject-02,1,67,0.684262037277222,boat,boat,5,0067_lp_s02_5_boat_10_n04273569_2037.png
subject-02,1,68,1.06168222427368,chair,chair,1,0068_lp_s02_1_chair_10_n04429376_19354.png
subject-02,1,69,0.667666912078857,boat,boat,7,0069_lp_s02_7_boat_10_n02951358_30909.png
subject-02,1,70,0.687519073486328,clock,clock,7,0070_lp_s02_7_clock_10_n04548280_532.png
subject-02,1,71,1.22348403930664,elephant,elephant,0,0071_lp_s02_0_elephant_10_n02504458_908.png
subject-02,1,72,1.40755701065063,airplane,keyboard,3,0072_lp_s02_3_keyboard_10_n03085013_8136.png
subject-02,1,73,1.49894309043884,airplane,airplane,7,0073_lp_s02_7_airplane_10_n02690373_2293.png
subject-02,1,74,0.734554052352905,bicycle,bicycle,0,0074_lp_s02_0_bicycle_10_n03792782_13281.png
subject-02,1,75,0.776388883590698,bear,clock,40,0075_lp_s02_40_clock_10_n03196217_3903.png
subject-02,1,76,0.976267099380493,car,car,1,0076_lp_s02_1_car_10_n03100240_595.png
subject-02,1,77,0.986172914505005,cat,cat,5,0077_lp_s02_5_cat_10_n02123597_5887.png
subject-02,1,78,1.3739550113678,cat,cat,3,0078_lp_s02_3_cat_10_n02125311_6283.png
subject-02,1,79,0.791790962219238,elephant,elephant,5,0079_lp_s02_5_elephant_10_n02504458_3059.png
subject-02,1,80,0.921412944793701,chair,chair,3,0080_lp_s02_3_chair_10_n04429376_57621.png
subject-02,1,81,0.776771068572998,keyboard,chair,0,0081_lp_s02_0_chair_10_n03376595_6107.png
subject-02,1,82,0.646494150161743,oven,bear,40,0082_lp_s02_40_bear_10_n02132136_5815.png
subject-02,1,83,0.578226089477539,boat,boat,3,0083_lp_s02_3_boat_10_n03662601_17665.png
subject-02,1,84,0.918317079544067,clock,bear,40,0084_lp_s02_40_bear_10_n02132136_25168.png
subject-02,1,85,0.939955949783325,keyboard,keyboard,15,0085_lp_s02_15_keyboard_10_n03085013_23731.png
subject-02,1,86,0.807601928710938,car,car,0,0086_lp_s02_0_car_10_n03100240_11428.png
subject-02,1,87,0.74147891998291,airplane,airplane,1,0087_lp_s02_1_airplane_10_n02690373_9328.png
subject-02,1,88,0.855651140213013,bear,bear,15,0088_lp_s02_15_bear_10_n02134084_19849.png
subject-02,1,89,1.00123906135559,knife,knife,0,0089_lp_s02_0_knife_10_n03041632_8528.png
subject-02,1,90,1.23081183433533,elephant,boat,40,0090_lp_s02_40_boat_10_n03344393_2915.png
subject-02,1,91,0.648812055587769,clock,clock,3,0091_lp_s02_3_clock_10_n04548280_289.png
subject-02,1,92,0.62865686416626,bicycle,bicycle,1,0092_lp_s02_1_bicycle_10_n03792782_51466.png
subject-02,1,93,0.826370000839233,chair,chair,0,0093_lp_s02_0_chair_10_n03376595_13927.png
subject-02,1,94,1.08826589584351,truck,keyboard,5,0094_lp_s02_5_keyboard_10_n04505470_9331.png
subject-02,1,95,0.685950994491577,keyboard,keyboard,0,0095_lp_s02_0_keyboard_10_n04505470_4044.png
subject-02,1,96,0.799978971481323,car,car,0,0096_lp_s02_0_car_10_n02814533_4689.png
subject-02,1,97,1.14763498306274,dog,dog,7,0097_lp_s02_7_dog_10_n02098105_2343.png
subject-02,1,98,1.1455819606781,bird,bird,7,0098_lp_s02_7_bird_10_n02009912_11907.png
subject-02,1,99,NaN,na,oven,5,0099_lp_s02_5_oven_10_n04111531_585.png
subject-02,1,100,0.898943185806274,keyboard,keyboard,7,0100_lp_s02_7_keyboard_10_n04505470_1120.png
subject-02,1,101,1.1689510345459,boat,clock,15,0101_lp_s02_15_clock_10_n02708093_274.png
subject-02,1,102,0.774729013442993,clock,clock,0,0102_lp_s02_0_clock_10_n04548280_4391.png
subject-02,1,103,0.770925045013428,oven,oven,1,0103_lp_s02_1_oven_10_n04111531_10640.png
subject-02,1,104,1.0964241027832,oven,airplane,40,0104_lp_s02_40_airplane_10_n02690373_4591.png
subject-02,1,105,0.983958005905151,bear,bear,3,0105_lp_s02_3_bear_10_n02132136_6441.png
subject-02,1,106,0.950056076049805,knife,knife,0,0106_lp_s02_0_knife_10_n03041632_22570.png
subject-02,1,107,1.13367295265198,cat,bird,3,0107_lp_s02_3_bird_10_n01616318_6874.png
subject-02,1,108,1.29358291625977,oven,bicycle,15,0108_lp_s02_15_bicycle_10_n03792782_13051.png
subject-02,1,109,0.867329835891724,keyboard,truck,7,0109_lp_s02_7_truck_10_n03796401_7527.png
subject-02,1,110,0.927175045013428,truck,boat,15,0110_lp_s02_15_boat_10_n04273569_103.png
subject-02,1,111,0.741323947906494,bear,bird,1,0111_lp_s02_1_bird_10_n01819313_18188.png
subject-02,1,112,0.96092700958252,dog,dog,1,0112_lp_s02_1_dog_10_n02091635_5740.png
subject-02,1,113,0.68454384803772,cat,cat,0,0113_lp_s02_0_cat_10_n02125311_35785.png
subject-02,1,114,0.704661130905151,oven,oven,15,0114_lp_s02_15_oven_10_n04111531_8793.png
subject-02,1,115,1.00619292259216,chair,clock,5,0115_lp_s02_5_clock_10_n03196217_2530.png
subject-02,1,116,0.970148086547852,dog,dog,7,0116_lp_s02_7_dog_10_n02090721_7040.png
subject-02,1,117,1.09206795692444,car,car,7,0117_lp_s02_7_car_10_n02814533_44503.png
subject-02,1,118,0.947762966156006,boat,truck,7,0118_lp_s02_7_truck_10_n03417042_17545.png
subject-02,1,119,0.91956901550293,bicycle,airplane,10,0119_lp_s02_10_airplane_10_n02690373_8543.png
subject-02,1,120,0.525389194488525,keyboard,keyboard,7,0120_lp_s02_7_keyboard_10_n04505470_578.png
subject-02,1,121,0.711309909820557,cat,cat,3,0121_lp_s02_3_cat_10_n02125311_37322.png
subject-02,1,122,0.691045045852661,airplane,cat,7,0122_lp_s02_7_cat_10_n02123159_587.png
subject-02,1,123,0.786700010299683,bottle,bottle,0,0123_lp_s02_0_bottle_10_n02823428_14536.png
subject-02,1,124,0.940627098083496,oven,cat,40,0124_lp_s02_40_cat_10_n02123045_2029.png
subject-02,1,125,0.718424081802368,chair,chair,7,0125_lp_s02_7_chair_10_n03376595_11572.png
subject-02,1,126,0.808385133743286,bear,clock,15,0126_lp_s02_15_clock_10_n04548280_8892.png
subject-02,1,127,0.664166927337646,bottle,bottle,1,0127_lp_s02_1_bottle_10_n04557648_12301.png
subject-02,1,128,0.948019027709961,dog,dog,1,0128_lp_s02_1_dog_10_n02102480_7293.png
subject-02,1,129,0.811918973922729,oven,boat,15,0129_lp_s02_15_boat_10_n04612504_13309.png
subject-02,1,130,1.04934406280518,clock,dog,15,0130_lp_s02_15_dog_10_n02107312_5733.png
subject-02,1,131,1.50017499923706,bear,bear,5,0131_lp_s02_5_bear_10_n02132136_9815.png
subject-02,1,132,0.853350877761841,chair,chair,0,0132_lp_s02_0_chair_10_n04429376_8237.png
subject-02,1,133,0.871075868606567,bear,bear,0,0133_lp_s02_0_bear_10_n02134084_7790.png
subject-02,1,134,0.874807834625244,chair,chair,1,0134_lp_s02_1_chair_10_n02791124_66.png
subject-02,1,135,1.02645492553711,airplane,airplane,10,0135_lp_s02_10_airplane_10_n02690373_2580.png
subject-02,1,136,0.968270063400269,truck,truck,1,0136_lp_s02_1_truck_10_n03417042_820.png
subject-02,1,137,0.818140983581543,keyboard,keyboard,10,0137_lp_s02_10_keyboard_10_n04505470_3132.png
subject-02,1,138,1.26199984550476,clock,chair,10,0138_lp_s02_10_chair_10_n04429376_10341.png
subject-02,1,139,1.37404012680054,knife,bicycle,40,0139_lp_s02_40_bicycle_10_n03792782_17666.png
subject-02,1,140,0.807633876800537,boat,boat,1,0140_lp_s02_1_boat_10_n02951358_2445.png
subject-02,1,141,0.703801870346069,chair,chair,5,0141_lp_s02_5_chair_10_n02791124_3731.png
subject-02,1,142,0.871389865875244,knife,knife,7,0142_lp_s02_7_knife_10_n03041632_2058.png
subject-02,1,143,0.861235857009888,bicycle,elephant,40,0143_lp_s02_40_elephant_10_n02504458_2419.png
subject-02,1,144,1.17105388641357,bottle,truck,40,0144_lp_s02_40_truck_10_n03417042_10038.png
subject-02,1,145,0.73674488067627,boat,chair,3,0145_lp_s02_3_chair_10_n03376595_5112.png
subject-02,1,146,0.738384008407593,bear,bear,1,0146_lp_s02_1_bear_10_n02134418_2231.png
subject-02,1,147,1.07249402999878,cat,cat,10,0147_lp_s02_10_cat_10_n02123597_19450.png
subject-02,1,148,1.11826395988464,dog,airplane,40,0148_lp_s02_40_airplane_10_n02690373_5961.png
subject-02,1,149,0.905857086181641,chair,chair,3,0149_lp_s02_3_chair_10_n02791124_14040.png
subject-02,1,150,1.07593202590942,elephant,bottle,40,0150_lp_s02_40_bottle_10_n04560804_3392.png
subject-02,1,151,1.39977288246155,chair,bird,15,0151_lp_s02_15_bird_10_n02056570_9572.png
subject-02,1,152,0.74530816078186,cat,cat,5,0152_lp_s02_5_cat_10_n02123394_4164.png
subject-02,1,153,0.861192941665649,bird,bird,7,0153_lp_s02_7_bird_10_n01601694_10927.png
subject-02,1,154,0.894963979721069,boat,car,40,0154_lp_s02_40_car_10_n03100240_5018.png
subject-02,1,155,1.01886391639709,cat,cat,1,0155_lp_s02_1_cat_10_n02124075_8884.png
subject-02,1,156,0.70303201675415,oven,car,40,0156_lp_s02_40_car_10_n04285008_12868.png
subject-02,1,157,1.05038118362427,cat,elephant,15,0157_lp_s02_15_elephant_10_n02504458_6050.png
subject-02,1,158,0.806503057479858,keyboard,keyboard,3,0158_lp_s02_3_keyboard_10_n04505470_3615.png
subject-02,1,159,0.748225927352905,clock,dog,15,0159_lp_s02_15_dog_10_n02108915_1114.png
subject-02,1,160,0.727837800979614,knife,knife,1,0160_lp_s02_1_knife_10_n03041632_45338.png
subject-02,1,161,0.815737962722778,chair,chair,3,0161_lp_s02_3_chair_10_n04429376_16952.png
subject-02,1,162,0.507582902908325,oven,oven,3,0162_lp_s02_3_oven_10_n04111531_1002.png
subject-02,1,163,0.949239015579224,elephant,elephant,1,0163_lp_s02_1_elephant_10_n02504458_900.png
subject-02,1,164,0.719247817993164,keyboard,keyboard,0,0164_lp_s02_0_keyboard_10_n04505470_4599.png
subject-02,1,165,1.2911970615387,dog,dog,1,0165_lp_s02_1_dog_10_n02086646_2810.png
subject-02,1,166,1.38298988342285,elephant,bicycle,7,0166_lp_s02_7_bicycle_10_n02835271_12608.png
subject-02,1,167,0.712624073028564,keyboard,keyboard,1,0167_lp_s02_1_keyboard_10_n03085013_20914.png
subject-02,1,168,0.866492986679077,bear,bird,10,0168_lp_s02_10_bird_10_n01860187_27046.png
subject-02,1,169,1.37824392318726,clock,dog,40,0169_lp_s02_40_dog_10_n02088364_11910.png
subject-02,1,170,0.766140937805176,truck,truck,0,0170_lp_s02_0_truck_10_n03417042_4557.png
subject-02,1,171,0.869947910308838,keyboard,keyboard,5,0171_lp_s02_5_keyboard_10_n03085013_15295.png
subject-02,1,172,1.30562901496887,bird,bird,1,0172_lp_s02_1_bird_10_n02051845_1935.png
subject-02,1,173,0.59765100479126,oven,oven,3,0173_lp_s02_3_oven_10_n04111531_5171.png
subject-02,1,174,0.961429119110107,elephant,elephant,7,0174_lp_s02_7_elephant_10_n02504013_8052.png
subject-02,1,175,0.878955125808716,bicycle,truck,40,0175_lp_s02_40_truck_10_n03417042_21758.png
subject-02,1,176,0.861001968383789,oven,airplane,40,0176_lp_s02_40_airplane_10_n02690373_3561.png
subject-02,1,177,1.08472204208374,chair,chair,3,0177_lp_s02_3_chair_10_n04429376_18863.png
subject-02,1,178,1.23475503921509,airplane,airplane,3,0178_lp_s02_3_airplane_10_n02690373_10462.png
subject-02,1,179,1.08233499526978,bird,bird,1,0179_lp_s02_1_bird_10_n01860187_348.png
subject-02,1,180,1.12006402015686,boat,boat,0,0180_lp_s02_0_boat_10_n03662601_1947.png
subject-02,1,181,1.20984506607056,bicycle,bottle,40,0181_lp_s02_40_bottle_10_n03937543_1391.png
subject-02,1,182,1.09392309188843,oven,knife,15,0182_lp_s02_15_knife_10_n03041632_45264.png
subject-02,1,183,1.05983185768127,bird,bird,1,0183_lp_s02_1_bird_10_n02033041_11415.png
subject-02,1,184,1.12545585632324,car,truck,3,0184_lp_s02_3_truck_10_n03417042_5508.png
subject-02,1,185,1.30116605758667,bird,elephant,7,0185_lp_s02_7_elephant_10_n02504458_716.png
subject-02,1,186,1.10307788848877,keyboard,elephant,40,0186_lp_s02_40_elephant_10_n02504013_7143.png
subject-02,1,187,1.34088802337646,bird,bicycle,3,0187_lp_s02_3_bicycle_10_n03792782_210.png
subject-02,1,188,0.92273998260498,oven,car,15,0188_lp_s02_15_car_10_n02814533_58708.png
subject-02,1,189,1.1363890171051,cat,cat,10,0189_lp_s02_10_cat_10_n02123045_5747.png
subject-02,1,190,0.834711074829102,airplane,airplane,0,0190_lp_s02_0_airplane_10_n02690373_1051.png
subject-02,1,191,0.926392078399658,bird,bird,0,0191_lp_s02_0_bird_10_n01514859_12705.png
subject-02,1,192,1.44597315788269,dog,chair,15,0192_lp_s02_15_chair_10_n04429376_16192.png
subject-02,1,193,1.20170402526855,truck,airplane,7,0193_lp_s02_7_airplane_10_n02690373_2923.png
subject-02,1,194,0.8558189868927,dog,dog,1,0194_lp_s02_1_dog_10_n02097047_2376.png
subject-02,1,195,1.50010418891907,knife,dog,40,0195_lp_s02_40_dog_10_n02100583_14082.png
subject-02,1,196,0.805305957794189,clock,clock,7,0196_lp_s02_7_clock_10_n03196217_1272.png
subject-02,1,197,0.661233186721802,oven,airplane,40,0197_lp_s02_40_airplane_10_n02690373_1279.png
subject-02,1,198,0.727088928222656,chair,dog,15,0198_lp_s02_15_dog_10_n02093859_3707.png
subject-02,1,199,0.660847902297974,clock,clock,0,0199_lp_s02_0_clock_10_n04548280_2169.png
subject-02,1,200,1.03648805618286,keyboard,bird,15,0200_lp_s02_15_bird_10_n01843383_2843.png
subject-02,1,201,0.868301153182983,clock,oven,15,0201_lp_s02_15_oven_10_n04111531_8269.png
subject-02,1,202,1.06794595718384,airplane,bear,10,0202_lp_s02_10_bear_10_n02134084_27899.png
subject-02,1,203,0.815804004669189,clock,clock,0,0203_lp_s02_0_clock_10_n03196217_484.png
subject-02,1,204,0.797751903533936,oven,bottle,40,0204_lp_s02_40_bottle_10_n04591713_2537.png
subject-02,1,205,0.911311149597168,car,car,7,0205_lp_s02_7_car_10_n03100240_1216.png
subject-02,1,206,0.843109846115112,knife,knife,1,0206_lp_s02_1_knife_10_n03041632_33326.png
subject-02,1,207,0.931063890457153,clock,keyboard,10,0207_lp_s02_10_keyboard_10_n03085013_2432.png
subject-02,1,208,0.763203144073486,oven,clock,10,0208_lp_s02_10_clock_10_n03196217_8526.png
subject-02,1,209,0.759171009063721,bottle,bottle,1,0209_lp_s02_1_bottle_10_n04560804_22426.png
subject-02,1,210,0.84288501739502,oven,airplane,10,0210_lp_s02_10_airplane_10_n02690373_5427.png
subject-02,1,211,0.790455102920532,chair,chair,1,0211_lp_s02_1_chair_10_n03376595_6942.png
subject-02,1,212,0.646239995956421,clock,clock,1,0212_lp_s02_1_clock_10_n04548280_9700.png
subject-02,1,213,0.754197120666504,airplane,airplane,7,0213_lp_s02_7_airplane_10_n02690373_2564.png
subject-02,1,214,0.967713117599487,bicycle,bicycle,1,0214_lp_s02_1_bicycle_10_n03792782_22416.png
subject-02,1,215,0.971801042556763,bear,cat,15,0215_lp_s02_15_cat_10_n02123597_11940.png
subject-02,1,216,0.983464002609253,elephant,elephant,10,0216_lp_s02_10_elephant_10_n02504458_5197.png
subject-02,1,217,0.869235992431641,oven,bottle,15,0217_lp_s02_15_bottle_10_n03937543_2333.png
subject-02,1,218,1.02292919158936,elephant,elephant,10,0218_lp_s02_10_elephant_10_n02504458_11265.png
subject-02,1,219,1.05917596817017,clock,bicycle,40,0219_lp_s02_40_bicycle_10_n03792782_1868.png
subject-02,1,220,1.09318590164185,car,car,0,0220_lp_s02_0_car_10_n03100240_1696.png
subject-02,1,221,1.03250002861023,truck,truck,5,0221_lp_s02_5_truck_10_n03417042_12128.png
subject-02,1,222,0.83237099647522,bottle,bottle,5,0222_lp_s02_5_bottle_10_n02823428_4694.png
subject-02,1,223,0.788141012191772,knife,knife,0,0223_lp_s02_0_knife_10_n03041632_32337.png
subject-02,1,224,1.50006008148193,bottle,knife,5,0224_lp_s02_5_knife_10_n03041632_1661.png
subject-02,1,225,0.499758005142212,clock,clock,7,0225_lp_s02_7_clock_10_n03196217_4309.png
subject-02,1,226,0.761650085449219,car,car,1,0226_lp_s02_1_car_10_n02814533_48541.png
subject-02,1,227,1.28130388259888,knife,dog,10,0227_lp_s02_10_dog_10_n02088364_7448.png
subject-02,1,228,0.99725604057312,knife,truck,10,0228_lp_s02_10_truck_10_n03796401_180.png
subject-02,1,229,1.05486011505127,oven,cat,15,0229_lp_s02_15_cat_10_n02123159_737.png
subject-02,1,230,0.916959047317505,bird,cat,3,0230_lp_s02_3_cat_10_n02124075_7692.png
subject-02,1,231,0.984774827957153,car,truck,7,0231_lp_s02_7_truck_10_n04467665_9521.png
subject-02,1,232,0.988388061523438,cat,bicycle,10,0232_lp_s02_10_bicycle_10_n03792782_7108.png
subject-02,1,233,1.10836219787598,chair,cat,15,0233_lp_s02_15_cat_10_n02123159_7629.png
subject-02,1,234,1.14428901672363,dog,knife,15,0234_lp_s02_15_knife_10_n03041632_52848.png
subject-02,1,235,0.905829906463623,boat,oven,40,0235_lp_s02_40_oven_10_n04111531_5727.png
subject-02,1,236,0.667608022689819,boat,boat,3,0236_lp_s02_3_boat_10_n02951358_406.png
subject-02,1,237,1.00165104866028,oven,oven,10,0237_lp_s02_10_oven_10_n04111531_11634.png
subject-02,1,238,0.949292898178101,bear,car,40,0238_lp_s02_40_car_10_n02814533_7984.png
subject-02,1,239,0.850992918014526,bicycle,clock,40,0239_lp_s02_40_clock_10_n02708093_7810.png
subject-02,1,240,0.981275081634521,elephant,elephant,3,0240_lp_s02_3_elephant_10_n02504013_10330.png
subject-02,1,241,0.982163190841675,car,knife,15,0241_lp_s02_15_knife_10_n03041632_40530.png
subject-02,1,242,0.956063032150269,truck,truck,0,0242_lp_s02_0_truck_10_n04467665_71305.png
subject-02,1,243,1.18402504920959,bicycle,bicycle,0,0243_lp_s02_0_bicycle_10_n03792782_6546.png
subject-02,1,244,0.68784499168396,oven,oven,3,0244_lp_s02_3_oven_10_n04111531_4370.png
subject-02,1,245,1.3957040309906,elephant,cat,7,0245_lp_s02_7_cat_10_n02123159_6954.png
subject-02,1,246,0.639378070831299,boat,knife,40,0246_lp_s02_40_knife_10_n03041632_49363.png
subject-02,1,247,0.937129974365234,dog,dog,5,0247_lp_s02_5_dog_10_n02091635_7361.png
subject-02,1,248,0.954884052276611,elephant,elephant,0,0248_lp_s02_0_elephant_10_n02504013_3569.png
subject-02,1,249,0.766906023025513,knife,knife,0,0249_lp_s02_0_knife_10_n03041632_11741.png
subject-02,1,250,1.29054307937622,bear,bear,3,0250_lp_s02_3_bear_10_n02132136_15407.png
subject-02,1,251,0.814456939697266,bicycle,bicycle,3,0251_lp_s02_3_bicycle_10_n02835271_2594.png
subject-02,1,252,0.94406795501709,bird,bird,1,0252_lp_s02_1_bird_10_n01820546_4609.png
subject-02,1,253,0.797914981842041,bear,bear,1,0253_lp_s02_1_bear_10_n02132136_4271.png
subject-02,1,254,0.659921884536743,oven,airplane,15,0254_lp_s02_15_airplane_10_n02690373_9427.png
subject-02,1,255,0.727896928787231,oven,oven,3,0255_lp_s02_3_oven_10_n04111531_857.png
subject-02,1,256,0.791504144668579,chair,bottle,3,0256_lp_s02_3_bottle_10_n02823428_7650.png
subject-02,1,257,1.33317494392395,keyboard,truck,40,0257_lp_s02_40_truck_10_n03417042_17616.png
subject-02,1,258,1.37903499603271,oven,oven,10,0258_lp_s02_10_oven_10_n04111531_4392.png
subject-02,1,259,0.818782091140747,bear,truck,10,0259_lp_s02_10_truck_10_n03796401_16425.png
subject-02,1,260,1.26883792877197,boat,clock,40,0260_lp_s02_40_clock_10_n04548280_4143.png
subject-02,1,261,1.01242995262146,dog,dog,3,0261_lp_s02_3_dog_10_n02104365_3580.png
subject-02,1,262,0.776056051254272,bottle,bottle,1,0262_lp_s02_1_bottle_10_n04591713_4764.png
subject-02,1,263,1.15406799316406,dog,elephant,15,0263_lp_s02_15_elephant_10_n02504458_1000.png
subject-02,1,264,0.749822854995728,car,car,1,0264_lp_s02_1_car_10_n02814533_43868.png
subject-02,1,265,0.693594932556152,airplane,airplane,3,0265_lp_s02_3_airplane_10_n02690373_3993.png
subject-02,1,266,1.44957518577576,bottle,bottle,1,0266_lp_s02_1_bottle_10_n02823428_8280.png
subject-02,1,267,0.723404169082642,oven,oven,40,0267_lp_s02_40_oven_10_n04111531_4988.png
subject-02,1,268,0.751168012619019,cat,cat,7,0268_lp_s02_7_cat_10_n02123394_4232.png
subject-02,1,269,0.684828042984009,elephant,elephant,0,0269_lp_s02_0_elephant_10_n02504458_5482.png
subject-02,1,270,1.50006580352783,clock,knife,3,0270_lp_s02_3_knife_10_n03041632_9256.png
subject-02,1,271,0.802411079406738,cat,cat,5,0271_lp_s02_5_cat_10_n02125311_39208.png
subject-02,1,272,0.532625913619995,oven,truck,40,0272_lp_s02_40_truck_10_n03796401_10234.png
subject-02,1,273,0.912156105041504,boat,boat,0,0273_lp_s02_0_boat_10_n03344393_3452.png
subject-02,1,274,0.711946964263916,clock,bird,40,0274_lp_s02_40_bird_10_n01614925_13283.png
subject-02,1,275,0.826292037963867,boat,boat,1,0275_lp_s02_1_boat_10_n03344393_4001.png
subject-02,1,276,1.22798180580139,bear,elephant,15,0276_lp_s02_15_elephant_10_n02504013_5887.png
subject-02,1,277,0.715329885482788,bear,elephant,7,0277_lp_s02_7_elephant_10_n02504013_7674.png
subject-02,1,278,1.46715998649597,keyboard,keyboard,0,0278_lp_s02_0_keyboard_10_n03085013_26656.png
subject-02,1,279,0.84527587890625,knife,knife,15,0279_lp_s02_15_knife_10_n03041632_1964.png
subject-02,1,280,0.464666843414307,clock,clock,3,0280_lp_s02_3_clock_10_n02708093_4912.png
subject-02,1,281,1.22070097923279,chair,oven,0,0281_lp_s02_0_oven_10_n04111531_10420.png
subject-02,1,282,0.79041600227356,oven,oven,1,0282_lp_s02_1_oven_10_n04111531_22445.png
subject-02,1,283,0.694201946258545,clock,clock,5,0283_lp_s02_5_clock_10_n04548280_3563.png
subject-02,1,284,0.620457887649536,cat,cat,10,0284_lp_s02_10_cat_10_n02123394_1957.png
subject-02,1,285,0.742058038711548,car,chair,40,0285_lp_s02_40_chair_10_n04099969_20684.png
subject-02,1,286,NaN,na,knife,5,0286_lp_s02_5_knife_10_n03041632_20433.png
subject-02,1,287,0.991446018218994,clock,keyboard,5,0287_lp_s02_5_keyboard_10_n04505470_4878.png
subject-02,1,288,0.697546005249023,airplane,airplane,1,0288_lp_s02_1_airplane_10_n02690373_5773.png
subject-02,1,289,1.02920198440552,dog,dog,1,0289_lp_s02_1_dog_10_n02113624_8023.png
subject-02,1,290,0.659090995788574,cat,bird,40,0290_lp_s02_40_bird_10_n02006656_10568.png
subject-02,1,291,0.606873035430908,bicycle,bicycle,1,0291_lp_s02_1_bicycle_10_n02835271_17184.png
subject-02,1,292,0.972733974456787,car,car,1,0292_lp_s02_1_car_10_n02814533_83577.png
subject-02,1,293,0.784296035766602,bird,bird,0,0293_lp_s02_0_bird_10_n02011460_3892.png
subject-02,1,294,0.77435302734375,bicycle,bicycle,7,0294_lp_s02_7_bicycle_10_n03792782_6149.png
subject-02,1,295,0.826194047927856,airplane,airplane,5,0295_lp_s02_5_airplane_10_n02690373_7489.png
subject-02,1,296,0.977927207946777,clock,cat,40,0296_lp_s02_40_cat_10_n02123597_6542.png
subject-02,1,297,0.715500116348267,oven,bottle,15,0297_lp_s02_15_bottle_10_n02823428_8114.png
subject-02,1,298,0.701888084411621,elephant,elephant,1,0298_lp_s02_1_elephant_10_n02504458_11345.png
subject-02,1,299,0.775187015533447,knife,knife,1,0299_lp_s02_1_knife_10_n03041632_40887.png
subject-02,1,300,0.855202913284302,truck,truck,5,0300_lp_s02_5_truck_10_n03796401_4878.png
subject-02,1,301,0.6249680519104,keyboard,keyboard,7,0301_lp_s02_7_keyboard_10_n03085013_6828.png
subject-02,1,302,1.0267870426178,truck,truck,3,0302_lp_s02_3_truck_10_n04467665_19645.png
subject-02,1,303,0.740557909011841,boat,car,40,0303_lp_s02_40_car_10_n04285008_11748.png
subject-02,1,304,0.650490045547485,keyboard,keyboard,10,0304_lp_s02_10_keyboard_10_n04505470_9570.png
subject-02,1,305,0.804080963134766,elephant,elephant,0,0305_lp_s02_0_elephant_10_n02504458_10428.png
subject-02,1,306,0.681958913803101,car,car,10,0306_lp_s02_10_car_10_n02814533_32924.png
subject-02,1,307,0.763949871063232,dog,dog,7,0307_lp_s02_7_dog_10_n02097047_911.png
subject-02,1,308,0.835819005966187,oven,oven,0,0308_lp_s02_0_oven_10_n04111531_136.png
subject-02,1,309,0.847746849060059,dog,dog,0,0309_lp_s02_0_dog_10_n02094258_4979.png
subject-02,1,310,0.653128862380981,cat,cat,3,0310_lp_s02_3_cat_10_n02123045_20366.png
subject-02,1,311,1.50011205673218,cat,oven,7,0311_lp_s02_7_oven_10_n04111531_13862.png
subject-02,1,312,0.564821004867554,clock,clock,1,0312_lp_s02_1_clock_10_n04548280_5525.png
subject-02,1,313,1.2167181968689,bear,bear,7,0313_lp_s02_7_bear_10_n02133161_2281.png
subject-02,1,314,1.10256814956665,cat,bird,15,0314_lp_s02_15_bird_10_n02002724_383.png
subject-02,1,315,0.870224952697754,truck,truck,5,0315_lp_s02_5_truck_10_n04467665_34253.png
subject-02,1,316,0.640246152877808,clock,clock,10,0316_lp_s02_10_clock_10_n02708093_135.png
subject-02,1,317,0.885778188705444,knife,knife,3,0317_lp_s02_3_knife_10_n03041632_12949.png
subject-02,1,318,0.615751981735229,cat,cat,7,0318_lp_s02_7_cat_10_n02123597_14267.png
subject-02,1,319,0.783613920211792,keyboard,keyboard,7,0319_lp_s02_7_keyboard_10_n04505470_4458.png
subject-02,1,320,0.723250150680542,oven,keyboard,15,0320_lp_s02_15_keyboard_10_n03085013_21397.png
subject-02,1,321,1.04640698432922,bear,elephant,1,0321_lp_s02_1_elephant_10_n02504458_5671.png
subject-02,1,322,0.522511959075928,cat,cat,0,0322_lp_s02_0_cat_10_n02124075_17347.png
subject-02,1,323,1.26818513870239,dog,bottle,10,0323_lp_s02_10_bottle_10_n02823428_5135.png
subject-02,1,324,0.655768156051636,oven,clock,15,0324_lp_s02_15_clock_10_n03196217_2488.png
subject-02,1,325,1.04148316383362,knife,oven,0,0325_lp_s02_0_oven_10_n04111531_6313.png
subject-02,1,326,0.801464080810547,knife,knife,10,0326_lp_s02_10_knife_10_n03041632_6309.png
subject-02,1,327,0.8214111328125,car,car,7,0327_lp_s02_7_car_10_n02814533_3594.png
subject-02,1,328,0.895098924636841,clock,keyboard,5,0328_lp_s02_5_keyboard_10_n04505470_4371.png
subject-02,1,329,0.76521897315979,knife,knife,1,0329_lp_s02_1_knife_10_n03041632_24798.png
subject-02,1,330,0.634711980819702,cat,dog,7,0330_lp_s02_7_dog_10_n02111277_50807.png
subject-02,1,331,0.544534921646118,cat,cat,1,0331_lp_s02_1_cat_10_n02124075_7663.png
subject-02,1,332,0.734463930130005,cat,chair,10,0332_lp_s02_10_chair_10_n02791124_6865.png
subject-02,1,333,0.902112007141113,keyboard,keyboard,3,0333_lp_s02_3_keyboard_10_n04505470_5091.png
subject-02,1,334,1.13190603256226,knife,keyboard,10,0334_lp_s02_10_keyboard_10_n03085013_4374.png
subject-02,1,335,1.18390202522278,clock,chair,5,0335_lp_s02_5_chair_10_n04429376_1935.png
subject-02,1,336,0.825712919235229,oven,bottle,5,0336_lp_s02_5_bottle_10_n04560804_2176.png
subject-02,1,337,0.475457906723022,cat,cat,0,0337_lp_s02_0_cat_10_n02123045_8215.png
subject-02,1,338,0.549360990524292,cat,cat,10,0338_lp_s02_10_cat_10_n02123394_3144.png
subject-02,1,339,1.27302885055542,bicycle,keyboard,5,0339_lp_s02_5_keyboard_10_n03085013_26573.png
subject-02,1,340,0.657013893127441,bear,bear,10,0340_lp_s02_10_bear_10_n02132136_10468.png
subject-02,1,341,0.878705024719238,elephant,elephant,1,0341_lp_s02_1_elephant_10_n02504013_3739.png
subject-02,1,342,0.742522954940796,bear,bear,3,0342_lp_s02_3_bear_10_n02133161_1480.png
subject-02,1,343,0.786137819290161,chair,chair,7,0343_lp_s02_7_chair_10_n04099969_34325.png
subject-02,1,344,0.670197010040283,airplane,airplane,1,0344_lp_s02_1_airplane_10_n02690373_5010.png
subject-02,1,345,0.601999044418335,clock,clock,3,0345_lp_s02_3_clock_10_n04548280_5765.png
subject-02,1,346,0.677775144577026,chair,chair,0,0346_lp_s02_0_chair_10_n04099969_2038.png
subject-02,1,347,0.923707008361816,knife,knife,7,0347_lp_s02_7_knife_10_n03041632_2153.png
subject-02,1,348,0.771497964859009,elephant,elephant,3,0348_lp_s02_3_elephant_10_n02504013_9021.png
subject-02,1,349,1.31317710876465,bottle,bottle,3,0349_lp_s02_3_bottle_10_n03983396_12728.png
subject-02,1,350,0.806934118270874,car,elephant,15,0350_lp_s02_15_elephant_10_n02504013_5463.png
subject-02,1,351,1.0929229259491,cat,oven,1,0351_lp_s02_1_oven_10_n04111531_10313.png
subject-02,1,352,1.26882576942444,elephant,bird,10,0352_lp_s02_10_bird_10_n01616318_2290.png
subject-02,1,353,1.05041718482971,cat,dog,7,0353_lp_s02_7_dog_10_n02106662_2384.png
subject-02,1,354,0.850078105926514,chair,keyboard,7,0354_lp_s02_7_keyboard_10_n03085013_22942.png
subject-02,1,355,0.806219100952148,clock,clock,0,0355_lp_s02_0_clock_10_n03196217_2414.png
subject-02,1,356,0.810144901275635,boat,boat,3,0356_lp_s02_3_boat_10_n03344393_5091.png
subject-02,1,357,1.15779113769531,chair,oven,0,0357_lp_s02_0_oven_10_n04111531_7189.png
subject-02,1,358,0.997370004653931,chair,elephant,15,0358_lp_s02_15_elephant_10_n02504013_9393.png
subject-02,1,359,1.05535006523132,car,oven,40,0359_lp_s02_40_oven_10_n04111531_13625.png
subject-02,1,360,0.64519214630127,chair,chair,10,0360_lp_s02_10_chair_10_n04429376_16459.png
subject-02,1,361,0.859076976776123,bird,bicycle,7,0361_lp_s02_7_bicycle_10_n03792782_11950.png
subject-02,1,362,0.554777860641479,clock,clock,0,0362_lp_s02_0_clock_10_n04548280_9294.png
subject-02,1,363,0.768661975860596,bird,bird,0,0363_lp_s02_0_bird_10_n02017213_1163.png
subject-02,1,364,0.904723882675171,bear,elephant,10,0364_lp_s02_10_elephant_10_n02504013_3425.png
subject-02,1,365,0.994302034378052,knife,car,5,0365_lp_s02_5_car_10_n04285008_7428.png
subject-02,1,366,0.57195520401001,boat,boat,1,0366_lp_s02_1_boat_10_n03662601_1319.png
subject-02,1,367,1.06818819046021,truck,dog,7,0367_lp_s02_7_dog_10_n02099849_3128.png
subject-02,1,368,0.625684976577759,clock,bicycle,40,0368_lp_s02_40_bicycle_10_n03792782_43328.png
subject-02,1,369,0.777570962905884,bear,bicycle,10,0369_lp_s02_10_bicycle_10_n03792782_16290.png
subject-02,1,370,0.837152004241943,keyboard,keyboard,0,0370_lp_s02_0_keyboard_10_n03085013_8865.png
subject-02,1,371,0.745322942733765,oven,truck,10,0371_lp_s02_10_truck_10_n03796401_22618.png
subject-02,1,372,0.864814043045044,knife,knife,7,0372_lp_s02_7_knife_10_n03041632_49513.png
subject-02,1,373,0.626607179641724,bottle,bottle,0,0373_lp_s02_0_bottle_10_n03983396_16224.png
subject-02,1,374,0.624864101409912,boat,airplane,15,0374_lp_s02_15_airplane_10_n02690373_6336.png
subject-02,1,375,0.714349031448364,knife,car,15,0375_lp_s02_15_car_10_n03100240_5383.png
subject-02,1,376,0.630162954330444,boat,bear,15,0376_lp_s02_15_bear_10_n02133161_156.png
subject-02,1,377,0.936047077178955,boat,boat,0,0377_lp_s02_0_boat_10_n02951358_29756.png
subject-02,1,378,0.789777994155884,oven,oven,0,0378_lp_s02_0_oven_10_n04111531_15052.png
subject-02,1,379,1.16771411895752,dog,dog,0,0379_lp_s02_0_dog_10_n02100583_10960.png
subject-02,1,380,0.86586594581604,truck,truck,5,0380_lp_s02_5_truck_10_n04467665_44714.png
subject-02,1,381,0.829154014587402,knife,knife,15,0381_lp_s02_15_knife_10_n03041632_28443.png
subject-02,1,382,0.66107702255249,bear,bicycle,15,0382_lp_s02_15_bicycle_10_n02835271_3535.png
subject-02,1,383,0.764902114868164,airplane,airplane,1,0383_lp_s02_1_airplane_10_n02690373_11908.png
subject-02,1,384,0.526524066925049,boat,boat,10,0384_lp_s02_10_boat_10_n03662601_8067.png
subject-02,1,385,1.03853702545166,bottle,chair,1,0385_lp_s02_1_chair_10_n03376595_9054.png
subject-02,1,386,0.524180889129639,bear,bear,5,0386_lp_s02_5_bear_10_n02134084_20723.png
subject-02,1,387,0.598097085952759,bicycle,bicycle,3,0387_lp_s02_3_bicycle_10_n02835271_22355.png
subject-02,1,388,0.765950918197632,oven,bear,40,0388_lp_s02_40_bear_10_n02133161_444.png
subject-02,1,389,0.667760848999023,bear,bear,7,0389_lp_s02_7_bear_10_n02133161_14810.png
subject-02,1,390,0.821498870849609,cat,cat,0,0390_lp_s02_0_cat_10_n02123045_4237.png
subject-02,1,391,0.613313913345337,bicycle,bicycle,0,0391_lp_s02_0_bicycle_10_n02835271_14966.png
subject-02,1,392,0.585259914398193,airplane,boat,5,0392_lp_s02_5_boat_10_n02951358_12432.png
subject-02,1,393,0.68886399269104,bear,bear,7,0393_lp_s02_7_bear_10_n02132136_4888.png
subject-02,1,394,0.925042152404785,bottle,chair,0,0394_lp_s02_0_chair_10_n02791124_13033.png
subject-02,1,395,1.05059194564819,chair,keyboard,15,0395_lp_s02_15_keyboard_10_n03085013_12079.png
subject-02,1,396,1.09284210205078,cat,cat,7,0396_lp_s02_7_cat_10_n02123597_14094.png
subject-02,1,397,0.634194135665894,airplane,airplane,10,0397_lp_s02_10_airplane_10_n02690373_18468.png
subject-02,1,398,1.37806606292725,car,car,0,0398_lp_s02_0_car_10_n04285008_11931.png
subject-02,1,399,1.50016307830811,clock,bicycle,5,0399_lp_s02_5_bicycle_10_n02835271_7450.png
subject-02,1,400,0.837565898895264,bird,cat,15,0400_lp_s02_15_cat_10_n02125311_44920.png
subject-02,1,401,0.68132495880127,boat,boat,5,0401_lp_s02_5_boat_10_n03344393_5916.png
subject-02,1,402,0.607309103012085,airplane,airplane,5,0402_lp_s02_5_airplane_10_n02690373_6992.png
subject-02,1,403,0.584941148757935,clock,dog,40,0403_lp_s02_40_dog_10_n02097047_2426.png
subject-02,1,404,0.714603900909424,oven,truck,5,0404_lp_s02_5_truck_10_n04467665_30023.png
subject-02,1,405,0.680905103683472,keyboard,oven,7,0405_lp_s02_7_oven_10_n04111531_2086.png
subject-02,1,406,0.590449094772339,boat,elephant,15,0406_lp_s02_15_elephant_10_n02504458_7835.png
subject-02,1,407,0.696190118789673,oven,oven,1,0407_lp_s02_1_oven_10_n04111531_14383.png
subject-02,1,408,0.777884006500244,cat,boat,10,0408_lp_s02_10_boat_10_n03344393_7826.png
subject-02,1,409,0.795777082443237,cat,cat,0,0409_lp_s02_0_cat_10_n02123597_2370.png
subject-02,1,410,1.07184791564941,car,car,3,0410_lp_s02_3_car_10_n03100240_8987.png
subject-02,1,411,0.803620100021362,airplane,airplane,10,0411_lp_s02_10_airplane_10_n02690373_1862.png
subject-02,1,412,1.0391161441803,bird,bear,7,0412_lp_s02_7_bear_10_n02134418_258.png
subject-02,1,413,0.862875938415527,truck,truck,1,0413_lp_s02_1_truck_10_n04467665_50932.png
subject-02,1,414,0.702674150466919,oven,oven,0,0414_lp_s02_0_oven_10_n04111531_21173.png
subject-02,1,415,0.768764972686768,car,car,5,0415_lp_s02_5_car_10_n04285008_2880.png
subject-02,1,416,0.670504093170166,cat,bear,10,0416_lp_s02_10_bear_10_n02134418_745.png
subject-02,1,417,0.908151865005493,elephant,elephant,3,0417_lp_s02_3_elephant_10_n02504013_1777.png
subject-02,1,418,0.942126989364624,bird,bird,3,0418_lp_s02_3_bird_10_n01601694_20287.png
subject-02,1,419,0.905797958374023,car,car,7,0419_lp_s02_7_car_10_n02814533_6593.png
subject-02,1,420,0.751743078231812,car,cat,10,0420_lp_s02_10_cat_10_n02123394_1690.png
subject-02,1,421,0.56746506690979,car,car,1,0421_lp_s02_1_car_10_n04285008_10893.png
subject-02,1,422,0.863326072692871,bird,keyboard,40,0422_lp_s02_40_keyboard_10_n03085013_25809.png
subject-02,1,423,0.443176031112671,clock,clock,1,0423_lp_s02_1_clock_10_n03196217_8282.png
subject-02,1,424,0.806715965270996,truck,truck,3,0424_lp_s02_3_truck_10_n03796401_23774.png
subject-02,1,425,0.62870717048645,bottle,bottle,5,0425_lp_s02_5_bottle_10_n03983396_8164.png
subject-02,1,426,0.694422960281372,chair,chair,1,0426_lp_s02_1_chair_10_n02791124_15383.png
subject-02,1,427,0.602660894393921,cat,bottle,40,0427_lp_s02_40_bottle_10_n02823428_79.png
subject-02,1,428,0.980257987976074,chair,chair,5,0428_lp_s02_5_chair_10_n03376595_899.png
subject-02,1,429,0.890362024307251,bear,bottle,5,0429_lp_s02_5_bottle_10_n04557648_9493.png
subject-02,1,430,1.10375809669495,cat,bicycle,5,0430_lp_s02_5_bicycle_10_n02835271_24207.png
subject-02,1,431,0.613892078399658,oven,car,40,0431_lp_s02_40_car_10_n02814533_51701.png
subject-02,1,432,0.813477039337158,dog,dog,15,0432_lp_s02_15_dog_10_n02090721_583.png
subject-02,1,433,0.589675903320312,clock,airplane,40,0433_lp_s02_40_airplane_10_n02690373_9687.png
subject-02,1,434,0.545163154602051,cat,keyboard,40,0434_lp_s02_40_keyboard_10_n04505470_4492.png
subject-02,1,435,0.807251930236816,boat,boat,1,0435_lp_s02_1_boat_10_n02951358_34917.png
subject-02,1,436,0.576597929000854,bicycle,bear,40,0436_lp_s02_40_bear_10_n02133161_20090.png
subject-02,1,437,0.792318105697632,boat,car,3,0437_lp_s02_3_car_10_n04285008_3410.png
subject-02,1,438,0.792269945144653,bear,bird,7,0438_lp_s02_7_bird_10_n01820546_1222.png
subject-02,1,439,0.754114866256714,oven,bottle,10,0439_lp_s02_10_bottle_10_n02823428_4983.png
subject-02,1,440,0.634086847305298,boat,boat,15,0440_lp_s02_15_boat_10_n02951358_13352.png
subject-02,1,441,0.659780979156494,elephant,elephant,0,0441_lp_s02_0_elephant_10_n02504013_10990.png
subject-02,1,442,0.655581951141357,truck,truck,0,0442_lp_s02_0_truck_10_n03417042_24100.png
subject-02,1,443,0.665302038192749,bottle,bottle,7,0443_lp_s02_7_bottle_10_n04591713_6971.png
subject-02,1,444,0.755527019500732,oven,oven,5,0444_lp_s02_5_oven_10_n04111531_4155.png
subject-02,1,445,0.547053813934326,boat,boat,7,0445_lp_s02_7_boat_10_n03662601_16925.png
subject-02,1,446,0.532850027084351,bear,bear,1,0446_lp_s02_1_bear_10_n02132136_22604.png
subject-02,1,447,0.544494152069092,clock,boat,40,0447_lp_s02_40_boat_10_n03662601_33625.png
subject-02,1,448,0.852566003799438,oven,oven,1,0448_lp_s02_1_oven_10_n04111531_9427.png
subject-02,1,449,1.18406987190247,elephant,elephant,1,0449_lp_s02_1_elephant_10_n02504458_1626.png
subject-02,1,450,0.876100063323975,airplane,bicycle,40,0450_lp_s02_40_bicycle_10_n03792782_11851.png
subject-02,1,451,0.645893096923828,bicycle,bicycle,0,0451_lp_s02_0_bicycle_10_n03792782_9512.png
subject-02,1,452,0.875517129898071,oven,chair,10,0452_lp_s02_10_chair_10_n04099969_3623.png
subject-02,1,453,1.21371603012085,car,car,3,0453_lp_s02_3_car_10_n02814533_3202.png
subject-02,1,454,0.879539966583252,boat,chair,15,0454_lp_s02_15_chair_10_n02791124_3857.png
subject-02,1,455,0.617372035980225,clock,airplane,40,0455_lp_s02_40_airplane_10_n02690373_2656.png
subject-02,1,456,0.629181861877441,boat,boat,5,0456_lp_s02_5_boat_10_n04273569_22274.png
subject-02,1,457,0.873119831085205,bicycle,bicycle,3,0457_lp_s02_3_bicycle_10_n03792782_9280.png
subject-02,1,458,0.868582010269165,bear,truck,15,0458_lp_s02_15_truck_10_n03417042_10229.png
subject-02,1,459,0.90241813659668,oven,clock,5,0459_lp_s02_5_clock_10_n02708093_8051.png
subject-02,1,460,0.960129976272583,chair,keyboard,15,0460_lp_s02_15_keyboard_10_n03085013_18797.png
subject-02,1,461,1.29218292236328,clock,clock,10,0461_lp_s02_10_clock_10_n02708093_6730.png
subject-02,1,462,1.20595502853394,knife,clock,5,0462_lp_s02_5_clock_10_n03196217_743.png
subject-02,1,463,0.669749021530151,clock,clock,3,0463_lp_s02_3_clock_10_n04548280_4225.png
subject-02,1,464,0.593419075012207,clock,chair,40,0464_lp_s02_40_chair_10_n02791124_1935.png
subject-02,1,465,0.65320086479187,clock,clock,5,0465_lp_s02_5_clock_10_n04548280_1097.png
subject-02,1,466,0.655055999755859,oven,elephant,40,0466_lp_s02_40_elephant_10_n02504013_7635.png
subject-02,1,467,1.04874515533447,dog,dog,0,0467_lp_s02_0_dog_10_n02108422_1164.png
subject-02,1,468,1.16266012191772,cat,dog,40,0468_lp_s02_40_dog_10_n02088364_3791.png
subject-02,1,469,0.994391918182373,bird,car,10,0469_lp_s02_10_car_10_n03100240_1605.png
subject-02,1,470,0.800218105316162,bear,bear,7,0470_lp_s02_7_bear_10_n02134418_826.png
subject-02,1,471,1.05396795272827,knife,oven,1,0471_lp_s02_1_oven_10_n04111531_3072.png
subject-02,1,472,0.664029121398926,bear,bear,1,0472_lp_s02_1_bear_10_n02134418_14.png
subject-02,1,473,0.821864128112793,cat,knife,10,0473_lp_s02_10_knife_10_n03041632_3079.png
subject-02,1,474,0.927978992462158,airplane,airplane,7,0474_lp_s02_7_airplane_10_n02690373_5146.png
subject-02,1,475,0.719502925872803,elephant,elephant,0,0475_lp_s02_0_elephant_10_n02504013_1187.png
subject-02,1,476,0.957212924957275,knife,keyboard,7,0476_lp_s02_7_keyboard_10_n03085013_1188.png
subject-02,1,477,0.685064077377319,chair,elephant,40,0477_lp_s02_40_elephant_10_n02504013_3634.png
subject-02,1,478,0.640683174133301,bear,bear,1,0478_lp_s02_1_bear_10_n02133161_195.png
subject-02,1,479,1.33255290985107,clock,oven,7,0479_lp_s02_7_oven_10_n04111531_9702.png
subject-02,1,480,0.828278064727783,chair,chair,3,0480_lp_s02_3_chair_10_n04099969_18463.png
subject-02,1,481,0.516284942626953,bear,bear,1,0481_lp_s02_1_bear_10_n02133161_2100.png
subject-02,1,482,1.20644116401672,elephant,elephant,5,0482_lp_s02_5_elephant_10_n02504458_10013.png
subject-02,1,483,0.65382981300354,elephant,elephant,7,0483_lp_s02_7_elephant_10_n02504013_7001.png
subject-02,1,484,0.655651092529297,bear,bird,10,0484_lp_s02_10_bird_10_n01532829_14545.png
subject-02,1,485,0.917402982711792,truck,truck,1,0485_lp_s02_1_truck_10_n03417042_12235.png
subject-02,1,486,0.599311113357544,cat,cat,1,0486_lp_s02_1_cat_10_n02125311_3174.png
subject-02,1,487,0.603090047836304,knife,knife,5,0487_lp_s02_5_knife_10_n03041632_4879.png
subject-02,1,488,0.938735008239746,bear,dog,3,0488_lp_s02_3_dog_10_n02088364_4980.png
subject-02,1,489,0.628684043884277,chair,bottle,7,0489_lp_s02_7_bottle_10_n03937543_3358.png
subject-02,1,490,0.896403074264526,bear,chair,15,0490_lp_s02_15_chair_10_n04099969_3312.png
subject-02,1,491,0.870313167572021,oven,truck,7,0491_lp_s02_7_truck_10_n03417042_2633.png
subject-02,1,492,0.849883079528809,cat,bird,3,0492_lp_s02_3_bird_10_n01797886_2711.png
subject-02,1,493,0.710144996643066,clock,clock,40,0493_lp_s02_40_clock_10_n02708093_32.png
subject-02,1,494,1.02582383155823,boat,airplane,15,0494_lp_s02_15_airplane_10_n02690373_5845.png
subject-02,1,495,0.707599878311157,bird,bird,7,0495_lp_s02_7_bird_10_n02018795_500.png
subject-02,1,496,0.727205038070679,keyboard,keyboard,1,0496_lp_s02_1_keyboard_10_n03085013_23619.png
subject-02,1,497,0.575558185577393,dog,truck,15,0497_lp_s02_15_truck_10_n03796401_3495.png
subject-02,1,498,0.558872938156128,airplane,truck,40,0498_lp_s02_40_truck_10_n03417042_20650.png
subject-02,1,499,0.642640829086304,chair,chair,0,0499_lp_s02_0_chair_10_n03376595_1981.png
subject-02,1,500,1.4025719165802,bear,bear,15,0500_lp_s02_15_bear_10_n02134418_1978.png
subject-02,1,501,0.708517789840698,boat,bear,15,0501_lp_s02_15_bear_10_n02134084_8601.png
subject-02,1,502,0.508092164993286,clock,bicycle,40,0502_lp_s02_40_bicycle_10_n03792782_3410.png
subject-02,1,503,0.830090999603271,airplane,airplane,1,0503_lp_s02_1_airplane_10_n02690373_4079.png
subject-02,1,504,0.833648920059204,bear,dog,10,0504_lp_s02_10_dog_10_n02100735_1764.png
subject-02,1,505,0.907621145248413,bird,bird,7,0505_lp_s02_7_bird_10_n02018795_5770.png
subject-02,1,506,0.83365797996521,keyboard,clock,10,0506_lp_s02_10_clock_10_n03196217_9160.png
subject-02,1,507,1.20753312110901,bottle,knife,0,0507_lp_s02_0_knife_10_n03041632_52702.png
subject-02,1,508,0.943104982376099,boat,knife,15,0508_lp_s02_15_knife_10_n03041632_1884.png
subject-02,1,509,1.11108994483948,bear,dog,3,0509_lp_s02_3_dog_10_n02092002_12007.png
subject-02,1,510,0.808676958084106,bird,bird,15,0510_lp_s02_15_bird_10_n01582220_17430.png
subject-02,1,511,0.874475955963135,bear,bear,5,0511_lp_s02_5_bear_10_n02134084_6606.png
subject-02,1,512,0.814144849777222,boat,boat,3,0512_lp_s02_3_boat_10_n04273569_1137.png
subject-02,1,513,0.8161940574646,car,keyboard,10,0513_lp_s02_10_keyboard_10_n03085013_7285.png
subject-02,1,514,0.602063894271851,cat,bird,7,0514_lp_s02_7_bird_10_n02009229_11916.png
subject-02,1,515,1.22373008728027,oven,knife,40,0515_lp_s02_40_knife_10_n03041632_29827.png
subject-02,1,516,0.779678106307983,boat,oven,7,0516_lp_s02_7_oven_10_n04111531_8603.png
subject-02,1,517,0.77365517616272,airplane,airplane,10,0517_lp_s02_10_airplane_10_n02690373_10657.png
subject-02,1,518,0.799240827560425,keyboard,keyboard,5,0518_lp_s02_5_keyboard_10_n03085013_18785.png
subject-02,1,519,0.833247900009155,bottle,bottle,5,0519_lp_s02_5_bottle_10_n02823428_5451.png
subject-02,1,520,1.19677901268005,car,bicycle,15,0520_lp_s02_15_bicycle_10_n03792782_24734.png
subject-02,1,521,0.854655981063843,bottle,cat,3,0521_lp_s02_3_cat_10_n02123045_1596.png
subject-02,1,522,0.82644510269165,bird,bird,1,0522_lp_s02_1_bird_10_n01530575_10332.png
subject-02,1,523,0.800179004669189,bear,dog,5,0523_lp_s02_5_dog_10_n02106382_1806.png
subject-02,1,524,0.702045917510986,oven,truck,7,0524_lp_s02_7_truck_10_n03796401_7928.png
subject-02,1,525,1.07031607627869,keyboard,bird,40,0525_lp_s02_40_bird_10_n02028035_1677.png
subject-02,1,526,1.03358817100525,chair,bottle,7,0526_lp_s02_7_bottle_10_n04560804_15577.png
subject-02,1,527,0.693328142166138,boat,boat,1,0527_lp_s02_1_boat_10_n03344393_5417.png
subject-02,1,528,0.829118013381958,bird,bird,0,0528_lp_s02_0_bird_10_n01855672_15005.png
subject-02,1,529,0.650907039642334,bear,bear,1,0529_lp_s02_1_bear_10_n02133161_1356.png
subject-02,1,530,0.958935976028442,oven,dog,15,0530_lp_s02_15_dog_10_n02107312_1538.png
subject-02,1,531,0.850778818130493,elephant,keyboard,15,0531_lp_s02_15_keyboard_10_n03085013_22496.png
subject-02,1,532,0.742608070373535,bear,bear,0,0532_lp_s02_0_bear_10_n02134418_2719.png
subject-02,1,533,0.93821907043457,elephant,keyboard,15,0533_lp_s02_15_keyboard_10_n04505470_4732.png
subject-02,1,534,0.7221360206604,clock,clock,10,0534_lp_s02_10_clock_10_n02708093_6572.png
subject-02,1,535,0.864143848419189,car,oven,7,0535_lp_s02_7_oven_10_n04111531_21068.png
subject-02,1,536,1.50000596046448,knife,knife,5,0536_lp_s02_5_knife_10_n03041632_21723.png
subject-02,1,537,0.815585851669312,clock,clock,5,0537_lp_s02_5_clock_10_n02708093_2307.png
subject-02,1,538,0.567155122756958,oven,chair,40,0538_lp_s02_40_chair_10_n04099969_20107.png
subject-02,1,539,0.781136989593506,cat,bicycle,15,0539_lp_s02_15_bicycle_10_n02835271_21707.png
subject-02,1,540,0.588975191116333,keyboard,keyboard,1,0540_lp_s02_1_keyboard_10_n03085013_23697.png
subject-02,1,541,1.34275603294373,oven,oven,10,0541_lp_s02_10_oven_10_n04111531_538.png
subject-02,1,542,0.860558032989502,boat,boat,3,0542_lp_s02_3_boat_10_n03662601_1427.png
subject-02,1,543,0.582545042037964,oven,oven,15,0543_lp_s02_15_oven_10_n04111531_21963.png
subject-02,1,544,1.19234895706177,cat,cat,0,0544_lp_s02_0_cat_10_n02123045_7482.png
subject-02,1,545,1.24198007583618,knife,bicycle,3,0545_lp_s02_3_bicycle_10_n03792782_72443.png
subject-02,1,546,0.572000026702881,oven,bottle,40,0546_lp_s02_40_bottle_10_n04591713_5204.png
subject-02,1,547,0.637988090515137,oven,oven,7,0547_lp_s02_7_oven_10_n04111531_2987.png
subject-02,1,548,0.555538892745972,car,boat,40,0548_lp_s02_40_boat_10_n03662601_8947.png
subject-02,1,549,1.00330591201782,keyboard,airplane,40,0549_lp_s02_40_airplane_10_n02690373_6002.png
subject-02,1,550,0.723113059997559,airplane,airplane,5,0550_lp_s02_5_airplane_10_n02690373_2579.png
subject-02,1,551,0.718981027603149,keyboard,keyboard,10,0551_lp_s02_10_keyboard_10_n03085013_7573.png
subject-02,1,552,0.766499996185303,truck,elephant,40,0552_lp_s02_40_elephant_10_n02504458_5875.png
subject-02,1,553,0.604677200317383,keyboard,keyboard,7,0553_lp_s02_7_keyboard_10_n04505470_4501.png
subject-02,1,554,0.76439905166626,chair,oven,0,0554_lp_s02_0_oven_10_n04111531_2189.png
subject-02,1,555,1.21261119842529,truck,truck,3,0555_lp_s02_3_truck_10_n03796401_599.png
subject-02,1,556,0.838157892227173,cat,bird,7,0556_lp_s02_7_bird_10_n01622779_1370.png
subject-02,1,557,0.882187128067017,oven,oven,0,0557_lp_s02_0_oven_10_n04111531_19274.png
subject-02,1,558,1.01566481590271,bottle,chair,1,0558_lp_s02_1_chair_10_n02791124_2540.png
subject-02,1,559,0.867586851119995,cat,cat,5,0559_lp_s02_5_cat_10_n02125311_22884.png
subject-02,1,560,1.19321608543396,dog,dog,7,0560_lp_s02_7_dog_10_n02091467_13440.png
subject-02,1,561,0.844630002975464,truck,truck,7,0561_lp_s02_7_truck_10_n03417042_28773.png
subject-02,1,562,0.528508901596069,cat,cat,5,0562_lp_s02_5_cat_10_n02123045_11034.png
subject-02,1,563,0.630437135696411,bird,bird,5,0563_lp_s02_5_bird_10_n01819313_5504.png
subject-02,1,564,0.932247877120972,boat,knife,5,0564_lp_s02_5_knife_10_n03041632_18311.png
subject-02,1,565,0.610078096389771,bear,bear,7,0565_lp_s02_7_bear_10_n02134418_4696.png
subject-02,1,566,1.03777098655701,dog,bicycle,15,0566_lp_s02_15_bicycle_10_n02835271_8203.png
subject-02,1,567,0.663549900054932,cat,elephant,10,0567_lp_s02_10_elephant_10_n02504013_7923.png
subject-02,1,568,0.643631935119629,bicycle,bicycle,1,0568_lp_s02_1_bicycle_10_n03792782_46807.png
subject-02,1,569,0.803120136260986,bicycle,bicycle,0,0569_lp_s02_0_bicycle_10_n03792782_3136.png
subject-02,1,570,0.925230979919434,keyboard,keyboard,15,0570_lp_s02_15_keyboard_10_n04505470_1479.png
subject-02,1,571,0.926662921905518,oven,truck,40,0571_lp_s02_40_truck_10_n03796401_9.png
subject-02,1,572,0.750539064407349,boat,car,15,0572_lp_s02_15_car_10_n02814533_36206.png
subject-02,1,573,0.722355842590332,elephant,elephant,0,0573_lp_s02_0_elephant_10_n02504458_7506.png
subject-02,1,574,0.726301193237305,clock,clock,15,0574_lp_s02_15_clock_10_n04548280_254.png
subject-02,1,575,0.782088994979858,oven,oven,3,0575_lp_s02_3_oven_10_n04111531_8373.png
subject-02,1,576,0.941699028015137,airplane,airplane,3,0576_lp_s02_3_airplane_10_n02690373_5870.png
subject-02,1,577,0.781929969787598,car,truck,3,0577_lp_s02_3_truck_10_n03796401_24833.png
subject-02,1,578,0.729534864425659,keyboard,keyboard,5,0578_lp_s02_5_keyboard_10_n04505470_4742.png
subject-02,1,579,0.92732310295105,dog,dog,10,0579_lp_s02_10_dog_10_n02085782_7651.png
subject-02,1,580,1.25926399230957,bear,bear,7,0580_lp_s02_7_bear_10_n02134418_5326.png
subject-02,1,581,1.24480390548706,bear,elephant,5,0581_lp_s02_5_elephant_10_n02504013_1088.png
subject-02,1,582,0.700839042663574,oven,chair,40,0582_lp_s02_40_chair_10_n04099969_7577.png
subject-02,1,583,0.658605098724365,knife,knife,5,0583_lp_s02_5_knife_10_n03041632_12748.png
subject-02,1,584,1.11417388916016,knife,knife,1,0584_lp_s02_1_knife_10_n03041632_6446.png
subject-02,1,585,0.820492029190063,knife,knife,0,0585_lp_s02_0_knife_10_n03041632_3023.png
subject-02,1,586,0.713932991027832,keyboard,knife,7,0586_lp_s02_7_knife_10_n03041632_992.png
subject-02,1,587,0.921860933303833,bird,bird,3,0587_lp_s02_3_bird_10_n01829413_8792.png
subject-02,1,588,1.18370890617371,oven,dog,3,0588_lp_s02_3_dog_10_n02112018_6635.png
subject-02,1,589,1.07134318351746,airplane,airplane,5,0589_lp_s02_5_airplane_10_n02690373_2981.png
subject-02,1,590,0.707260131835938,keyboard,keyboard,0,0590_lp_s02_0_keyboard_10_n03085013_10984.png
subject-02,1,591,0.945287227630615,oven,bear,7,0591_lp_s02_7_bear_10_n02134418_860.png
subject-02,1,592,1.02506303787231,oven,keyboard,15,0592_lp_s02_15_keyboard_10_n03085013_7955.png
subject-02,1,593,0.520618915557861,clock,clock,7,0593_lp_s02_7_clock_10_n04548280_4069.png
subject-02,1,594,0.774799108505249,truck,chair,40,0594_lp_s02_40_chair_10_n03376595_1740.png
subject-02,1,595,0.872262001037598,cat,bottle,10,0595_lp_s02_10_bottle_10_n03983396_12670.png
subject-02,1,596,0.812355041503906,car,chair,40,0596_lp_s02_40_chair_10_n03376595_6071.png
subject-02,1,597,0.808126926422119,car,car,0,0597_lp_s02_0_car_10_n02814533_10069.png
subject-02,1,598,0.909990072250366,truck,truck,0,0598_lp_s02_0_truck_10_n03417042_22918.png
subject-02,1,599,1.07765316963196,truck,truck,10,0599_lp_s02_10_truck_10_n03417042_1437.png
subject-02,1,600,0.60517692565918,knife,knife,3,0600_lp_s02_3_knife_10_n03041632_13130.png
subject-02,1,601,0.865115165710449,oven,clock,10,0601_lp_s02_10_clock_10_n03196217_3986.png
subject-02,1,602,1.34288215637207,cat,knife,10,0602_lp_s02_10_knife_10_n03041632_29920.png
subject-02,1,603,0.626766920089722,bottle,bottle,1,0603_lp_s02_1_bottle_10_n04557648_6373.png
subject-02,1,604,0.840631008148193,airplane,airplane,5,0604_lp_s02_5_airplane_10_n02690373_6543.png
subject-02,1,605,0.912671804428101,keyboard,truck,10,0605_lp_s02_10_truck_10_n03796401_28465.png
subject-02,1,606,0.652239084243774,cat,clock,15,0606_lp_s02_15_clock_10_n03196217_82.png
subject-02,1,607,0.841819047927856,bear,dog,10,0607_lp_s02_10_dog_10_n02101006_15350.png
subject-02,1,608,0.671751022338867,truck,truck,1,0608_lp_s02_1_truck_10_n03417042_9480.png
subject-02,1,609,0.885629892349243,airplane,dog,40,0609_lp_s02_40_dog_10_n02110627_22484.png
subject-02,1,610,1.19534492492676,clock,bottle,7,0610_lp_s02_7_bottle_10_n03983396_587.png
subject-02,1,611,0.747475147247314,bird,bird,5,0611_lp_s02_5_bird_10_n02009229_3118.png
subject-02,1,612,0.583127021789551,cat,cat,3,0612_lp_s02_3_cat_10_n02123045_5371.png
subject-02,1,613,0.828809976577759,oven,oven,15,0613_lp_s02_15_oven_10_n04111531_2350.png
subject-02,1,614,0.885080099105835,bicycle,bicycle,5,0614_lp_s02_5_bicycle_10_n03792782_5578.png
subject-02,1,615,0.802261114120483,bicycle,bicycle,3,0615_lp_s02_3_bicycle_10_n03792782_12421.png
subject-02,1,616,1.10625886917114,oven,knife,40,0616_lp_s02_40_knife_10_n03041632_23678.png
subject-02,1,617,1.08450508117676,oven,cat,10,0617_lp_s02_10_cat_10_n02123159_3226.png
subject-02,1,618,1.33802509307861,oven,knife,40,0618_lp_s02_40_knife_10_n03041632_31932.png
subject-02,1,619,0.590074062347412,bear,boat,40,0619_lp_s02_40_boat_10_n03344393_2599.png
subject-02,1,620,0.849825859069824,truck,truck,3,0620_lp_s02_3_truck_10_n03417042_7469.png
subject-02,1,621,0.653496026992798,elephant,elephant,1,0621_lp_s02_1_elephant_10_n02504458_5766.png
subject-02,1,622,0.601070165634155,clock,clock,0,0622_lp_s02_0_clock_10_n02708093_22.png
subject-02,1,623,1.26081514358521,boat,bear,3,0623_lp_s02_3_bear_10_n02134084_21577.png
subject-02,1,624,0.606921911239624,cat,bicycle,10,0624_lp_s02_10_bicycle_10_n02835271_20445.png
subject-02,1,625,1.16463708877563,elephant,keyboard,7,0625_lp_s02_7_keyboard_10_n03085013_18830.png
subject-02,1,626,1.31466794013977,dog,boat,10,0626_lp_s02_10_boat_10_n04273569_10716.png
subject-02,1,627,0.934152841567993,car,truck,1,0627_lp_s02_1_truck_10_n03417042_5371.png
subject-02,1,628,0.858139991760254,dog,bear,5,0628_lp_s02_5_bear_10_n02133161_1490.png
subject-02,1,629,0.738022804260254,cat,cat,1,0629_lp_s02_1_cat_10_n02123045_12206.png
subject-02,1,630,0.865631103515625,bear,oven,5,0630_lp_s02_5_oven_10_n04111531_2930.png
subject-02,1,631,1.34562397003174,keyboard,truck,15,0631_lp_s02_15_truck_10_n04467665_68463.png
subject-02,1,632,0.925415992736816,bottle,bottle,1,0632_lp_s02_1_bottle_10_n04591713_4232.png
subject-02,1,633,0.661101102828979,knife,knife,0,0633_lp_s02_0_knife_10_n03041632_32048.png
subject-02,1,634,0.781075954437256,bicycle,bicycle,1,0634_lp_s02_1_bicycle_10_n02835271_942.png
subject-02,1,635,0.645032167434692,oven,oven,5,0635_lp_s02_5_oven_10_n04111531_6080.png
subject-02,1,636,1.08461403846741,airplane,airplane,7,0636_lp_s02_7_airplane_10_n02690373_7370.png
subject-02,1,637,0.766248941421509,keyboard,truck,40,0637_lp_s02_40_truck_10_n04467665_62626.png
subject-02,1,638,0.668166875839233,cat,cat,0,0638_lp_s02_0_cat_10_n02123597_680.png
subject-02,1,639,0.648087024688721,keyboard,oven,7,0639_lp_s02_7_oven_10_n04111531_5218.png
subject-02,1,640,1.22172212600708,boat,boat,5,0640_lp_s02_5_boat_10_n03662601_2743.png
subject-02,1,641,1.47738409042358,boat,knife,3,0641_lp_s02_3_knife_10_n03041632_80829.png
subject-02,1,642,1.07316207885742,truck,car,15,0642_lp_s02_15_car_10_n04285008_2781.png
subject-02,1,643,0.583415985107422,boat,boat,1,0643_lp_s02_1_boat_10_n04273569_1201.png
subject-02,1,644,1.03070402145386,cat,cat,1,0644_lp_s02_1_cat_10_n02124075_2268.png
subject-02,1,645,0.628702878952026,airplane,knife,7,0645_lp_s02_7_knife_10_n03041632_16206.png
subject-02,1,646,1.13868880271912,chair,chair,5,0646_lp_s02_5_chair_10_n03376595_12326.png
subject-02,1,647,0.91628885269165,dog,dog,5,0647_lp_s02_5_dog_10_n02107683_1076.png
subject-02,1,648,0.714308023452759,keyboard,keyboard,0,0648_lp_s02_0_keyboard_10_n03085013_23018.png
subject-02,1,649,0.521982192993164,car,car,1,0649_lp_s02_1_car_10_n04285008_6154.png
subject-02,1,650,0.627619028091431,clock,elephant,40,0650_lp_s02_40_elephant_10_n02504013_3857.png
subject-02,1,651,1.14532113075256,car,car,7,0651_lp_s02_7_car_10_n04285008_1674.png
subject-02,1,652,0.915771961212158,airplane,boat,7,0652_lp_s02_7_boat_10_n03662601_6042.png
subject-02,1,653,0.869135856628418,boat,dog,5,0653_lp_s02_5_dog_10_n02092339_4132.png
subject-02,1,654,0.601029872894287,oven,dog,40,0654_lp_s02_40_dog_10_n02105056_12631.png
subject-02,1,655,0.610822916030884,bear,bear,0,0655_lp_s02_0_bear_10_n02134084_13075.png
subject-02,1,656,1.00278091430664,truck,truck,1,0656_lp_s02_1_truck_10_n03417042_18554.png
subject-02,1,657,0.678502798080444,oven,chair,40,0657_lp_s02_40_chair_10_n02791124_2972.png
subject-02,1,658,0.630085945129395,boat,oven,10,0658_lp_s02_10_oven_10_n04111531_3717.png
subject-02,1,659,0.682406187057495,boat,bicycle,15,0659_lp_s02_15_bicycle_10_n03792782_18294.png
subject-02,1,660,0.579766988754272,cat,cat,3,0660_lp_s02_3_cat_10_n02123394_1038.png
subject-02,1,661,0.729809045791626,oven,truck,10,0661_lp_s02_10_truck_10_n04467665_7975.png
subject-02,1,662,0.913733959197998,elephant,elephant,0,0662_lp_s02_0_elephant_10_n02504013_24486.png
subject-02,1,663,1.07356595993042,airplane,airplane,5,0663_lp_s02_5_airplane_10_n02690373_9423.png
subject-02,1,664,0.989143848419189,car,bicycle,10,0664_lp_s02_10_bicycle_10_n03792782_62398.png
subject-02,1,665,1.07941889762878,dog,bottle,3,0665_lp_s02_3_bottle_10_n03937543_11101.png
subject-02,1,666,0.7687828540802,airplane,airplane,1,0666_lp_s02_1_airplane_10_n02690373_3988.png
subject-02,1,667,0.810772895812988,airplane,airplane,0,0667_lp_s02_0_airplane_10_n02690373_1310.png
subject-02,1,668,1.06444191932678,bear,cat,15,0668_lp_s02_15_cat_10_n02124075_13747.png
subject-02,1,669,0.526193857192993,chair,chair,1,0669_lp_s02_1_chair_10_n03376595_8012.png
subject-02,1,670,0.725841045379639,oven,boat,40,0670_lp_s02_40_boat_10_n03662601_35800.png
subject-02,1,671,0.773849010467529,bicycle,bicycle,1,0671_lp_s02_1_bicycle_10_n02835271_14235.png
subject-02,1,672,0.74580717086792,keyboard,keyboard,0,0672_lp_s02_0_keyboard_10_n03085013_12164.png
subject-02,1,673,0.817255020141602,cat,knife,15,0673_lp_s02_15_knife_10_n03041632_27848.png
subject-02,1,674,0.865238904953003,airplane,airplane,15,0674_lp_s02_15_airplane_10_n02690373_848.png
subject-02,1,675,1.37307214736938,boat,boat,3,0675_lp_s02_3_boat_10_n04273569_11445.png
subject-02,1,676,1.33695507049561,dog,cat,15,0676_lp_s02_15_cat_10_n02123159_6281.png
subject-02,1,677,0.715095043182373,oven,bicycle,40,0677_lp_s02_40_bicycle_10_n02835271_14499.png
subject-02,1,678,0.65644097328186,elephant,elephant,1,0678_lp_s02_1_elephant_10_n02504013_1244.png
subject-02,1,679,0.768276929855347,oven,clock,15,0679_lp_s02_15_clock_10_n03196217_3140.png
subject-02,1,680,1.05222678184509,cat,bottle,15,0680_lp_s02_15_bottle_10_n03937543_5512.png
subject-02,1,681,0.625929117202759,keyboard,keyboard,1,0681_lp_s02_1_keyboard_10_n04505470_3852.png
subject-02,1,682,1.32385897636414,dog,dog,7,0682_lp_s02_7_dog_10_n02088238_3078.png
subject-02,1,683,1.50002002716064,elephant,elephant,0,0683_lp_s02_0_elephant_10_n02504458_1933.png
subject-02,1,684,1.08728194236755,cat,elephant,5,0684_lp_s02_5_elephant_10_n02504458_1636.png
subject-02,1,685,0.531148910522461,keyboard,keyboard,1,0685_lp_s02_1_keyboard_10_n03085013_20303.png
subject-02,1,686,1.16714382171631,boat,car,5,0686_lp_s02_5_car_10_n04285008_434.png
subject-02,1,687,0.747116088867188,keyboard,keyboard,3,0687_lp_s02_3_keyboard_10_n03085013_24578.png
subject-02,1,688,1.26448893547058,oven,knife,3,0688_lp_s02_3_knife_10_n03041632_19866.png
subject-02,1,689,0.922489166259766,truck,truck,3,0689_lp_s02_3_truck_10_n03796401_3250.png
subject-02,1,690,1.32616782188416,cat,clock,10,0690_lp_s02_10_clock_10_n03196217_454.png
subject-02,1,691,1.28819704055786,bear,dog,15,0691_lp_s02_15_dog_10_n02101388_20966.png
subject-02,1,692,0.682020902633667,cat,bottle,15,0692_lp_s02_15_bottle_10_n04591713_2952.png
subject-02,1,693,0.869688034057617,cat,cat,7,0693_lp_s02_7_cat_10_n02123045_20512.png
subject-02,1,694,1.18555808067322,bicycle,clock,40,0694_lp_s02_40_clock_10_n02708093_8141.png
subject-02,1,695,1.32537078857422,boat,bird,0,0695_lp_s02_0_bird_10_n02009229_4838.png
subject-02,1,696,0.865118026733398,keyboard,keyboard,3,0696_lp_s02_3_keyboard_10_n03085013_21030.png
subject-02,1,697,0.640790939331055,car,car,3,0697_lp_s02_3_car_10_n03100240_2495.png
subject-02,1,698,0.588815927505493,clock,clock,7,0698_lp_s02_7_clock_10_n02708093_7020.png
subject-02,1,699,1.27866697311401,airplane,bicycle,10,0699_lp_s02_10_bicycle_10_n02835271_19565.png
subject-02,1,700,1.3763120174408,elephant,elephant,7,0700_lp_s02_7_elephant_10_n02504013_7774.png
subject-02,1,701,1.29241299629211,knife,chair,7,0701_lp_s02_7_chair_10_n04429376_14967.png
subject-02,1,702,0.87993311882019,bird,bird,0,0702_lp_s02_0_bird_10_n02018795_5662.png
subject-02,1,703,0.553980112075806,knife,knife,7,0703_lp_s02_7_knife_10_n03041632_46914.png
subject-02,1,704,0.549801826477051,bicycle,bicycle,3,0704_lp_s02_3_bicycle_10_n02835271_9202.png
subject-02,1,705,0.747520923614502,oven,truck,40,0705_lp_s02_40_truck_10_n04467665_13193.png
subject-02,1,706,0.981703042984009,oven,oven,15,0706_lp_s02_15_oven_10_n04111531_9113.png
subject-02,1,707,0.952994823455811,car,bear,10,0707_lp_s02_10_bear_10_n02132136_21799.png
subject-02,1,708,0.860875129699707,keyboard,oven,15,0708_lp_s02_15_oven_10_n04111531_5168.png
subject-02,1,709,1.47467613220215,bicycle,dog,10,0709_lp_s02_10_dog_10_n02112018_11708.png
subject-02,1,710,0.838559150695801,chair,bottle,7,0710_lp_s02_7_bottle_10_n04560804_2002.png
subject-02,1,711,0.474432945251465,clock,clock,1,0711_lp_s02_1_clock_10_n04548280_7951.png
subject-02,1,712,0.734372854232788,truck,keyboard,40,0712_lp_s02_40_keyboard_10_n03085013_22960.png
subject-02,1,713,0.633862972259521,airplane,airplane,0,0713_lp_s02_0_airplane_10_n02690373_9401.png
subject-02,1,714,0.559787034988403,bottle,bottle,0,0714_lp_s02_0_bottle_10_n04591713_5465.png
subject-02,1,715,0.941492080688477,bird,bird,7,0715_lp_s02_7_bird_10_n02018207_1606.png
subject-02,1,716,1.06142497062683,car,car,0,0716_lp_s02_0_car_10_n02814533_27571.png
subject-02,1,717,1.42329788208008,knife,bottle,5,0717_lp_s02_5_bottle_10_n03983396_10469.png
subject-02,1,718,0.730952978134155,clock,oven,40,0718_lp_s02_40_oven_10_n04111531_15947.png
subject-02,1,719,0.626785039901733,oven,oven,1,0719_lp_s02_1_oven_10_n04111531_15629.png
subject-02,1,720,1.43062400817871,oven,keyboard,10,0720_lp_s02_10_keyboard_10_n04505470_4587.png
subject-02,1,721,0.858842134475708,bear,cat,5,0721_lp_s02_5_cat_10_n02123394_1627.png
subject-02,1,722,0.706720113754272,dog,dog,1,0722_lp_s02_1_dog_10_n02113023_5237.png
subject-02,1,723,1.00635004043579,truck,truck,5,0723_lp_s02_5_truck_10_n03796401_2656.png
subject-02,1,724,0.804405927658081,knife,knife,7,0724_lp_s02_7_knife_10_n03041632_45326.png
subject-02,1,725,0.545927047729492,clock,clock,3,0725_lp_s02_3_clock_10_n02708093_1747.png
subject-02,1,726,0.947849035263062,keyboard,bottle,10,0726_lp_s02_10_bottle_10_n02823428_3788.png
subject-02,1,727,0.719860076904297,oven,bottle,40,0727_lp_s02_40_bottle_10_n02823428_5227.png
subject-02,1,728,0.823493957519531,oven,oven,7,0728_lp_s02_7_oven_10_n04111531_13354.png
subject-02,1,729,0.685154914855957,airplane,airplane,0,0729_lp_s02_0_airplane_10_n02690373_7099.png
subject-02,1,730,0.827364206314087,elephant,car,40,0730_lp_s02_40_car_10_n03100240_13842.png
subject-02,1,731,0.799005031585693,chair,oven,40,0731_lp_s02_40_oven_10_n04111531_21366.png
subject-02,1,732,1.12889385223389,knife,boat,10,0732_lp_s02_10_boat_10_n02951358_9146.png
subject-02,1,733,0.794503927230835,truck,elephant,40,0733_lp_s02_40_elephant_10_n02504013_4044.png
subject-02,1,734,0.556797027587891,cat,cat,1,0734_lp_s02_1_cat_10_n02123597_7592.png
subject-02,1,735,0.786151170730591,bicycle,bicycle,0,0735_lp_s02_0_bicycle_10_n03792782_33649.png
subject-02,1,736,1.23198699951172,oven,bicycle,5,0736_lp_s02_5_bicycle_10_n02835271_10814.png
subject-02,1,737,0.916203022003174,bear,bear,5,0737_lp_s02_5_bear_10_n02132136_1152.png
subject-02,1,738,0.689736127853394,car,car,15,0738_lp_s02_15_car_10_n03100240_22499.png
subject-02,1,739,0.847388029098511,cat,oven,15,0739_lp_s02_15_oven_10_n04111531_92.png
subject-02,1,740,0.523370981216431,cat,cat,3,0740_lp_s02_3_cat_10_n02123394_4789.png
subject-02,1,741,0.859134197235107,dog,bicycle,7,0741_lp_s02_7_bicycle_10_n03792782_5416.png
subject-02,1,742,1.17495799064636,keyboard,bear,15,0742_lp_s02_15_bear_10_n02134418_3799.png
subject-02,1,743,0.824815988540649,bear,bear,5,0743_lp_s02_5_bear_10_n02133161_5616.png
subject-02,1,744,0.976720094680786,elephant,knife,15,0744_lp_s02_15_knife_10_n03041632_42887.png
subject-02,1,745,0.622318029403687,dog,dog,0,0745_lp_s02_0_dog_10_n02100735_3595.png
subject-02,1,746,0.832191944122314,cat,cat,10,0746_lp_s02_10_cat_10_n02125311_44401.png
subject-02,1,747,0.673882007598877,airplane,airplane,0,0747_lp_s02_0_airplane_10_n02690373_3212.png
subject-02,1,748,0.802114009857178,car,bird,10,0748_lp_s02_10_bird_10_n02006656_11017.png
subject-02,1,749,0.693526983261108,elephant,bicycle,7,0749_lp_s02_7_bicycle_10_n03792782_1747.png
subject-02,1,750,0.701457977294922,clock,clock,10,0750_lp_s02_10_clock_10_n02708093_321.png
subject-02,1,751,1.50000190734863,bird,boat,3,0751_lp_s02_3_boat_10_n02951358_33722.png
subject-02,1,752,0.843328952789307,boat,bird,10,0752_lp_s02_10_bird_10_n02013706_10026.png
subject-02,1,753,1.07678508758545,boat,bear,15,0753_lp_s02_15_bear_10_n02133161_1372.png
subject-02,1,754,0.808840036392212,bicycle,bicycle,10,0754_lp_s02_10_bicycle_10_n02835271_22623.png
subject-02,1,755,0.730484008789062,oven,oven,0,0755_lp_s02_0_oven_10_n04111531_1612.png
subject-02,1,756,0.654604911804199,keyboard,keyboard,7,0756_lp_s02_7_keyboard_10_n03085013_21534.png
subject-02,1,757,0.694124937057495,bear,bear,3,0757_lp_s02_3_bear_10_n02133161_8614.png
subject-02,1,758,0.604021072387695,cat,cat,3,0758_lp_s02_3_cat_10_n02124075_8693.png
subject-02,1,759,0.72374701499939,keyboard,keyboard,0,0759_lp_s02_0_keyboard_10_n04505470_1105.png
subject-02,1,760,0.65550708770752,oven,oven,15,0760_lp_s02_15_oven_10_n04111531_6508.png
subject-02,1,761,0.619318008422852,bear,bird,40,0761_lp_s02_40_bird_10_n01820546_1123.png
subject-02,1,762,0.763183832168579,chair,chair,3,0762_lp_s02_3_chair_10_n04099969_12546.png
subject-02,1,763,0.564948081970215,bicycle,bicycle,5,0763_lp_s02_5_bicycle_10_n03792782_6159.png
subject-02,1,764,0.51279616355896,bottle,bottle,1,0764_lp_s02_1_bottle_10_n04591713_360.png
subject-02,1,765,0.558678865432739,car,oven,40,0765_lp_s02_40_oven_10_n04111531_17781.png
subject-02,1,766,0.598591089248657,boat,bicycle,40,0766_lp_s02_40_bicycle_10_n03792782_29276.png
subject-02,1,767,0.530173063278198,oven,dog,10,0767_lp_s02_10_dog_10_n02088094_9379.png
subject-02,1,768,0.542479991912842,clock,clock,3,0768_lp_s02_3_clock_10_n04548280_5422.png
subject-02,1,769,0.568045854568481,boat,chair,40,0769_lp_s02_40_chair_10_n04099969_10401.png
subject-02,1,770,0.925559997558594,truck,truck,0,0770_lp_s02_0_truck_10_n03796401_2559.png
subject-02,1,771,0.871987819671631,chair,chair,7,0771_lp_s02_7_chair_10_n03376595_3181.png
subject-02,1,772,0.917570114135742,oven,oven,5,0772_lp_s02_5_oven_10_n04111531_15682.png
subject-02,1,773,0.698996067047119,boat,boat,15,0773_lp_s02_15_boat_10_n02951358_26579.png
subject-02,1,774,1.42723417282104,dog,bottle,10,0774_lp_s02_10_bottle_10_n04591713_10065.png
subject-02,1,775,0.916642904281616,dog,knife,5,0775_lp_s02_5_knife_10_n03041632_29285.png
subject-02,1,776,0.55066990852356,keyboard,keyboard,3,0776_lp_s02_3_keyboard_10_n04505470_4432.png
subject-02,1,777,1.30037117004395,dog,dog,15,0777_lp_s02_15_dog_10_n02107142_46045.png
subject-02,1,778,0.760197162628174,bird,bird,3,0778_lp_s02_3_bird_10_n01531178_15380.png
subject-02,1,779,0.843977212905884,knife,bottle,40,0779_lp_s02_40_bottle_10_n04557648_2002.png
subject-02,1,780,1.09589600563049,bird,knife,7,0780_lp_s02_7_knife_10_n03041632_25772.png
subject-02,1,781,0.449701070785522,oven,oven,3,0781_lp_s02_3_oven_10_n04111531_5204.png
subject-02,1,782,0.769576072692871,truck,bottle,15,0782_lp_s02_15_bottle_10_n04557648_12559.png
subject-02,1,783,0.639234066009521,truck,car,10,0783_lp_s02_10_car_10_n04285008_4811.png
subject-02,1,784,0.968966960906982,car,car,3,0784_lp_s02_3_car_10_n03100240_16466.png
subject-02,1,785,0.635039806365967,boat,elephant,15,0785_lp_s02_15_elephant_10_n02504458_7477.png
subject-02,1,786,1.36503791809082,bear,bird,15,0786_lp_s02_15_bird_10_n02028035_33583.png
subject-02,1,787,0.834485054016113,clock,clock,0,0787_lp_s02_0_clock_10_n03196217_6163.png
subject-02,1,788,0.712208986282349,elephant,elephant,7,0788_lp_s02_7_elephant_10_n02504458_1848.png
subject-02,1,789,1.30827498435974,oven,boat,7,0789_lp_s02_7_boat_10_n02951358_4551.png
subject-02,1,790,0.515779972076416,chair,cat,40,0790_lp_s02_40_cat_10_n02123394_5111.png
subject-02,1,791,0.603940010070801,car,car,1,0791_lp_s02_1_car_10_n04285008_39.png
subject-02,1,792,0.549355983734131,bottle,elephant,40,0792_lp_s02_40_elephant_10_n02504458_5169.png
subject-02,1,793,0.629481077194214,bird,bird,3,0793_lp_s02_3_bird_10_n01560419_1470.png
subject-02,1,794,0.817206144332886,airplane,airplane,10,0794_lp_s02_10_airplane_10_n02690373_13326.png
subject-02,1,795,0.549196004867554,bicycle,bicycle,7,0795_lp_s02_7_bicycle_10_n03792782_30229.png
subject-02,1,796,0.854971170425415,bear,bear,3,0796_lp_s02_3_bear_10_n02134418_14961.png
subject-02,1,797,0.740485191345215,knife,knife,3,0797_lp_s02_3_knife_10_n03041632_19098.png
subject-02,1,798,0.804309129714966,dog,dog,3,0798_lp_s02_3_dog_10_n02111500_7233.png
subject-02,1,799,0.928174018859863,truck,airplane,15,0799_lp_s02_15_airplane_10_n02690373_7239.png
subject-02,1,800,0.610687017440796,boat,bicycle,40,0800_lp_s02_40_bicycle_10_n02835271_16850.png
subject-02,1,801,1.03832983970642,clock,bear,40,0801_lp_s02_40_bear_10_n02134084_12428.png
subject-02,1,802,0.711941957473755,oven,truck,40,0802_lp_s02_40_truck_10_n04467665_67527.png
subject-02,1,803,0.958030939102173,oven,oven,7,0803_lp_s02_7_oven_10_n04111531_505.png
subject-02,1,804,0.699939012527466,chair,chair,7,0804_lp_s02_7_chair_10_n04099969_12456.png
subject-02,1,805,0.53758692741394,boat,boat,7,0805_lp_s02_7_boat_10_n04612504_12444.png
subject-02,1,806,1.20521903038025,dog,knife,15,0806_lp_s02_15_knife_10_n03041632_24326.png
subject-02,1,807,1.30907511711121,car,oven,10,0807_lp_s02_10_oven_10_n04111531_8537.png
subject-02,1,808,0.80306601524353,boat,boat,40,0808_lp_s02_40_boat_10_n04612504_7446.png
subject-02,1,809,0.504719972610474,clock,clock,5,0809_lp_s02_5_clock_10_n04548280_2421.png
subject-02,1,810,0.584602117538452,boat,bird,15,0810_lp_s02_15_bird_10_n01819313_5131.png
subject-02,1,811,0.634284019470215,boat,boat,0,0811_lp_s02_0_boat_10_n02951358_31986.png
subject-02,1,812,0.806524038314819,truck,truck,0,0812_lp_s02_0_truck_10_n04467665_18621.png
subject-02,1,813,0.848031997680664,bicycle,bicycle,0,0813_lp_s02_0_bicycle_10_n02835271_12674.png
subject-02,1,814,1.13182902336121,cat,cat,0,0814_lp_s02_0_cat_10_n02124075_10310.png
subject-02,1,815,0.797929048538208,oven,car,10,0815_lp_s02_10_car_10_n03100240_5136.png
subject-02,1,816,0.707622051239014,clock,bear,15,0816_lp_s02_15_bear_10_n02134084_4923.png
subject-02,1,817,0.757433891296387,oven,oven,1,0817_lp_s02_1_oven_10_n04111531_7667.png
subject-02,1,818,0.557543992996216,clock,bicycle,15,0818_lp_s02_15_bicycle_10_n03792782_5629.png
subject-02,1,819,0.54095721244812,cat,boat,40,0819_lp_s02_40_boat_10_n02951358_1461.png
subject-02,1,820,0.816679954528809,bird,bird,0,0820_lp_s02_0_bird_10_n02002556_15721.png
subject-02,1,821,0.624559879302979,boat,boat,7,0821_lp_s02_7_boat_10_n02951358_34783.png
subject-02,1,822,0.716296911239624,car,car,7,0822_lp_s02_7_car_10_n04285008_13094.png
subject-02,1,823,0.908012866973877,keyboard,bird,40,0823_lp_s02_40_bird_10_n01514859_11682.png
subject-02,1,824,0.785860061645508,clock,bird,40,0824_lp_s02_40_bird_10_n02056570_9872.png
subject-02,1,825,0.781666040420532,boat,boat,15,0825_lp_s02_15_boat_10_n04612504_2805.png
subject-02,1,826,1.04136800765991,knife,knife,1,0826_lp_s02_1_knife_10_n03041632_2468.png
subject-02,1,827,0.677536964416504,cat,truck,15,0827_lp_s02_15_truck_10_n03417042_3592.png
subject-02,1,828,1.09330010414124,bear,bear,0,0828_lp_s02_0_bear_10_n02134418_3952.png
subject-02,1,829,0.603134870529175,oven,oven,5,0829_lp_s02_5_oven_10_n04111531_20953.png
subject-02,1,830,1.50006198883057,boat,boat,1,0830_lp_s02_1_boat_10_n03344393_4616.png
subject-02,1,831,0.718596935272217,clock,bottle,15,0831_lp_s02_15_bottle_10_n03937543_5678.png
subject-02,1,832,0.440407991409302,cat,cat,5,0832_lp_s02_5_cat_10_n02123045_1126.png
subject-02,1,833,0.608402967453003,clock,clock,10,0833_lp_s02_10_clock_10_n02708093_6214.png
subject-02,1,834,1.06402993202209,dog,bicycle,7,0834_lp_s02_7_bicycle_10_n02835271_2900.png
subject-02,1,835,0.813983917236328,dog,dog,1,0835_lp_s02_1_dog_10_n02093754_5037.png
subject-02,1,836,0.893600225448608,dog,dog,3,0836_lp_s02_3_dog_10_n02098105_1217.png
subject-02,1,837,0.677299976348877,boat,boat,5,0837_lp_s02_5_boat_10_n04612504_15944.png
subject-02,1,838,0.961205959320068,bottle,bottle,3,0838_lp_s02_3_bottle_10_n04591713_3683.png
subject-02,1,839,0.823015928268433,airplane,knife,10,0839_lp_s02_10_knife_10_n03041632_11969.png
subject-02,1,840,1.05517721176147,elephant,elephant,3,0840_lp_s02_3_elephant_10_n02504458_6348.png
subject-02,1,841,1.36275315284729,dog,clock,15,0841_lp_s02_15_clock_10_n04548280_7181.png
subject-02,1,842,0.698596000671387,keyboard,keyboard,1,0842_lp_s02_1_keyboard_10_n04505470_5112.png
subject-02,1,843,0.880511999130249,bear,dog,15,0843_lp_s02_15_dog_10_n02098286_2582.png
subject-02,1,844,1.0782618522644,chair,bicycle,3,0844_lp_s02_3_bicycle_10_n02835271_3246.png
subject-02,1,845,1.50005388259888,cat,clock,5,0845_lp_s02_5_clock_10_n04548280_4557.png
subject-02,1,846,0.602028131484985,keyboard,keyboard,1,0846_lp_s02_1_keyboard_10_n03085013_21097.png
subject-02,1,847,0.92560887336731,bottle,bottle,0,0847_lp_s02_0_bottle_10_n04591713_6235.png
subject-02,1,848,1.03528904914856,bicycle,bicycle,5,0848_lp_s02_5_bicycle_10_n02835271_10556.png
subject-02,1,849,0.779231071472168,bicycle,dog,10,0849_lp_s02_10_dog_10_n02091032_9464.png
subject-02,1,850,0.964922904968262,boat,bear,7,0850_lp_s02_7_bear_10_n02134084_17529.png
subject-02,1,851,0.814823150634766,oven,bear,5,0851_lp_s02_5_bear_10_n02134084_13175.png
subject-02,1,852,0.844750165939331,oven,oven,7,0852_lp_s02_7_oven_10_n04111531_14208.png
subject-02,1,853,0.948462963104248,cat,bicycle,5,0853_lp_s02_5_bicycle_10_n03792782_22760.png
subject-02,1,854,0.682339906692505,bicycle,bicycle,0,0854_lp_s02_0_bicycle_10_n03792782_8287.png
subject-02,1,855,0.998026847839355,airplane,boat,40,0855_lp_s02_40_boat_10_n04273569_5811.png
subject-02,1,856,0.742339134216309,keyboard,bottle,5,0856_lp_s02_5_bottle_10_n04557648_29772.png
subject-02,1,857,0.775889158248901,boat,chair,7,0857_lp_s02_7_chair_10_n03376595_4190.png
subject-02,1,858,0.723726987838745,airplane,airplane,10,0858_lp_s02_10_airplane_10_n02690373_7432.png
subject-02,1,859,0.569447994232178,clock,clock,3,0859_lp_s02_3_clock_10_n04548280_21263.png
subject-02,1,860,0.947355985641479,truck,knife,40,0860_lp_s02_40_knife_10_n03041632_32459.png
subject-02,1,861,0.709194898605347,car,dog,40,0861_lp_s02_40_dog_10_n02108915_11208.png
subject-02,1,862,0.772792100906372,cat,cat,1,0862_lp_s02_1_cat_10_n02124075_7579.png
subject-02,1,863,1.02060914039612,dog,chair,7,0863_lp_s02_7_chair_10_n02791124_57.png
subject-02,1,864,0.662528991699219,cat,bird,10,0864_lp_s02_10_bird_10_n02037110_554.png
subject-02,1,865,0.758314847946167,truck,boat,10,0865_lp_s02_10_boat_10_n03344393_5343.png
subject-02,1,866,0.985997915267944,boat,boat,0,0866_lp_s02_0_boat_10_n02951358_512.png
subject-02,1,867,0.784011840820312,car,cat,40,0867_lp_s02_40_cat_10_n02123159_4348.png
subject-02,1,868,0.915831089019775,bird,bird,3,0868_lp_s02_3_bird_10_n01855672_3491.png
subject-02,1,869,0.691458940505981,airplane,chair,7,0869_lp_s02_7_chair_10_n03376595_3499.png
subject-02,1,870,1.20149397850037,elephant,elephant,5,0870_lp_s02_5_elephant_10_n02504013_2974.png
subject-02,1,871,0.831321954727173,car,car,5,0871_lp_s02_5_car_10_n03100240_2075.png
subject-02,1,872,0.651155948638916,chair,chair,1,0872_lp_s02_1_chair_10_n02791124_3883.png
subject-02,1,873,0.614772081375122,bicycle,bicycle,3,0873_lp_s02_3_bicycle_10_n02835271_18205.png
subject-02,1,874,0.6964271068573,cat,keyboard,40,0874_lp_s02_40_keyboard_10_n04505470_1338.png
subject-02,1,875,0.670353889465332,bird,bird,5,0875_lp_s02_5_bird_10_n01819313_3505.png
subject-02,1,876,0.538306951522827,oven,oven,10,0876_lp_s02_10_oven_10_n04111531_12830.png
subject-02,1,877,0.763903141021729,bird,bear,3,0877_lp_s02_3_bear_10_n02134084_17875.png
subject-02,1,878,0.944183111190796,truck,truck,1,0878_lp_s02_1_truck_10_n03417042_20591.png
subject-02,1,879,0.603989124298096,boat,boat,1,0879_lp_s02_1_boat_10_n04612504_26238.png
subject-02,1,880,0.785478115081787,car,car,1,0880_lp_s02_1_car_10_n02814533_42547.png
subject-02,1,881,0.883450031280518,chair,oven,3,0881_lp_s02_3_oven_10_n04111531_10216.png
subject-02,1,882,0.729355096817017,chair,chair,5,0882_lp_s02_5_chair_10_n03376595_302.png
subject-02,1,883,0.769153118133545,cat,elephant,5,0883_lp_s02_5_elephant_10_n02504458_5797.png
subject-02,1,884,0.851161956787109,boat,car,7,0884_lp_s02_7_car_10_n04285008_8666.png
subject-02,1,885,1.50012803077698,boat,boat,7,0885_lp_s02_7_boat_10_n03662601_12308.png
subject-02,1,886,0.584398031234741,oven,bottle,40,0886_lp_s02_40_bottle_10_n04560804_9457.png
subject-02,1,887,0.712296962738037,car,chair,10,0887_lp_s02_10_chair_10_n04429376_24716.png
subject-02,1,888,0.639832973480225,chair,chair,5,0888_lp_s02_5_chair_10_n03376595_9692.png
subject-02,1,889,0.729811906814575,clock,clock,0,0889_lp_s02_0_clock_10_n02708093_2762.png
subject-02,1,890,1.1535849571228,dog,bird,15,0890_lp_s02_15_bird_10_n01531178_5130.png
subject-02,1,891,0.539429903030396,clock,clock,15,0891_lp_s02_15_clock_10_n04548280_22641.png
subject-02,1,892,0.737347841262817,boat,boat,10,0892_lp_s02_10_boat_10_n04273569_19699.png
subject-02,1,893,1.02108311653137,car,clock,7,0893_lp_s02_7_clock_10_n03196217_10578.png
subject-02,1,894,0.931128978729248,cat,cat,5,0894_lp_s02_5_cat_10_n02123597_13835.png
subject-02,1,895,NaN,na,keyboard,10,0895_lp_s02_10_keyboard_10_n03085013_14351.png
subject-02,1,896,0.524667978286743,keyboard,keyboard,0,0896_lp_s02_0_keyboard_10_n04505470_73.png
subject-02,1,897,0.738445043563843,oven,truck,15,0897_lp_s02_15_truck_10_n04467665_3125.png
subject-02,1,898,1.0619900226593,dog,cat,7,0898_lp_s02_7_cat_10_n02123045_9184.png
subject-02,1,899,0.604124784469604,bicycle,bicycle,0,0899_lp_s02_0_bicycle_10_n02835271_11929.png
subject-02,1,900,0.568051099777222,chair,chair,3,0900_lp_s02_3_chair_10_n04099969_5584.png
subject-02,1,901,0.937605857849121,cat,cat,1,0901_lp_s02_1_cat_10_n02123394_4299.png
subject-02,1,902,0.935426950454712,keyboard,airplane,15,0902_lp_s02_15_airplane_10_n02690373_2521.png
subject-02,1,903,0.791462898254395,oven,airplane,40,0903_lp_s02_40_airplane_10_n02690373_4671.png
subject-02,1,904,0.85522198677063,bicycle,bicycle,5,0904_lp_s02_5_bicycle_10_n03792782_7180.png
subject-02,1,905,1.22486305236816,airplane,bird,10,0905_lp_s02_10_bird_10_n02028035_17238.png
subject-02,1,906,0.57909107208252,boat,boat,5,0906_lp_s02_5_boat_10_n04273569_22332.png
subject-02,1,907,0.960464000701904,clock,airplane,15,0907_lp_s02_15_airplane_10_n02690373_2042.png
subject-02,1,908,0.628363847732544,cat,chair,7,0908_lp_s02_7_chair_10_n02791124_6276.png
subject-02,1,909,0.998020887374878,dog,bird,15,0909_lp_s02_15_bird_10_n01797886_904.png
subject-02,1,910,1.16989088058472,elephant,elephant,1,0910_lp_s02_1_elephant_10_n02504458_4868.png
subject-02,1,911,1.37375211715698,oven,car,7,0911_lp_s02_7_car_10_n04285008_13156.png
subject-02,1,912,0.633553028106689,oven,knife,40,0912_lp_s02_40_knife_10_n03041632_8468.png
subject-02,1,913,0.887239933013916,bicycle,oven,5,0913_lp_s02_5_oven_10_n04111531_9548.png
subject-02,1,914,0.613049983978271,oven,oven,3,0914_lp_s02_3_oven_10_n04111531_7329.png
subject-02,1,915,0.795099973678589,bird,bear,3,0915_lp_s02_3_bear_10_n02134084_4818.png
subject-02,1,916,0.546715021133423,car,chair,40,0916_lp_s02_40_chair_10_n04099969_8018.png
subject-02,1,917,1.00252389907837,truck,truck,3,0917_lp_s02_3_truck_10_n04467665_16069.png
subject-02,1,918,0.706410884857178,boat,boat,5,0918_lp_s02_5_boat_10_n02951358_33277.png
subject-02,1,919,0.818285942077637,airplane,elephant,10,0919_lp_s02_10_elephant_10_n02504458_3209.png
subject-02,1,920,0.954201936721802,elephant,elephant,0,0920_lp_s02_0_elephant_10_n02504458_6835.png
subject-02,1,921,0.74579381942749,keyboard,keyboard,0,0921_lp_s02_0_keyboard_10_n03085013_14237.png
subject-02,1,922,1.42762684822083,bird,bicycle,10,0922_lp_s02_10_bicycle_10_n02835271_8597.png
subject-02,1,923,0.545393943786621,cat,knife,10,0923_lp_s02_10_knife_10_n03041632_17091.png
subject-02,1,924,1.27518200874329,oven,car,40,0924_lp_s02_40_car_10_n04285008_3185.png
subject-02,1,925,0.551100015640259,keyboard,knife,7,0925_lp_s02_7_knife_10_n03041632_4708.png
subject-02,1,926,0.650914907455444,bicycle,bottle,15,0926_lp_s02_15_bottle_10_n03937543_2759.png
subject-02,1,927,0.652835130691528,car,car,0,0927_lp_s02_0_car_10_n03100240_9625.png
subject-02,1,928,0.830790996551514,airplane,airplane,7,0928_lp_s02_7_airplane_10_n02690373_5628.png
subject-02,1,929,0.644397020339966,clock,clock,7,0929_lp_s02_7_clock_10_n04548280_219.png
subject-02,1,930,1.24229907989502,dog,dog,0,0930_lp_s02_0_dog_10_n02088094_3274.png
subject-02,1,931,1.03185820579529,cat,cat,40,0931_lp_s02_40_cat_10_n02124075_9066.png
subject-02,1,932,0.869714975357056,bird,bird,5,0932_lp_s02_5_bird_10_n01530575_10367.png
subject-02,1,933,0.647752046585083,car,clock,40,0933_lp_s02_40_clock_10_n02708093_8276.png
subject-02,1,934,0.66358494758606,truck,car,40,0934_lp_s02_40_car_10_n04285008_14573.png
subject-02,1,935,0.47940993309021,bottle,bottle,0,0935_lp_s02_0_bottle_10_n02823428_2918.png
subject-02,1,936,0.840986013412476,bear,dog,15,0936_lp_s02_15_dog_10_n02108422_932.png
subject-02,1,937,NaN,na,bottle,7,0937_lp_s02_7_bottle_10_n04591713_6923.png
subject-02,1,938,0.882864952087402,boat,boat,3,0938_lp_s02_3_boat_10_n03662601_14478.png
subject-02,1,939,0.988703012466431,oven,bottle,40,0939_lp_s02_40_bottle_10_n03937543_5254.png
subject-02,1,940,0.728618144989014,cat,bottle,15,0940_lp_s02_15_bottle_10_n04557648_634.png
subject-02,1,941,0.660274028778076,clock,bird,40,0941_lp_s02_40_bird_10_n02006656_8975.png
subject-02,1,942,1.26000905036926,cat,bird,15,0942_lp_s02_15_bird_10_n01530575_10601.png
subject-02,1,943,1.03594708442688,dog,bottle,10,0943_lp_s02_10_bottle_10_n04557648_7601.png
subject-02,1,944,0.655683040618896,knife,knife,10,0944_lp_s02_10_knife_10_n03041632_55711.png
subject-02,1,945,1.01936888694763,bicycle,boat,7,0945_lp_s02_7_boat_10_n03344393_3921.png
subject-02,1,946,1.07522487640381,chair,airplane,15,0946_lp_s02_15_airplane_10_n02690373_5496.png
subject-02,1,947,0.854981899261475,airplane,airplane,7,0947_lp_s02_7_airplane_10_n02690373_9533.png
subject-02,1,948,0.542787075042725,cat,boat,10,0948_lp_s02_10_boat_10_n03662601_8554.png
subject-02,1,949,0.550551891326904,chair,chair,3,0949_lp_s02_3_chair_10_n04429376_15078.png
subject-02,1,950,0.654496908187866,oven,car,10,0950_lp_s02_10_car_10_n03100240_8670.png
subject-02,1,951,1.07818984985352,chair,oven,5,0951_lp_s02_5_oven_10_n04111531_12942.png
subject-02,1,952,0.870186805725098,bird,bicycle,5,0952_lp_s02_5_bicycle_10_n03792782_15.png
subject-02,1,953,0.731780052185059,boat,car,10,0953_lp_s02_10_car_10_n03100240_15531.png
subject-02,1,954,0.53168797492981,bottle,bottle,0,0954_lp_s02_0_bottle_10_n04557648_376.png
subject-02,1,955,0.593726873397827,airplane,airplane,0,0955_lp_s02_0_airplane_10_n02690373_1386.png
subject-02,1,956,0.713186025619507,car,car,7,0956_lp_s02_7_car_10_n02814533_28783.png
subject-02,1,957,0.812978982925415,airplane,airplane,0,0957_lp_s02_0_airplane_10_n02690373_4269.png
subject-02,1,958,0.679049015045166,car,car,1,0958_lp_s02_1_car_10_n03100240_1535.png
subject-02,1,959,0.658776998519897,keyboard,keyboard,7,0959_lp_s02_7_keyboard_10_n04505470_5150.png
subject-02,1,960,0.976675987243652,truck,truck,5,0960_lp_s02_5_truck_10_n04467665_31059.png
subject-02,1,961,0.815927982330322,car,keyboard,40,0961_lp_s02_40_keyboard_10_n04505470_4672.png
subject-02,1,962,0.715895891189575,bear,bear,1,0962_lp_s02_1_bear_10_n02132136_1584.png
subject-02,1,963,0.937572002410889,airplane,bear,15,0963_lp_s02_15_bear_10_n02134084_22736.png
subject-02,1,964,1.19735503196716,bird,bird,5,0964_lp_s02_5_bird_10_n01824575_4941.png
subject-02,1,965,0.645341157913208,cat,cat,3,0965_lp_s02_3_cat_10_n02123597_72.png
subject-02,1,966,0.764883995056152,boat,clock,40,0966_lp_s02_40_clock_10_n04548280_9801.png
subject-02,1,967,0.890781164169312,knife,knife,1,0967_lp_s02_1_knife_10_n03041632_81943.png
subject-02,1,968,0.61870288848877,car,car,1,0968_lp_s02_1_car_10_n04285008_9411.png
subject-02,1,969,0.926599979400635,bottle,bottle,1,0969_lp_s02_1_bottle_10_n04591713_6138.png
subject-02,1,970,1.11825013160706,bear,bear,0,0970_lp_s02_0_bear_10_n02133161_5681.png
subject-02,1,971,1.1441810131073,bird,cat,15,0971_lp_s02_15_cat_10_n02125311_24439.png
subject-02,1,972,0.826045036315918,airplane,truck,7,0972_lp_s02_7_truck_10_n03417042_19905.png
subject-02,1,973,0.765729904174805,elephant,elephant,7,0973_lp_s02_7_elephant_10_n02504013_16929.png
subject-02,1,974,0.90161395072937,bottle,bottle,3,0974_lp_s02_3_bottle_10_n04557648_32252.png
subject-02,1,975,0.793323040008545,cat,dog,5,0975_lp_s02_5_dog_10_n02111129_6495.png
subject-02,1,976,1.00334811210632,bicycle,bottle,10,0976_lp_s02_10_bottle_10_n02823428_6766.png
subject-02,1,977,1.23075199127197,bottle,knife,5,0977_lp_s02_5_knife_10_n03041632_43506.png
subject-02,1,978,0.764819860458374,oven,car,15,0978_lp_s02_15_car_10_n03100240_2996.png
subject-02,1,979,0.823019981384277,clock,chair,0,0979_lp_s02_0_chair_10_n04429376_7888.png
subject-02,1,980,0.668241024017334,truck,truck,3,0980_lp_s02_3_truck_10_n03417042_6272.png
subject-02,1,981,1.20207190513611,bear,bear,0,0981_lp_s02_0_bear_10_n02132136_2846.png
subject-02,1,982,0.626317024230957,car,knife,40,0982_lp_s02_40_knife_10_n03041632_24950.png
subject-02,1,983,0.780218124389648,elephant,elephant,5,0983_lp_s02_5_elephant_10_n02504013_22704.png
subject-02,1,984,0.737565040588379,bear,bottle,15,0984_lp_s02_15_bottle_10_n03937543_5375.png
subject-02,1,985,0.597671985626221,bear,bear,1,0985_lp_s02_1_bear_10_n02133161_11333.png
subject-02,1,986,0.877346038818359,truck,airplane,7,0986_lp_s02_7_airplane_10_n02690373_8789.png
subject-02,1,987,0.951260089874268,dog,dog,0,0987_lp_s02_0_dog_10_n02086910_9742.png
subject-02,1,988,0.880940914154053,car,truck,40,0988_lp_s02_40_truck_10_n04467665_66876.png
subject-02,1,989,1.40667915344238,car,car,0,0989_lp_s02_0_car_10_n03100240_8327.png
subject-02,1,990,0.870564937591553,dog,dog,3,0990_lp_s02_3_dog_10_n02108915_3652.png
subject-02,1,991,1.07648420333862,oven,keyboard,40,0991_lp_s02_40_keyboard_10_n03085013_19547.png
subject-02,1,992,0.654383897781372,cat,cat,10,0992_lp_s02_10_cat_10_n02123045_1754.png
subject-02,1,993,1.43186902999878,bird,dog,5,0993_lp_s02_5_dog_10_n02110185_7886.png
subject-02,1,994,0.643815994262695,oven,keyboard,15,0994_lp_s02_15_keyboard_10_n04505470_313.png
subject-02,1,995,0.78371000289917,car,car,0,0995_lp_s02_0_car_10_n04285008_11290.png
subject-02,1,996,0.833316802978516,dog,dog,5,0996_lp_s02_5_dog_10_n02093256_6258.png
subject-02,1,997,1.25143694877625,bear,bottle,3,0997_lp_s02_3_bottle_10_n04591713_5019.png
subject-02,1,998,0.636996984481812,car,car,5,0998_lp_s02_5_car_10_n03100240_3083.png
subject-02,1,999,0.616940021514893,clock,boat,40,0999_lp_s02_40_boat_10_n03344393_2148.png
subject-02,1,1000,0.744588851928711,airplane,cat,40,1000_lp_s02_40_cat_10_n02123159_3724.png
subject-02,1,1001,0.658457040786743,car,car,0,1001_lp_s02_0_car_10_n04285008_3961.png
subject-02,1,1002,0.668192863464355,airplane,airplane,3,1002_lp_s02_3_airplane_10_n02690373_5056.png
subject-02,1,1003,0.740347146987915,bear,knife,10,1003_lp_s02_10_knife_10_n03041632_95293.png
subject-02,1,1004,1.0460729598999,bear,oven,10,1004_lp_s02_10_oven_10_n04111531_24096.png
subject-02,1,1005,1.21362590789795,boat,airplane,15,1005_lp_s02_15_airplane_10_n02690373_17262.png
subject-02,1,1006,1.02757096290588,car,car,5,1006_lp_s02_5_car_10_n02814533_9634.png
subject-02,1,1007,0.639441967010498,elephant,elephant,3,1007_lp_s02_3_elephant_10_n02504458_2994.png
subject-02,1,1008,0.741250991821289,airplane,airplane,3,1008_lp_s02_3_airplane_10_n02690373_7200.png
subject-02,1,1009,0.577142953872681,clock,clock,1,1009_lp_s02_1_clock_10_n04548280_5320.png
subject-02,1,1010,0.961045026779175,truck,truck,0,1010_lp_s02_0_truck_10_n04467665_17101.png
subject-02,1,1011,0.752663135528564,airplane,bird,5,1011_lp_s02_5_bird_10_n01795545_952.png
subject-02,1,1012,0.706570863723755,clock,clock,3,1012_lp_s02_3_clock_10_n03196217_8325.png
subject-02,1,1013,0.772158861160278,keyboard,keyboard,5,1013_lp_s02_5_keyboard_10_n04505470_8364.png
subject-02,1,1014,0.850042104721069,chair,chair,15,1014_lp_s02_15_chair_10_n03376595_4464.png
subject-02,1,1015,0.793787002563477,knife,clock,15,1015_lp_s02_15_clock_10_n02708093_2867.png
subject-02,1,1016,0.899547100067139,knife,bird,5,1016_lp_s02_5_bird_10_n01582220_9023.png
subject-02,1,1017,0.949375152587891,car,truck,15,1017_lp_s02_15_truck_10_n03417042_1336.png
subject-02,1,1018,0.513416051864624,elephant,elephant,3,1018_lp_s02_3_elephant_10_n02504458_10336.png
subject-02,1,1019,0.706897974014282,car,car,3,1019_lp_s02_3_car_10_n03100240_7836.png
subject-02,1,1020,0.966840028762817,bear,car,15,1020_lp_s02_15_car_10_n02814533_82674.png
subject-02,1,1021,1.15468502044678,cat,cat,1,1021_lp_s02_1_cat_10_n02123045_5820.png
subject-02,1,1022,1.47050499916077,oven,boat,10,1022_lp_s02_10_boat_10_n03662601_12034.png
subject-02,1,1023,0.652223110198975,bicycle,bicycle,5,1023_lp_s02_5_bicycle_10_n02835271_13439.png
subject-02,1,1024,0.502099990844727,airplane,airplane,3,1024_lp_s02_3_airplane_10_n02690373_939.png
subject-02,1,1025,1.21616792678833,boat,boat,10,1025_lp_s02_10_boat_10_n02951358_3155.png
subject-02,1,1026,0.631635904312134,cat,keyboard,3,1026_lp_s02_3_keyboard_10_n03085013_18841.png
subject-02,1,1027,1.33740210533142,bear,bird,10,1027_lp_s02_10_bird_10_n02011460_17499.png
subject-02,1,1028,0.601501941680908,car,keyboard,40,1028_lp_s02_40_keyboard_10_n03085013_21507.png
subject-02,1,1029,1.31511116027832,oven,truck,7,1029_lp_s02_7_truck_10_n03796401_8212.png
subject-02,1,1030,0.948860883712769,chair,knife,10,1030_lp_s02_10_knife_10_n03041632_20707.png
subject-02,1,1031,1.45287799835205,bicycle,bicycle,10,1031_lp_s02_10_bicycle_10_n03792782_22620.png
subject-02,1,1032,1.16687989234924,elephant,elephant,3,1032_lp_s02_3_elephant_10_n02504013_3418.png
subject-02,1,1033,1.33648610115051,oven,bottle,3,1033_lp_s02_3_bottle_10_n04560804_19001.png
subject-02,1,1034,NaN,na,bottle,10,1034_lp_s02_10_bottle_10_n03937543_1740.png
subject-02,1,1035,0.478041172027588,clock,clock,0,1035_lp_s02_0_clock_10_n04548280_3036.png
subject-02,1,1036,0.941909074783325,chair,boat,7,1036_lp_s02_7_boat_10_n02951358_2685.png
subject-02,1,1037,0.967556953430176,airplane,boat,15,1037_lp_s02_15_boat_10_n02951358_29341.png
subject-02,1,1038,1.11173391342163,keyboard,bear,40,1038_lp_s02_40_bear_10_n02133161_2670.png
subject-02,1,1039,0.779237985610962,chair,chair,1,1039_lp_s02_1_chair_10_n02791124_241.png
subject-02,1,1040,1.01522707939148,oven,bicycle,40,1040_lp_s02_40_bicycle_10_n02835271_2580.png
subject-02,1,1041,0.770280122756958,keyboard,boat,15,1041_lp_s02_15_boat_10_n04273569_3095.png
subject-02,1,1042,0.981940031051636,oven,chair,40,1042_lp_s02_40_chair_10_n04429376_6817.png
subject-02,1,1043,0.846193075180054,bicycle,bicycle,10,1043_lp_s02_10_bicycle_10_n03792782_42795.png
subject-02,1,1044,0.925863981246948,truck,truck,5,1044_lp_s02_5_truck_10_n03417042_4665.png
subject-02,1,1045,0.935157060623169,oven,chair,10,1045_lp_s02_10_chair_10_n03376595_9176.png
subject-02,1,1046,0.683202981948853,bottle,bottle,5,1046_lp_s02_5_bottle_10_n04591713_3495.png
subject-02,1,1047,0.715069055557251,oven,oven,3,1047_lp_s02_3_oven_10_n04111531_12725.png
subject-02,1,1048,0.624934911727905,car,car,10,1048_lp_s02_10_car_10_n03100240_6029.png
subject-02,1,1049,1.49467301368713,keyboard,keyboard,10,1049_lp_s02_10_keyboard_10_n03085013_9533.png
subject-02,1,1050,0.834417104721069,cat,cat,1,1050_lp_s02_1_cat_10_n02125311_22037.png
subject-02,1,1051,1.3144268989563,bird,elephant,3,1051_lp_s02_3_elephant_10_n02504013_1502.png
subject-02,1,1052,1.11402106285095,truck,truck,15,1052_lp_s02_15_truck_10_n03796401_10519.png
subject-02,1,1053,0.759839057922363,car,car,10,1053_lp_s02_10_car_10_n03100240_4421.png
subject-02,1,1054,1.08976888656616,cat,cat,40,1054_lp_s02_40_cat_10_n02124075_12325.png
subject-02,1,1055,1.24540686607361,oven,bear,40,1055_lp_s02_40_bear_10_n02132136_14346.png
subject-02,1,1056,0.887702941894531,bear,bear,10,1056_lp_s02_10_bear_10_n02134418_3793.png
subject-02,1,1057,0.683290958404541,dog,dog,5,1057_lp_s02_5_dog_10_n02102040_1660.png
subject-02,1,1058,0.676877021789551,bird,bird,1,1058_lp_s02_1_bird_10_n01601694_3230.png
subject-02,1,1059,0.845000028610229,car,bird,40,1059_lp_s02_40_bird_10_n01824575_822.png
subject-02,1,1060,0.666728973388672,bird,bird,3,1060_lp_s02_3_bird_10_n01820546_5444.png
subject-02,1,1061,0.662910938262939,keyboard,keyboard,5,1061_lp_s02_5_keyboard_10_n03085013_2594.png
subject-02,1,1062,1.28223609924316,bird,bird,1,1062_lp_s02_1_bird_10_n01843065_3596.png
subject-02,1,1063,0.566086053848267,oven,dog,40,1063_lp_s02_40_dog_10_n02105162_2662.png
subject-02,1,1064,0.632304906845093,bottle,bottle,0,1064_lp_s02_0_bottle_10_n02823428_2422.png
subject-02,1,1065,0.633790969848633,bicycle,bicycle,7,1065_lp_s02_7_bicycle_10_n03792782_9692.png
subject-02,1,1066,1.02757501602173,bear,elephant,7,1066_lp_s02_7_elephant_10_n02504458_1336.png
subject-02,1,1067,0.837308883666992,airplane,airplane,0,1067_lp_s02_0_airplane_10_n02690373_10114.png
subject-02,1,1068,1.3790488243103,bird,chair,3,1068_lp_s02_3_chair_10_n03376595_12583.png
subject-02,1,1069,0.592906951904297,bicycle,bicycle,7,1069_lp_s02_7_bicycle_10_n02835271_769.png
subject-02,1,1070,0.618602991104126,bottle,bottle,1,1070_lp_s02_1_bottle_10_n03937543_4723.png
subject-02,1,1071,1.13252401351929,airplane,bicycle,7,1071_lp_s02_7_bicycle_10_n02835271_7426.png
subject-02,1,1072,1.50013995170593,clock,chair,15,1072_lp_s02_15_chair_10_n02791124_3160.png
subject-02,1,1073,1.0664758682251,chair,chair,0,1073_lp_s02_0_chair_10_n04099969_16161.png
subject-02,1,1074,0.632162094116211,bottle,bottle,0,1074_lp_s02_0_bottle_10_n02823428_40.png
subject-02,1,1075,0.622012138366699,airplane,airplane,5,1075_lp_s02_5_airplane_10_n02690373_633.png
subject-02,1,1076,0.997607946395874,oven,dog,40,1076_lp_s02_40_dog_10_n02106662_56458.png
subject-02,1,1077,1.05541300773621,dog,dog,1,1077_lp_s02_1_dog_10_n02091467_3403.png
subject-02,1,1078,0.791295051574707,knife,knife,3,1078_lp_s02_3_knife_10_n03041632_10000.png
subject-02,1,1079,0.918956995010376,bottle,bottle,5,1079_lp_s02_5_bottle_10_n03937543_339.png
subject-02,1,1080,1.16321492195129,dog,dog,3,1080_lp_s02_3_dog_10_n02091134_3075.png
subject-02,1,1081,0.838733911514282,truck,truck,0,1081_lp_s02_0_truck_10_n03417042_10099.png
subject-02,1,1082,0.762643098831177,car,clock,40,1082_lp_s02_40_clock_10_n04548280_2942.png
subject-02,1,1083,0.624592065811157,keyboard,keyboard,1,1083_lp_s02_1_keyboard_10_n04505470_532.png
subject-02,1,1084,0.758023023605347,elephant,elephant,1,1084_lp_s02_1_elephant_10_n02504458_3985.png
subject-02,1,1085,1.10406303405762,car,bicycle,15,1085_lp_s02_15_bicycle_10_n02835271_317.png
subject-02,1,1086,NaN,na,bicycle,15,1086_lp_s02_15_bicycle_10_n02835271_6122.png
subject-02,1,1087,0.895633935928345,truck,truck,10,1087_lp_s02_10_truck_10_n03417042_12308.png
subject-02,1,1088,0.649344921112061,oven,cat,15,1088_lp_s02_15_cat_10_n02123045_20570.png
subject-02,1,1089,0.711180925369263,car,car,3,1089_lp_s02_3_car_10_n02814533_36174.png
