subj,session,trial,rt,object_response,category,condition,imagename
subject-07,1,1,0.788907051086426,cat,cat,0,0001_ske_s07_0_cat_00_cat-0052-sketch-1.png
subject-07,1,2,0.606977939605713,truck,truck,0,0002_ske_s07_0_truck_00_truck-0088-sketch-41.png
subject-07,1,3,0.596596002578735,knife,knife,0,0003_ske_s07_0_knife_00_knife-0045-sketch-49.png
subject-07,1,4,0.884489059448242,bear,bear,0,0004_ske_s07_0_bear_00_bear-0033-sketch-38.png
subject-07,1,5,0.640285968780518,knife,knife,0,0005_ske_s07_0_knife_00_knife-0040-sketch-44.png
subject-07,1,6,0.600226879119873,truck,truck,0,0006_ske_s07_0_truck_00_truck-0029-sketch-34.png
subject-07,1,7,0.993923902511597,elephant,elephant,0,0007_ske_s07_0_elephant_00_elephant-0043-sketch-47.png
subject-07,1,8,1.50012803077698,bear,bear,0,0008_ske_s07_0_bear_00_bear-0161-sketch-16.png
subject-07,1,9,0.583369970321655,clock,clock,0,0009_ske_s07_0_clock_00_clock-0015-sketch-21.png
subject-07,1,10,0.873279094696045,chair,chair,0,0010_ske_s07_0_chair_00_chair-0094-sketch-47.png
subject-07,1,11,0.989476919174194,keyboard,keyboard,0,0011_ske_s07_0_keyboard_00_keyboard-0091-sketch-44.png
subject-07,1,12,0.946838140487671,bottle,bottle,0,0012_ske_s07_0_bottle_00_bottle-0305-sketch-9.png
subject-07,1,13,0.640697956085205,bear,bear,0,0013_ske_s07_0_bear_00_bear-0068-sketch-24.png
subject-07,1,14,0.958391904830933,car,car,0,0014_ske_s07_0_car_00_car-0047-sketch-50.png
subject-07,1,15,0.716387987136841,airplane,airplane,0,0015_ske_s07_0_airplane_00_airplane-0023-sketch-29.png
subject-07,1,16,0.668184995651245,dog,dog,0,0016_ske_s07_0_dog_00_dog-2198-sketch-20.png
subject-07,1,17,1.06396794319153,truck,car,0,0017_ske_s07_0_car_00_car-0034-sketch-39.png
subject-07,1,18,0.905733108520508,bird,bird,0,0018_ske_s07_0_bird_00_bird-2169-sketch-36.png
subject-07,1,19,0.629765033721924,car,car,0,0019_ske_s07_0_car_00_car-0043-sketch-47.png
subject-07,1,20,0.753415822982788,bear,bear,0,0020_ske_s07_0_bear_00_bear-0199-sketch-50.png
subject-07,1,21,1.267165184021,clock,clock,0,0021_ske_s07_0_clock_00_clock-0033-sketch-38.png
subject-07,1,22,0.723186016082764,clock,clock,0,0022_ske_s07_0_clock_00_clock-0133-sketch-36.png
subject-07,1,23,1.07078194618225,elephant,elephant,0,0023_ske_s07_0_elephant_00_elephant-0037-sketch-41.png
subject-07,1,24,0.883082151412964,bottle,bottle,0,0024_ske_s07_0_bottle_00_bottle-0003-sketch-10.png
subject-07,1,25,0.902496099472046,dog,dog,0,0025_ske_s07_0_dog_00_dog-3000-sketch-11.png
subject-07,1,26,0.698832988739014,airplane,airplane,0,0026_ske_s07_0_airplane_00_airplane-0041-sketch-45.png
subject-07,1,27,0.696063995361328,dog,dog,0,0027_ske_s07_0_dog_00_dog-1797-sketch-26.png
subject-07,1,28,1.02588295936584,dog,dog,0,0028_ske_s07_0_dog_00_dog-4325-sketch-13.png
subject-07,1,29,1.05183911323547,dog,dog,0,0029_ske_s07_0_dog_00_dog-2291-sketch-12.png
subject-07,1,30,0.871511936187744,dog,cat,0,0030_ske_s07_0_cat_00_cat-0104-sketch-10.png
subject-07,1,31,0.799372911453247,bicycle,bicycle,0,0031_ske_s07_0_bicycle_00_bicycle-0054-sketch-10.png
subject-07,1,32,0.657023191452026,keyboard,keyboard,0,0032_ske_s07_0_keyboard_00_keyboard-0038-sketch-42.png
subject-07,1,33,0.900881052017212,bicycle,bicycle,0,0033_ske_s07_0_bicycle_00_bicycle-0022-sketch-28.png
subject-07,1,34,0.896928071975708,clock,clock,0,0034_ske_s07_0_clock_00_clock-0095-sketch-48.png
subject-07,1,35,0.658703088760376,boat,boat,0,0035_ske_s07_0_boat_00_boat-0051-sketch-9.png
subject-07,1,36,1.07633399963379,bicycle,bicycle,0,0036_ske_s07_0_bicycle_00_bicycle-0037-sketch-41.png
subject-07,1,37,0.816211938858032,bird,bird,0,0037_ske_s07_0_bird_00_bird-1510-sketch-39.png
subject-07,1,38,0.651957988739014,boat,boat,0,0038_ske_s07_0_boat_00_boat-0036-sketch-40.png
subject-07,1,39,0.667868852615356,bottle,bottle,0,0039_ske_s07_0_bottle_00_bottle-0130-sketch-34.png
subject-07,1,40,0.563656091690063,airplane,airplane,0,0040_ske_s07_0_airplane_00_airplane-0014-sketch-20.png
subject-07,1,41,1.27543902397156,cat,cat,0,0041_ske_s07_0_cat_00_cat-0279-sketch-30.png
subject-07,1,42,1.01117300987244,dog,dog,0,0042_ske_s07_0_dog_00_dog-2541-sketch-0.png
subject-07,1,43,1.14700698852539,elephant,elephant,0,0043_ske_s07_0_elephant_00_elephant-0012-sketch-19.png
subject-07,1,44,0.665183067321777,cat,cat,0,0044_ske_s07_0_cat_00_cat-0085-sketch-4.png
subject-07,1,45,0.564713001251221,chair,chair,0,0045_ske_s07_0_chair_00_chair-0067-sketch-22.png
subject-07,1,46,0.918628931045532,elephant,elephant,0,0046_ske_s07_0_elephant_00_elephant-0054-sketch-10.png
subject-07,1,47,0.856369018554688,chair,chair,0,0047_ske_s07_0_chair_00_chair-0167-sketch-21.png
subject-07,1,48,1.05624389648438,clock,clock,0,0048_ske_s07_0_clock_00_clock-0049-sketch-7.png
subject-07,1,49,0.706216812133789,chair,chair,0,0049_ske_s07_0_chair_00_chair-0130-sketch-34.png
subject-07,1,50,1.03776812553406,chair,chair,0,0050_ske_s07_0_chair_00_chair-0176-sketch-3.png
subject-07,1,51,0.511766910552979,clock,clock,0,0051_ske_s07_0_clock_00_clock-0059-sketch-15.png
subject-07,1,52,0.539333820343018,boat,boat,0,0052_ske_s07_0_boat_00_boat-0029-sketch-34.png
subject-07,1,53,0.747213840484619,bottle,bottle,0,0053_ske_s07_0_bottle_00_bottle-0185-sketch-38.png
subject-07,1,54,0.702863931655884,car,car,0,0054_ske_s07_0_car_00_car-0004-sketch-11.png
subject-07,1,55,NaN,na,elephant,0,0055_ske_s07_0_elephant_00_elephant-0046-sketch-5.png
subject-07,1,56,0.876694917678833,car,truck,0,0056_ske_s07_0_truck_00_truck-0132-sketch-35.png
subject-07,1,57,0.582429885864258,airplane,airplane,0,0057_ske_s07_0_airplane_00_airplane-0040-sketch-44.png
subject-07,1,58,0.796159029006958,knife,knife,0,0058_ske_s07_0_knife_00_knife-0001-sketch-0.png
subject-07,1,59,0.777918100357056,dog,dog,0,0059_ske_s07_0_dog_00_dog-1292-sketch-3.png
subject-07,1,60,0.701708793640137,chair,chair,0,0060_ske_s07_0_chair_00_chair-0017-sketch-23.png
subject-07,1,61,0.657538175582886,bear,bear,0,0061_ske_s07_0_bear_00_bear-0137-sketch-40.png
subject-07,1,62,0.725555181503296,oven,oven,0,0062_ske_s07_0_oven_00_oven-0051-sketch-9.png
subject-07,1,63,1.07722115516663,bicycle,bicycle,0,0063_ske_s07_0_bicycle_00_bicycle-0080-sketch-34.png
subject-07,1,64,0.627120971679688,car,car,0,0064_ske_s07_0_car_00_car-0083-sketch-37.png
subject-07,1,65,0.855252981185913,bottle,bottle,0,0065_ske_s07_0_bottle_00_bottle-0207-sketch-11.png
subject-07,1,66,0.684764862060547,cat,cat,0,0066_ske_s07_0_cat_00_cat-0090-sketch-44.png
subject-07,1,67,0.710523843765259,bottle,bottle,0,0067_ske_s07_0_bottle_00_bottle-0045-sketch-49.png
subject-07,1,68,0.830568075180054,bear,bear,0,0068_ske_s07_0_bear_00_bear-0087-sketch-41.png
subject-07,1,69,0.902349948883057,bird,bird,0,0069_ske_s07_0_bird_00_bird-1702-sketch-29.png
subject-07,1,70,1.50013613700867,boat,boat,0,0070_ske_s07_0_boat_00_boat-0074-sketch-29.png
subject-07,1,71,0.679905891418457,bicycle,bicycle,0,0071_ske_s07_0_bicycle_00_bicycle-0059-sketch-15.png
subject-07,1,72,0.770112991333008,bear,bear,0,0072_ske_s07_0_bear_00_bear-0073-sketch-29.png
subject-07,1,73,1.33945107460022,elephant,elephant,0,0073_ske_s07_0_elephant_00_elephant-0098-sketch-50.png
subject-07,1,74,0.703094005584717,truck,truck,0,0074_ske_s07_0_truck_00_truck-0312-sketch-13.png
subject-07,1,75,0.659018993377686,bottle,bottle,0,0075_ske_s07_0_bottle_00_bottle-0126-sketch-30.png
subject-07,1,76,0.754812002182007,car,car,0,0076_ske_s07_0_car_00_car-0100-sketch-7.png
subject-07,1,77,0.73068904876709,chair,boat,0,0077_ske_s07_0_boat_00_boat-0085-sketch-39.png
subject-07,1,78,0.588798999786377,airplane,airplane,0,0078_ske_s07_0_airplane_00_airplane-0008-sketch-15.png
subject-07,1,79,0.574186086654663,airplane,airplane,0,0079_ske_s07_0_airplane_00_airplane-0029-sketch-34.png
subject-07,1,80,1.1704740524292,bicycle,chair,0,0080_ske_s07_0_chair_00_chair-0200-sketch-6.png
subject-07,1,81,1.07991504669189,keyboard,keyboard,0,0081_ske_s07_0_keyboard_00_keyboard-0002-sketch-1.png
subject-07,1,82,0.783859968185425,cat,cat,0,0082_ske_s07_0_cat_00_cat-0152-sketch-9.png
subject-07,1,83,0.911503076553345,bird,bird,0,0083_ske_s07_0_bird_00_bird-0880-sketch-2.png
subject-07,1,84,1.20964503288269,elephant,elephant,0,0084_ske_s07_0_elephant_00_elephant-0057-sketch-13.png
subject-07,1,85,0.801291942596436,clock,clock,0,0085_ske_s07_0_clock_00_clock-0018-sketch-24.png
subject-07,1,86,1.09092593193054,airplane,airplane,0,0086_ske_s07_0_airplane_00_airplane-0024-sketch-3.png
subject-07,1,87,0.622962951660156,clock,clock,0,0087_ske_s07_0_clock_00_clock-0132-sketch-35.png
subject-07,1,88,1.29049897193909,bear,bear,0,0088_ske_s07_0_bear_00_bear-0027-sketch-32.png
subject-07,1,89,0.822804927825928,bicycle,bicycle,0,0089_ske_s07_0_bicycle_00_bicycle-0047-sketch-50.png
subject-07,1,90,0.832322120666504,bottle,bottle,0,0090_ske_s07_0_bottle_00_bottle-0019-sketch-25.png
subject-07,1,91,0.898129940032959,dog,dog,0,0091_ske_s07_0_dog_00_dog-3251-sketch-9.png
subject-07,1,92,0.883964061737061,truck,truck,0,0092_ske_s07_0_truck_00_truck-0369-sketch-19.png
subject-07,1,93,0.69759202003479,chair,chair,0,0093_ske_s07_0_chair_00_chair-0144-sketch-47.png
subject-07,1,94,0.619765996932983,bottle,bottle,0,0094_ske_s07_0_bottle_00_bottle-0135-sketch-39.png
subject-07,1,95,0.583352088928223,bottle,bottle,0,0095_ske_s07_0_bottle_00_bottle-0313-sketch-15.png
subject-07,1,96,0.553016185760498,clock,clock,0,0096_ske_s07_0_clock_00_clock-0067-sketch-22.png
subject-07,1,97,0.682960987091064,bottle,bottle,0,0097_ske_s07_0_bottle_00_bottle-0097-sketch-50.png
subject-07,1,98,1.26274013519287,cat,cat,0,0098_ske_s07_0_cat_00_cat-0245-sketch-46.png
subject-07,1,99,0.712487936019897,elephant,elephant,0,0099_ske_s07_0_elephant_00_elephant-0061-sketch-17.png
subject-07,1,100,0.750334978103638,keyboard,keyboard,0,0100_ske_s07_0_keyboard_00_keyboard-0003-sketch-10.png
subject-07,1,101,0.654133081436157,keyboard,keyboard,0,0101_ske_s07_0_keyboard_00_keyboard-0016-sketch-22.png
subject-07,1,102,1.00807499885559,bear,bear,0,0102_ske_s07_0_bear_00_bear-0195-sketch-47.png
subject-07,1,103,0.757997989654541,bear,bear,0,0103_ske_s07_0_bear_00_bear-0166-sketch-20.png
subject-07,1,104,1.42750597000122,bicycle,bicycle,0,0104_ske_s07_0_bicycle_00_bicycle-0066-sketch-21.png
subject-07,1,105,0.671427965164185,cat,cat,0,0105_ske_s07_0_cat_00_cat-0044-sketch-48.png
subject-07,1,106,0.599415063858032,car,car,0,0106_ske_s07_0_car_00_car-0145-sketch-47.png
subject-07,1,107,0.671103954315186,chair,chair,0,0107_ske_s07_0_chair_00_chair-0125-sketch-3.png
subject-07,1,108,0.799004793167114,keyboard,keyboard,0,0108_ske_s07_0_keyboard_00_keyboard-0098-sketch-50.png
subject-07,1,109,0.612776041030884,oven,oven,0,0109_ske_s07_0_oven_00_oven-0004-sketch-11.png
subject-07,1,110,0.592763900756836,keyboard,keyboard,0,0110_ske_s07_0_keyboard_00_keyboard-0009-sketch-16.png
subject-07,1,111,0.58842921257019,bicycle,bicycle,0,0111_ske_s07_0_bicycle_00_bicycle-0046-sketch-5.png
subject-07,1,112,0.59820294380188,car,car,0,0112_ske_s07_0_car_00_car-0129-sketch-32.png
subject-07,1,113,0.730197906494141,bottle,bottle,0,0113_ske_s07_0_bottle_00_bottle-0189-sketch-41.png
subject-07,1,114,1.10573196411133,cat,cat,0,0114_ske_s07_0_cat_00_cat-0302-sketch-6.png
subject-07,1,115,0.571430921554565,keyboard,keyboard,0,0115_ske_s07_0_keyboard_00_keyboard-0019-sketch-25.png
subject-07,1,116,0.7133948802948,chair,chair,0,0116_ske_s07_0_chair_00_chair-0124-sketch-29.png
subject-07,1,117,0.58545708656311,oven,oven,0,0117_ske_s07_0_oven_00_oven-0011-sketch-18.png
subject-07,1,118,0.683161020278931,oven,oven,0,0118_ske_s07_0_oven_00_oven-0045-sketch-49.png
subject-07,1,119,0.597144842147827,chair,chair,0,0119_ske_s07_0_chair_00_chair-0135-sketch-39.png
subject-07,1,120,0.536930084228516,bicycle,bicycle,0,0120_ske_s07_0_bicycle_00_bicycle-0083-sketch-37.png
subject-07,1,121,0.762490034103394,bear,bear,0,0121_ske_s07_0_bear_00_bear-0017-sketch-23.png
subject-07,1,122,1.31023097038269,keyboard,bottle,0,0122_ske_s07_0_bottle_00_bottle-0082-sketch-37.png
subject-07,1,123,0.672096014022827,chair,chair,0,0123_ske_s07_0_chair_00_chair-0197-sketch-49.png
subject-07,1,124,0.571955919265747,oven,oven,0,0124_ske_s07_0_oven_00_oven-0032-sketch-37.png
subject-07,1,125,0.681577920913696,bicycle,bicycle,0,0125_ske_s07_0_bicycle_00_bicycle-0016-sketch-22.png
subject-07,1,126,0.585813999176025,clock,clock,0,0126_ske_s07_0_clock_00_clock-0118-sketch-22.png
subject-07,1,127,0.693218231201172,cat,cat,0,0127_ske_s07_0_cat_00_cat-0250-sketch-50.png
subject-07,1,128,0.833142042160034,car,car,0,0128_ske_s07_0_car_00_car-0025-sketch-30.png
subject-07,1,129,1.01911807060242,bear,bear,0,0129_ske_s07_0_bear_00_bear-0030-sketch-35.png
subject-07,1,130,0.658792018890381,boat,boat,0,0130_ske_s07_0_boat_00_boat-0239-sketch-4.png
subject-07,1,131,0.750463962554932,bear,bear,0,0131_ske_s07_0_bear_00_bear-0149-sketch-6.png
subject-07,1,132,0.566203117370605,oven,oven,0,0132_ske_s07_0_oven_00_oven-0029-sketch-34.png
subject-07,1,133,0.65800404548645,knife,knife,0,0133_ske_s07_0_knife_00_knife-0047-sketch-50.png
subject-07,1,134,0.704063892364502,car,car,0,0134_ske_s07_0_car_00_car-0153-sketch-9.png
subject-07,1,135,0.767735958099365,knife,knife,0,0135_ske_s07_0_knife_00_knife-0002-sketch-1.png
subject-07,1,136,0.957934141159058,bird,bird,0,0136_ske_s07_0_bird_00_bird-0274-sketch-25.png
subject-07,1,137,0.717534065246582,airplane,airplane,0,0137_ske_s07_0_airplane_00_airplane-0027-sketch-32.png
subject-07,1,138,0.899681091308594,bicycle,bicycle,0,0138_ske_s07_0_bicycle_00_bicycle-0044-sketch-48.png
subject-07,1,139,1.00305604934692,car,car,0,0139_ske_s07_0_car_00_car-0096-sketch-49.png
subject-07,1,140,0.743191003799438,bottle,bottle,0,0140_ske_s07_0_bottle_00_bottle-0031-sketch-36.png
subject-07,1,141,1.46675300598145,bird,bird,0,0141_ske_s07_0_bird_00_bird-1721-sketch-46.png
subject-07,1,142,1.18055391311646,car,truck,0,0142_ske_s07_0_truck_00_truck-0275-sketch-26.png
subject-07,1,143,1.48619413375854,bear,bear,0,0143_ske_s07_0_bear_00_bear-0135-sketch-39.png
subject-07,1,144,0.652326107025146,airplane,airplane,0,0144_ske_s07_0_airplane_00_airplane-0028-sketch-33.png
subject-07,1,145,0.769892930984497,clock,clock,0,0145_ske_s07_0_clock_00_clock-0141-sketch-43.png
subject-07,1,146,NaN,na,elephant,0,0146_ske_s07_0_elephant_00_elephant-0079-sketch-33.png
subject-07,1,147,1.40551590919495,bottle,knife,0,0147_ske_s07_0_knife_00_knife-0049-sketch-7.png
subject-07,1,148,0.693425893783569,bottle,bottle,0,0148_ske_s07_0_bottle_00_bottle-0268-sketch-20.png
subject-07,1,149,1.50012016296387,cat,cat,0,0149_ske_s07_0_cat_00_cat-0241-sketch-42.png
subject-07,1,150,0.876891851425171,car,car,0,0150_ske_s07_0_car_00_car-0021-sketch-27.png
subject-07,1,151,0.722681045532227,clock,clock,0,0151_ske_s07_0_clock_00_clock-0085-sketch-39.png
subject-07,1,152,0.538594007492065,chair,chair,0,0152_ske_s07_0_chair_00_chair-0155-sketch-10.png
subject-07,1,153,0.562762022018433,chair,chair,0,0153_ske_s07_0_chair_00_chair-0118-sketch-23.png
subject-07,1,154,1.17222118377686,clock,clock,0,0154_ske_s07_0_clock_00_clock-0028-sketch-33.png
subject-07,1,155,0.644040107727051,airplane,airplane,0,0155_ske_s07_0_airplane_00_airplane-0043-sketch-47.png
subject-07,1,156,1.50005197525024,boat,boat,0,0156_ske_s07_0_boat_00_boat-0115-sketch-2.png
subject-07,1,157,0.837891101837158,knife,knife,0,0157_ske_s07_0_knife_00_knife-0024-sketch-3.png
subject-07,1,158,0.63342809677124,cat,cat,0,0158_ske_s07_0_cat_00_cat-0016-sketch-22.png
subject-07,1,159,0.631156921386719,cat,cat,0,0159_ske_s07_0_cat_00_cat-0158-sketch-13.png
subject-07,1,160,0.935092926025391,bicycle,bicycle,0,0160_ske_s07_0_bicycle_00_bicycle-0034-sketch-39.png
subject-07,1,161,0.93433690071106,bird,bird,0,0161_ske_s07_0_bird_00_bird-1342-sketch-24.png
subject-07,1,162,NaN,na,dog,0,0162_ske_s07_0_dog_00_dog-3303-sketch-0.png
subject-07,1,163,0.814189910888672,bottle,bottle,0,0163_ske_s07_0_bottle_00_bottle-0143-sketch-46.png
subject-07,1,164,0.597593069076538,oven,oven,0,0164_ske_s07_0_oven_00_oven-0001-sketch-0.png
subject-07,1,165,0.537675142288208,car,car,0,0165_ske_s07_0_car_00_car-0045-sketch-49.png
subject-07,1,166,0.703351020812988,bottle,bottle,0,0166_ske_s07_0_bottle_00_bottle-0039-sketch-43.png
subject-07,1,167,1.10720205307007,elephant,elephant,0,0167_ske_s07_0_elephant_00_elephant-0086-sketch-4.png
subject-07,1,168,NaN,na,bear,0,0168_ske_s07_0_bear_00_bear-0045-sketch-49.png
subject-07,1,169,0.685098171234131,car,truck,0,0169_ske_s07_0_truck_00_truck-0308-sketch-1.png
subject-07,1,170,1.30641889572144,bottle,bottle,0,0170_ske_s07_0_bottle_00_bottle-0162-sketch-17.png
subject-07,1,171,0.784540891647339,boat,boat,0,0171_ske_s07_0_boat_00_boat-0107-sketch-12.png
subject-07,1,172,0.484279870986938,clock,clock,0,0172_ske_s07_0_clock_00_clock-0027-sketch-32.png
subject-07,1,173,0.538303852081299,airplane,airplane,0,0173_ske_s07_0_airplane_00_airplane-0038-sketch-42.png
subject-07,1,174,0.913747072219849,bird,bird,0,0174_ske_s07_0_bird_00_bird-2262-sketch-28.png
subject-07,1,175,0.945807933807373,bird,bird,0,0175_ske_s07_0_bird_00_bird-1201-sketch-34.png
subject-07,1,176,0.721518039703369,bottle,bottle,0,0176_ske_s07_0_bottle_00_bottle-0165-sketch-2.png
subject-07,1,177,0.513219118118286,knife,knife,0,0177_ske_s07_0_knife_00_knife-0046-sketch-5.png
subject-07,1,178,0.880970001220703,oven,oven,0,0178_ske_s07_0_oven_00_oven-0028-sketch-33.png
subject-07,1,179,1.02113318443298,keyboard,keyboard,0,0179_ske_s07_0_keyboard_00_keyboard-0088-sketch-41.png
subject-07,1,180,0.830483913421631,knife,knife,0,0180_ske_s07_0_knife_00_knife-0012-sketch-19.png
subject-07,1,181,0.692461013793945,chair,chair,0,0181_ske_s07_0_chair_00_chair-0083-sketch-37.png
subject-07,1,182,0.998362064361572,elephant,elephant,0,0182_ske_s07_0_elephant_00_elephant-0006-sketch-13.png
subject-07,1,183,0.674365997314453,airplane,airplane,0,0183_ske_s07_0_airplane_00_airplane-0015-sketch-21.png
subject-07,1,184,1.09187793731689,bicycle,bicycle,0,0184_ske_s07_0_bicycle_00_bicycle-0025-sketch-30.png
subject-07,1,185,0.679865837097168,cat,cat,0,0185_ske_s07_0_cat_00_cat-0021-sketch-27.png
subject-07,1,186,0.571506977081299,bicycle,bicycle,0,0186_ske_s07_0_bicycle_00_bicycle-0045-sketch-49.png
subject-07,1,187,0.825318098068237,bird,bird,0,0187_ske_s07_0_bird_00_bird-0749-sketch-4.png
subject-07,1,188,0.90693998336792,bird,bird,0,0188_ske_s07_0_bird_00_bird-2372-sketch-36.png
subject-07,1,189,0.989304780960083,dog,dog,0,0189_ske_s07_0_dog_00_dog-1657-sketch-38.png
subject-07,1,190,0.734879016876221,cat,cat,0,0190_ske_s07_0_cat_00_cat-0149-sketch-6.png
subject-07,1,191,0.510673046112061,clock,clock,0,0191_ske_s07_0_clock_00_clock-0022-sketch-28.png
subject-07,1,192,0.920331954956055,elephant,elephant,0,0192_ske_s07_0_elephant_00_elephant-0025-sketch-30.png
subject-07,1,193,0.916282176971436,elephant,elephant,0,0193_ske_s07_0_elephant_00_elephant-0075-sketch-3.png
subject-07,1,194,0.868092060089111,bear,bear,0,0194_ske_s07_0_bear_00_bear-0112-sketch-18.png
subject-07,1,195,1.03388094902039,boat,boat,0,0195_ske_s07_0_boat_00_boat-0125-sketch-29.png
subject-07,1,196,0.707520961761475,car,car,0,0196_ske_s07_0_car_00_car-0055-sketch-11.png
subject-07,1,197,1.29155516624451,bird,bird,0,0197_ske_s07_0_bird_00_bird-0748-sketch-39.png
subject-07,1,198,0.729396104812622,bird,bird,0,0198_ske_s07_0_bird_00_bird-0685-sketch-28.png
subject-07,1,199,1.16108298301697,bottle,bottle,0,0199_ske_s07_0_bottle_00_bottle-0050-sketch-9.png
subject-07,1,200,0.722815036773682,bicycle,bicycle,0,0200_ske_s07_0_bicycle_00_bicycle-0048-sketch-6.png
subject-07,1,201,0.696987152099609,airplane,airplane,0,0201_ske_s07_0_airplane_00_airplane-0036-sketch-40.png
subject-07,1,202,0.672369003295898,cat,cat,0,0202_ske_s07_0_cat_00_cat-0293-sketch-43.png
subject-07,1,203,0.560383081436157,cat,cat,0,0203_ske_s07_0_cat_00_cat-0175-sketch-29.png
subject-07,1,204,0.600139141082764,bicycle,bicycle,0,0204_ske_s07_0_bicycle_00_bicycle-0008-sketch-15.png
subject-07,1,205,0.78588080406189,bicycle,bicycle,0,0205_ske_s07_0_bicycle_00_bicycle-0004-sketch-11.png
subject-07,1,206,0.795699119567871,cat,cat,0,0206_ske_s07_0_cat_00_cat-0160-sketch-15.png
subject-07,1,207,0.961649894714355,bear,bear,0,0207_ske_s07_0_bear_00_bear-0117-sketch-22.png
subject-07,1,208,0.569516181945801,cat,cat,0,0208_ske_s07_0_cat_00_cat-0067-sketch-23.png
subject-07,1,209,0.883137941360474,oven,oven,0,0209_ske_s07_0_oven_00_oven-0044-sketch-48.png
subject-07,1,210,0.519201040267944,cat,cat,0,0210_ske_s07_0_cat_00_cat-0295-sketch-45.png
subject-07,1,211,0.528792858123779,oven,oven,0,0211_ske_s07_0_oven_00_oven-0023-sketch-29.png
subject-07,1,212,0.59688401222229,chair,chair,0,0212_ske_s07_0_chair_00_chair-0040-sketch-44.png
subject-07,1,213,0.628759145736694,knife,knife,0,0213_ske_s07_0_knife_00_knife-0017-sketch-23.png
subject-07,1,214,0.600334167480469,car,car,0,0214_ske_s07_0_car_00_car-0029-sketch-34.png
subject-07,1,215,0.626224994659424,chair,chair,0,0215_ske_s07_0_chair_00_chair-0072-sketch-27.png
subject-07,1,216,0.729804992675781,keyboard,keyboard,0,0216_ske_s07_0_keyboard_00_keyboard-0062-sketch-18.png
subject-07,1,217,0.801696062088013,cat,cat,0,0217_ske_s07_0_cat_00_cat-0011-sketch-18.png
subject-07,1,218,0.741326808929443,dog,dog,0,0218_ske_s07_0_dog_00_dog-1393-sketch-3.png
subject-07,1,219,0.745168924331665,chair,chair,0,0219_ske_s07_0_chair_00_chair-0013-sketch-2.png
subject-07,1,220,0.741207122802734,clock,clock,0,0220_ske_s07_0_clock_00_clock-0071-sketch-26.png
subject-07,1,221,0.764894962310791,bicycle,bicycle,0,0221_ske_s07_0_bicycle_00_bicycle-0094-sketch-47.png
subject-07,1,222,1.03662490844727,dog,dog,0,0222_ske_s07_0_dog_00_dog-5084-sketch-11.png
subject-07,1,223,0.63057804107666,keyboard,keyboard,0,0223_ske_s07_0_keyboard_00_keyboard-0045-sketch-49.png
subject-07,1,224,0.832586050033569,dog,dog,0,0224_ske_s07_0_dog_00_dog-2323-sketch-41.png
subject-07,1,225,0.982095003128052,dog,dog,0,0225_ske_s07_0_dog_00_dog-2150-sketch-22.png
subject-07,1,226,0.713973045349121,dog,dog,0,0226_ske_s07_0_dog_00_dog-4202-sketch-4.png
subject-07,1,227,0.667788028717041,chair,chair,0,0227_ske_s07_0_chair_00_chair-0060-sketch-16.png
subject-07,1,228,0.857584953308105,dog,dog,0,0228_ske_s07_0_dog_00_dog-1617-sketch-48.png
subject-07,1,229,0.719455003738403,bear,bear,0,0229_ske_s07_0_bear_00_bear-0171-sketch-25.png
subject-07,1,230,0.681453943252563,bicycle,bicycle,0,0230_ske_s07_0_bicycle_00_bicycle-0099-sketch-6.png
subject-07,1,231,1.16297197341919,car,truck,0,0231_ske_s07_0_truck_00_truck-0221-sketch-23.png
subject-07,1,232,0.673018932342529,keyboard,keyboard,0,0232_ske_s07_0_keyboard_00_keyboard-0023-sketch-29.png
subject-07,1,233,0.612748861312866,bicycle,bicycle,0,0233_ske_s07_0_bicycle_00_bicycle-0040-sketch-44.png
subject-07,1,234,NaN,na,dog,0,0234_ske_s07_0_dog_00_dog-2948-sketch-10.png
subject-07,1,235,1.20819711685181,bicycle,bicycle,0,0235_ske_s07_0_bicycle_00_bicycle-0095-sketch-48.png
subject-07,1,236,1.14802122116089,cat,cat,0,0236_ske_s07_0_cat_00_cat-0140-sketch-43.png
subject-07,1,237,0.519865989685059,clock,clock,0,0237_ske_s07_0_clock_00_clock-0144-sketch-46.png
subject-07,1,238,0.697912931442261,airplane,airplane,0,0238_ske_s07_0_airplane_00_airplane-0001-sketch-0.png
subject-07,1,239,1.31363296508789,bear,dog,0,0239_ske_s07_0_dog_00_dog-1973-sketch-47.png
subject-07,1,240,0.751485109329224,truck,truck,0,0240_ske_s07_0_truck_00_truck-0112-sketch-17.png
subject-07,1,241,0.645401954650879,oven,oven,0,0241_ske_s07_0_oven_00_oven-0010-sketch-17.png
subject-07,1,242,0.594992876052856,bottle,bottle,0,0242_ske_s07_0_bottle_00_bottle-0054-sketch-11.png
subject-07,1,243,0.586742877960205,oven,oven,0,0243_ske_s07_0_oven_00_oven-0018-sketch-24.png
subject-07,1,244,0.550704956054688,cat,cat,0,0244_ske_s07_0_cat_00_cat-0002-sketch-1.png
subject-07,1,245,0.524324893951416,airplane,airplane,0,0245_ske_s07_0_airplane_00_airplane-0049-sketch-7.png
subject-07,1,246,0.962368011474609,boat,boat,0,0246_ske_s07_0_boat_00_boat-0113-sketch-18.png
subject-07,1,247,0.486237049102783,oven,oven,0,0247_ske_s07_0_oven_00_oven-0012-sketch-19.png
subject-07,1,248,0.707850933074951,bottle,bottle,0,0248_ske_s07_0_bottle_00_bottle-0296-sketch-46.png
subject-07,1,249,0.611634969711304,bottle,bottle,0,0249_ske_s07_0_bottle_00_bottle-0321-sketch-22.png
subject-07,1,250,0.665536165237427,dog,dog,0,0250_ske_s07_0_dog_00_dog-3338-sketch-40.png
subject-07,1,251,0.597261190414429,keyboard,keyboard,0,0251_ske_s07_0_keyboard_00_keyboard-0039-sketch-43.png
subject-07,1,252,1.13911199569702,dog,cat,0,0252_ske_s07_0_cat_00_cat-0229-sketch-31.png
subject-07,1,253,0.484822034835815,airplane,airplane,0,0253_ske_s07_0_airplane_00_airplane-0048-sketch-6.png
subject-07,1,254,0.532812118530273,oven,oven,0,0254_ske_s07_0_oven_00_oven-0003-sketch-10.png
subject-07,1,255,1.23046803474426,cat,cat,0,0255_ske_s07_0_cat_00_cat-0260-sketch-13.png
subject-07,1,256,0.568387985229492,airplane,airplane,0,0256_ske_s07_0_airplane_00_airplane-0010-sketch-17.png
subject-07,1,257,0.922112941741943,truck,truck,0,0257_ske_s07_0_truck_00_truck-0385-sketch-33.png
subject-07,1,258,0.705931901931763,elephant,elephant,0,0258_ske_s07_0_elephant_00_elephant-0101-sketch-8.png
subject-07,1,259,0.777809143066406,bottle,bottle,0,0259_ske_s07_0_bottle_00_bottle-0090-sketch-44.png
subject-07,1,260,0.519654989242554,airplane,airplane,0,0260_ske_s07_0_airplane_00_airplane-0011-sketch-18.png
subject-07,1,261,0.663402080535889,car,car,0,0261_ske_s07_0_car_00_car-0024-sketch-3.png
subject-07,1,262,0.703106880187988,keyboard,keyboard,0,0262_ske_s07_0_keyboard_00_keyboard-0071-sketch-26.png
subject-07,1,263,0.635033130645752,car,car,0,0263_ske_s07_0_car_00_car-0032-sketch-37.png
subject-07,1,264,0.904922962188721,car,car,0,0264_ske_s07_0_car_00_car-0040-sketch-44.png
subject-07,1,265,0.608739137649536,chair,chair,0,0265_ske_s07_0_chair_00_chair-0079-sketch-33.png
subject-07,1,266,0.978821992874146,dog,dog,0,0266_ske_s07_0_dog_00_dog-2615-sketch-3.png
subject-07,1,267,0.57414698600769,airplane,airplane,0,0267_ske_s07_0_airplane_00_airplane-0030-sketch-35.png
subject-07,1,268,0.919985055923462,oven,oven,0,0268_ske_s07_0_oven_00_oven-0046-sketch-5.png
subject-07,1,269,0.681852102279663,dog,dog,0,0269_ske_s07_0_dog_00_dog-2454-sketch-21.png
subject-07,1,270,0.528371095657349,keyboard,keyboard,0,0270_ske_s07_0_keyboard_00_keyboard-0041-sketch-45.png
subject-07,1,271,0.741611003875732,knife,knife,0,0271_ske_s07_0_knife_00_knife-0039-sketch-43.png
subject-07,1,272,1.48524212837219,airplane,airplane,0,0272_ske_s07_0_airplane_00_airplane-0017-sketch-23.png
subject-07,1,273,0.737407207489014,airplane,airplane,0,0273_ske_s07_0_airplane_00_airplane-0051-sketch-9.png
subject-07,1,274,0.620959043502808,car,car,0,0274_ske_s07_0_car_00_car-0013-sketch-2.png
subject-07,1,275,0.708665132522583,knife,knife,0,0275_ske_s07_0_knife_00_knife-0036-sketch-40.png
subject-07,1,276,0.702611923217773,boat,boat,0,0276_ske_s07_0_boat_00_boat-0099-sketch-6.png
subject-07,1,277,0.588421106338501,keyboard,keyboard,0,0277_ske_s07_0_keyboard_00_keyboard-0064-sketch-2.png
subject-07,1,278,0.830434083938599,elephant,elephant,0,0278_ske_s07_0_elephant_00_elephant-0021-sketch-27.png
subject-07,1,279,0.717957019805908,bicycle,bicycle,0,0279_ske_s07_0_bicycle_00_bicycle-0078-sketch-32.png
subject-07,1,280,0.703726053237915,truck,truck,0,0280_ske_s07_0_truck_00_truck-0075-sketch-3.png
subject-07,1,281,1.41951894760132,elephant,elephant,0,0281_ske_s07_0_elephant_00_elephant-0082-sketch-36.png
subject-07,1,282,1.04762005805969,bird,bird,0,0282_ske_s07_0_bird_00_bird-0357-sketch-9.png
subject-07,1,283,0.887526988983154,oven,oven,0,0283_ske_s07_0_oven_00_oven-0024-sketch-3.png
subject-07,1,284,1.08118009567261,boat,boat,0,0284_ske_s07_0_boat_00_boat-0253-sketch-7.png
subject-07,1,285,0.703058958053589,keyboard,keyboard,0,0285_ske_s07_0_keyboard_00_keyboard-0006-sketch-13.png
subject-07,1,286,0.554727077484131,truck,truck,0,0286_ske_s07_0_truck_00_truck-0076-sketch-30.png
subject-07,1,287,1.32463693618774,bear,bear,0,0287_ske_s07_0_bear_00_bear-0103-sketch-1.png
subject-07,1,288,0.53026008605957,airplane,airplane,0,0288_ske_s07_0_airplane_00_airplane-0032-sketch-37.png
subject-07,1,289,0.656070947647095,keyboard,keyboard,0,0289_ske_s07_0_keyboard_00_keyboard-0008-sketch-15.png
subject-07,1,290,0.584388017654419,truck,truck,0,0290_ske_s07_0_truck_00_truck-0307-sketch-0.png
subject-07,1,291,0.749886989593506,clock,clock,0,0291_ske_s07_0_clock_00_clock-0074-sketch-29.png
subject-07,1,292,1.00350403785706,bird,bird,0,0292_ske_s07_0_bird_00_bird-1033-sketch-20.png
subject-07,1,293,0.781259059906006,bear,bear,0,0293_ske_s07_0_bear_00_bear-0079-sketch-34.png
subject-07,1,294,1.02941203117371,bird,bird,0,0294_ske_s07_0_bird_00_bird-0047-sketch-50.png
subject-07,1,295,0.716922998428345,bicycle,bicycle,0,0295_ske_s07_0_bicycle_00_bicycle-0087-sketch-40.png
subject-07,1,296,0.66472601890564,knife,knife,0,0296_ske_s07_0_knife_00_knife-0022-sketch-28.png
subject-07,1,297,0.872584104537964,keyboard,keyboard,0,0297_ske_s07_0_keyboard_00_keyboard-0059-sketch-15.png
subject-07,1,298,0.790478944778442,bottle,bottle,0,0298_ske_s07_0_bottle_00_bottle-0237-sketch-39.png
subject-07,1,299,0.73637318611145,bird,bird,0,0299_ske_s07_0_bird_00_bird-0646-sketch-39.png
subject-07,1,300,0.679929971694946,clock,clock,0,0300_ske_s07_0_clock_00_clock-0099-sketch-6.png
subject-07,1,301,0.583978176116943,keyboard,keyboard,0,0301_ske_s07_0_keyboard_00_keyboard-0034-sketch-39.png
subject-07,1,302,0.689848899841309,knife,knife,0,0302_ske_s07_0_knife_00_knife-0023-sketch-29.png
subject-07,1,303,0.80174994468689,bicycle,bicycle,0,0303_ske_s07_0_bicycle_00_bicycle-0070-sketch-25.png
subject-07,1,304,0.853209018707275,boat,boat,0,0304_ske_s07_0_boat_00_boat-0228-sketch-3.png
subject-07,1,305,0.527254104614258,airplane,airplane,0,0305_ske_s07_0_airplane_00_airplane-0004-sketch-11.png
subject-07,1,306,0.564743995666504,boat,boat,0,0306_ske_s07_0_boat_00_boat-0002-sketch-1.png
subject-07,1,307,0.706761121749878,elephant,elephant,0,0307_ske_s07_0_elephant_00_elephant-0030-sketch-35.png
subject-07,1,308,0.868644952774048,bottle,bottle,0,0308_ske_s07_0_bottle_00_bottle-0245-sketch-46.png
subject-07,1,309,0.548359870910645,clock,clock,0,0309_ske_s07_0_clock_00_clock-0005-sketch-12.png
subject-07,1,310,0.798326015472412,car,car,0,0310_ske_s07_0_car_00_car-0139-sketch-41.png
subject-07,1,311,0.59398078918457,chair,chair,0,0311_ske_s07_0_chair_00_chair-0105-sketch-11.png
subject-07,1,312,0.576077938079834,bicycle,bicycle,0,0312_ske_s07_0_bicycle_00_bicycle-0013-sketch-2.png
subject-07,1,313,0.53161096572876,oven,oven,0,0313_ske_s07_0_oven_00_oven-0042-sketch-46.png
subject-07,1,314,0.533377885818481,keyboard,keyboard,0,0314_ske_s07_0_keyboard_00_keyboard-0017-sketch-23.png
subject-07,1,315,1.05729579925537,chair,chair,0,0315_ske_s07_0_chair_00_chair-0153-sketch-0.png
subject-07,1,316,0.95912504196167,cat,cat,0,0316_ske_s07_0_cat_00_cat-0027-sketch-32.png
subject-07,1,317,0.624885082244873,dog,dog,0,0317_ske_s07_0_dog_00_dog-3695-sketch-40.png
subject-07,1,318,0.736571788787842,bottle,bottle,0,0318_ske_s07_0_bottle_00_bottle-0145-sketch-48.png
subject-07,1,319,0.63442587852478,truck,truck,0,0319_ske_s07_0_truck_00_truck-0167-sketch-20.png
subject-07,1,320,1.08621287345886,bicycle,bicycle,0,0320_ske_s07_0_bicycle_00_bicycle-0101-sketch-8.png
subject-07,1,321,0.514098167419434,clock,clock,0,0321_ske_s07_0_clock_00_clock-0092-sketch-45.png
subject-07,1,322,0.765933990478516,bear,bear,0,0322_ske_s07_0_bear_00_bear-0048-sketch-7.png
subject-07,1,323,0.745702981948853,truck,truck,0,0323_ske_s07_0_truck_00_truck-0232-sketch-33.png
subject-07,1,324,0.561583042144775,boat,boat,0,0324_ske_s07_0_boat_00_boat-0234-sketch-35.png
subject-07,1,325,0.643448114395142,boat,boat,0,0325_ske_s07_0_boat_00_boat-0194-sketch-45.png
subject-07,1,326,0.711071014404297,car,truck,0,0326_ske_s07_0_truck_00_truck-0289-sketch-39.png
subject-07,1,327,0.709022045135498,airplane,airplane,0,0327_ske_s07_0_airplane_00_airplane-0037-sketch-41.png
subject-07,1,328,0.647018909454346,bicycle,bicycle,0,0328_ske_s07_0_bicycle_00_bicycle-0003-sketch-10.png
subject-07,1,329,0.87699294090271,knife,knife,0,0329_ske_s07_0_knife_00_knife-0050-sketch-8.png
subject-07,1,330,0.664397954940796,elephant,elephant,0,0330_ske_s07_0_elephant_00_elephant-0020-sketch-26.png
subject-07,1,331,1.21233797073364,chair,chair,0,0331_ske_s07_0_chair_00_chair-0011-sketch-18.png
subject-07,1,332,0.644205093383789,knife,knife,0,0332_ske_s07_0_knife_00_knife-0015-sketch-21.png
subject-07,1,333,0.716204166412354,bottle,bottle,0,0333_ske_s07_0_bottle_00_bottle-0150-sketch-7.png
subject-07,1,334,0.80769419670105,bird,bird,0,0334_ske_s07_0_bird_00_bird-0809-sketch-48.png
subject-07,1,335,0.515505075454712,clock,clock,0,0335_ske_s07_0_clock_00_clock-0110-sketch-15.png
subject-07,1,336,0.817454099655151,dog,dog,0,0336_ske_s07_0_dog_00_dog-4709-sketch-4.png
subject-07,1,337,0.741466999053955,bird,bird,0,0337_ske_s07_0_bird_00_bird-2313-sketch-28.png
subject-07,1,338,0.916991949081421,dog,dog,0,0338_ske_s07_0_dog_00_dog-0630-sketch-28.png
subject-07,1,339,0.946730136871338,boat,boat,0,0339_ske_s07_0_boat_00_boat-0001-sketch-0.png
subject-07,1,340,0.60092306137085,bear,bear,0,0340_ske_s07_0_bear_00_bear-0136-sketch-4.png
subject-07,1,341,0.794416189193726,bicycle,bicycle,0,0341_ske_s07_0_bicycle_00_bicycle-0026-sketch-31.png
subject-07,1,342,0.844306945800781,dog,dog,0,0342_ske_s07_0_dog_00_dog-4909-sketch-37.png
subject-07,1,343,0.597965002059937,bottle,bottle,0,0343_ske_s07_0_bottle_00_bottle-0030-sketch-35.png
subject-07,1,344,0.571965217590332,clock,clock,0,0344_ske_s07_0_clock_00_clock-0078-sketch-32.png
subject-07,1,345,0.507811069488525,clock,clock,0,0345_ske_s07_0_clock_00_clock-0077-sketch-31.png
subject-07,1,346,1.15353202819824,bird,bird,0,0346_ske_s07_0_bird_00_bird-1860-sketch-33.png
subject-07,1,347,0.731616973876953,knife,knife,0,0347_ske_s07_0_knife_00_knife-0029-sketch-34.png
subject-07,1,348,0.753443956375122,clock,chair,0,0348_ske_s07_0_chair_00_chair-0180-sketch-33.png
subject-07,1,349,0.861282110214233,knife,knife,0,0349_ske_s07_0_knife_00_knife-0019-sketch-25.png
subject-07,1,350,0.776660919189453,bird,bird,0,0350_ske_s07_0_bird_00_bird-0491-sketch-37.png
subject-07,1,351,0.684441089630127,bird,bird,0,0351_ske_s07_0_bird_00_bird-0640-sketch-33.png
subject-07,1,352,0.542370080947876,keyboard,keyboard,0,0352_ske_s07_0_keyboard_00_keyboard-0074-sketch-29.png
subject-07,1,353,0.726401090621948,elephant,elephant,0,0353_ske_s07_0_elephant_00_elephant-0039-sketch-43.png
subject-07,1,354,0.497915983200073,boat,boat,0,0354_ske_s07_0_boat_00_boat-0173-sketch-26.png
subject-07,1,355,0.473835945129395,oven,oven,0,0355_ske_s07_0_oven_00_oven-0019-sketch-25.png
subject-07,1,356,0.799499034881592,bird,bird,0,0356_ske_s07_0_bird_00_bird-2312-sketch-27.png
subject-07,1,357,0.715384006500244,cat,cat,0,0357_ske_s07_0_cat_00_cat-0015-sketch-21.png
subject-07,1,358,0.545238971710205,elephant,elephant,0,0358_ske_s07_0_elephant_00_elephant-0077-sketch-31.png
subject-07,1,359,0.539124965667725,elephant,elephant,0,0359_ske_s07_0_elephant_00_elephant-0055-sketch-11.png
subject-07,1,360,0.684937000274658,keyboard,keyboard,0,0360_ske_s07_0_keyboard_00_keyboard-0031-sketch-36.png
subject-07,1,361,0.740806102752686,knife,knife,0,0361_ske_s07_0_knife_00_knife-0038-sketch-42.png
subject-07,1,362,0.770843029022217,bottle,bottle,0,0362_ske_s07_0_bottle_00_bottle-0086-sketch-40.png
subject-07,1,363,0.656256914138794,elephant,elephant,0,0363_ske_s07_0_elephant_00_elephant-0071-sketch-26.png
subject-07,1,364,0.654314994812012,chair,chair,0,0364_ske_s07_0_chair_00_chair-0145-sketch-48.png
subject-07,1,365,0.606132984161377,bird,bird,0,0365_ske_s07_0_bird_00_bird-0474-sketch-21.png
subject-07,1,366,0.54564905166626,keyboard,keyboard,0,0366_ske_s07_0_keyboard_00_keyboard-0037-sketch-41.png
subject-07,1,367,0.733493089675903,dog,dog,0,0367_ske_s07_0_dog_00_dog-3646-sketch-42.png
subject-07,1,368,0.601269006729126,oven,oven,0,0368_ske_s07_0_oven_00_oven-0041-sketch-45.png
subject-07,1,369,1.04519391059875,keyboard,keyboard,0,0369_ske_s07_0_keyboard_00_keyboard-0086-sketch-4.png
subject-07,1,370,0.765039920806885,elephant,elephant,0,0370_ske_s07_0_elephant_00_elephant-0094-sketch-47.png
subject-07,1,371,0.660640954971313,boat,boat,0,0371_ske_s07_0_boat_00_boat-0212-sketch-15.png
subject-07,1,372,0.774667024612427,chair,chair,0,0372_ske_s07_0_chair_00_chair-0178-sketch-31.png
subject-07,1,373,0.800538063049316,bear,bear,0,0373_ske_s07_0_bear_00_bear-0070-sketch-26.png
subject-07,1,374,0.638120174407959,boat,boat,0,0374_ske_s07_0_boat_00_boat-0010-sketch-17.png
subject-07,1,375,0.820008993148804,bird,bird,0,0375_ske_s07_0_bird_00_bird-0939-sketch-27.png
subject-07,1,376,0.775743007659912,truck,truck,0,0376_ske_s07_0_truck_00_truck-0079-sketch-33.png
subject-07,1,377,0.703727960586548,car,car,0,0377_ske_s07_0_car_00_car-0076-sketch-30.png
subject-07,1,378,0.713592052459717,truck,truck,0,0378_ske_s07_0_truck_00_truck-0034-sketch-39.png
subject-07,1,379,0.645126104354858,boat,boat,0,0379_ske_s07_0_boat_00_boat-0124-sketch-28.png
subject-07,1,380,0.883126020431519,elephant,elephant,0,0380_ske_s07_0_elephant_00_elephant-0014-sketch-20.png
subject-07,1,381,1.16692686080933,clock,bear,0,0381_ske_s07_0_bear_00_bear-0201-sketch-7.png
subject-07,1,382,0.567048072814941,chair,chair,0,0382_ske_s07_0_chair_00_chair-0052-sketch-0.png
subject-07,1,383,0.564586877822876,keyboard,keyboard,0,0383_ske_s07_0_keyboard_00_keyboard-0068-sketch-23.png
subject-07,1,384,1.23844504356384,car,truck,0,0384_ske_s07_0_truck_00_truck-0303-sketch-6.png
subject-07,1,385,1.00403499603271,car,car,0,0385_ske_s07_0_car_00_car-0044-sketch-48.png
subject-07,1,386,1.09008693695068,bear,bear,0,0386_ske_s07_0_bear_00_bear-0188-sketch-40.png
subject-07,1,387,1.41599988937378,truck,truck,0,0387_ske_s07_0_truck_00_truck-0368-sketch-18.png
subject-07,1,388,0.577683925628662,boat,boat,0,0388_ske_s07_0_boat_00_boat-0034-sketch-39.png
subject-07,1,389,1.05549001693726,truck,car,0,0389_ske_s07_0_car_00_car-0050-sketch-8.png
subject-07,1,390,1.12117099761963,oven,oven,0,0390_ske_s07_0_oven_00_oven-0037-sketch-41.png
subject-07,1,391,1.17712092399597,keyboard,keyboard,0,0391_ske_s07_0_keyboard_00_keyboard-0085-sketch-39.png
subject-07,1,392,1.00266790390015,bicycle,bicycle,0,0392_ske_s07_0_bicycle_00_bicycle-0056-sketch-12.png
subject-07,1,393,0.906883001327515,knife,knife,0,0393_ske_s07_0_knife_00_knife-0051-sketch-9.png
subject-07,1,394,1.43244099617004,oven,oven,0,0394_ske_s07_0_oven_00_oven-0009-sketch-16.png
subject-07,1,395,0.686172008514404,keyboard,keyboard,0,0395_ske_s07_0_keyboard_00_keyboard-0043-sketch-47.png
subject-07,1,396,0.582051038742065,clock,clock,0,0396_ske_s07_0_clock_00_clock-0030-sketch-35.png
subject-07,1,397,0.697876214981079,bottle,bottle,0,0397_ske_s07_0_bottle_00_bottle-0184-sketch-37.png
subject-07,1,398,0.565664052963257,airplane,airplane,0,0398_ske_s07_0_airplane_00_airplane-0013-sketch-2.png
subject-07,1,399,0.813411951065063,clock,clock,0,0399_ske_s07_0_clock_00_clock-0137-sketch-4.png
subject-07,1,400,0.635324001312256,bear,bear,0,0400_ske_s07_0_bear_00_bear-0053-sketch-10.png
subject-07,1,401,1.25547909736633,car,boat,0,0401_ske_s07_0_boat_00_boat-0178-sketch-30.png
subject-07,1,402,0.831179857254028,car,truck,0,0402_ske_s07_0_truck_00_truck-0302-sketch-50.png
subject-07,1,403,0.696773052215576,elephant,elephant,0,0403_ske_s07_0_elephant_00_elephant-0019-sketch-25.png
subject-07,1,404,0.646580934524536,bicycle,bicycle,0,0404_ske_s07_0_bicycle_00_bicycle-0053-sketch-1.png
subject-07,1,405,0.720328092575073,elephant,elephant,0,0405_ske_s07_0_elephant_00_elephant-0011-sketch-18.png
subject-07,1,406,0.642395973205566,knife,knife,0,0406_ske_s07_0_knife_00_knife-0007-sketch-14.png
subject-07,1,407,0.743906021118164,keyboard,keyboard,0,0407_ske_s07_0_keyboard_00_keyboard-0047-sketch-50.png
subject-07,1,408,0.905720949172974,bird,bird,0,0408_ske_s07_0_bird_00_bird-1756-sketch-31.png
subject-07,1,409,0.519662141799927,knife,knife,0,0409_ske_s07_0_knife_00_knife-0005-sketch-12.png
subject-07,1,410,0.839476108551025,elephant,elephant,0,0410_ske_s07_0_elephant_00_elephant-0033-sketch-38.png
subject-07,1,411,0.595362901687622,elephant,elephant,0,0411_ske_s07_0_elephant_00_elephant-0022-sketch-28.png
subject-07,1,412,0.797370195388794,oven,oven,0,0412_ske_s07_0_oven_00_oven-0008-sketch-15.png
subject-07,1,413,0.616736173629761,elephant,elephant,0,0413_ske_s07_0_elephant_00_elephant-0028-sketch-33.png
subject-07,1,414,0.694549083709717,chair,chair,0,0414_ske_s07_0_chair_00_chair-0029-sketch-34.png
subject-07,1,415,0.926469802856445,knife,knife,0,0415_ske_s07_0_knife_00_knife-0010-sketch-17.png
subject-07,1,416,0.72226881980896,car,truck,0,0416_ske_s07_0_truck_00_truck-0266-sketch-18.png
subject-07,1,417,0.732069969177246,chair,chair,0,0417_ske_s07_0_chair_00_chair-0131-sketch-35.png
subject-07,1,418,1.15775585174561,bottle,bottle,0,0418_ske_s07_0_bottle_00_bottle-0002-sketch-1.png
subject-07,1,419,0.95609712600708,oven,oven,0,0419_ske_s07_0_oven_00_oven-0038-sketch-42.png
subject-07,1,420,0.947915077209473,dog,dog,0,0420_ske_s07_0_dog_00_dog-1460-sketch-44.png
subject-07,1,421,0.71736216545105,boat,boat,0,0421_ske_s07_0_boat_00_boat-0070-sketch-25.png
subject-07,1,422,0.673156023025513,car,car,0,0422_ske_s07_0_car_00_car-0120-sketch-24.png
subject-07,1,423,0.557301044464111,clock,clock,0,0423_ske_s07_0_clock_00_clock-0115-sketch-2.png
subject-07,1,424,0.628943920135498,keyboard,keyboard,0,0424_ske_s07_0_keyboard_00_keyboard-0005-sketch-12.png
subject-07,1,425,0.676604032516479,bird,bird,0,0425_ske_s07_0_bird_00_bird-1740-sketch-17.png
subject-07,1,426,0.902337074279785,oven,oven,0,0426_ske_s07_0_oven_00_oven-0007-sketch-14.png
subject-07,1,427,0.53425407409668,truck,truck,0,0427_ske_s07_0_truck_00_truck-0386-sketch-34.png
subject-07,1,428,0.805922985076904,elephant,elephant,0,0428_ske_s07_0_elephant_00_elephant-0050-sketch-8.png
subject-07,1,429,0.741897106170654,bottle,bottle,0,0429_ske_s07_0_bottle_00_bottle-0292-sketch-42.png
subject-07,1,430,0.621522903442383,car,car,0,0430_ske_s07_0_car_00_car-0064-sketch-2.png
subject-07,1,431,0.605552911758423,oven,oven,0,0431_ske_s07_0_oven_00_oven-0048-sketch-6.png
subject-07,1,432,0.537353038787842,airplane,airplane,0,0432_ske_s07_0_airplane_00_airplane-0034-sketch-39.png
subject-07,1,433,0.81508207321167,knife,knife,0,0433_ske_s07_0_knife_00_knife-0034-sketch-39.png
subject-07,1,434,0.775202989578247,knife,knife,0,0434_ske_s07_0_knife_00_knife-0048-sketch-6.png
subject-07,1,435,0.596764087677002,knife,knife,0,0435_ske_s07_0_knife_00_knife-0020-sketch-26.png
subject-07,1,436,0.536581993103027,chair,chair,0,0436_ske_s07_0_chair_00_chair-0076-sketch-30.png
subject-07,1,437,1.00643515586853,bird,bird,0,0437_ske_s07_0_bird_00_bird-0694-sketch-36.png
subject-07,1,438,0.65216588973999,boat,boat,0,0438_ske_s07_0_boat_00_boat-0059-sketch-15.png
subject-07,1,439,0.560030937194824,bear,bear,0,0439_ske_s07_0_bear_00_bear-0081-sketch-36.png
subject-07,1,440,0.569717884063721,chair,chair,0,0440_ske_s07_0_chair_00_chair-0129-sketch-33.png
subject-07,1,441,1.10550093650818,truck,dog,0,0441_ske_s07_0_dog_00_dog-3153-sketch-11.png
subject-07,1,442,NaN,na,bicycle,0,0442_ske_s07_0_bicycle_00_bicycle-0098-sketch-50.png
subject-07,1,443,0.695415019989014,car,car,0,0443_ske_s07_0_car_00_car-0114-sketch-19.png
subject-07,1,444,1.26751399040222,bottle,bottle,0,0444_ske_s07_0_bottle_00_bottle-0202-sketch-8.png
subject-07,1,445,0.678821086883545,bird,bird,0,0445_ske_s07_0_bird_00_bird-0228-sketch-3.png
subject-07,1,446,0.726652145385742,oven,oven,0,0446_ske_s07_0_oven_00_oven-0026-sketch-31.png
subject-07,1,447,0.630461931228638,bicycle,bicycle,0,0447_ske_s07_0_bicycle_00_bicycle-0057-sketch-13.png
subject-07,1,448,0.760164022445679,bicycle,bicycle,0,0448_ske_s07_0_bicycle_00_bicycle-0084-sketch-38.png
subject-07,1,449,0.647950172424316,bicycle,bicycle,0,0449_ske_s07_0_bicycle_00_bicycle-0071-sketch-26.png
subject-07,1,450,0.599790096282959,chair,chair,0,0450_ske_s07_0_chair_00_chair-0066-sketch-21.png
subject-07,1,451,0.609847068786621,bicycle,bicycle,0,0451_ske_s07_0_bicycle_00_bicycle-0075-sketch-3.png
subject-07,1,452,0.811455011367798,bird,bird,0,0452_ske_s07_0_bird_00_bird-1565-sketch-43.png
subject-07,1,453,0.741256952285767,bird,boat,0,0453_ske_s07_0_boat_00_boat-0132-sketch-35.png
subject-07,1,454,1.48931503295898,clock,clock,0,0454_ske_s07_0_clock_00_clock-0046-sketch-5.png
subject-07,1,455,0.512963056564331,boat,boat,0,0455_ske_s07_0_boat_00_boat-0128-sketch-31.png
subject-07,1,456,1.04271602630615,knife,knife,0,0456_ske_s07_0_knife_00_knife-0044-sketch-48.png
subject-07,1,457,0.541003942489624,airplane,airplane,0,0457_ske_s07_0_airplane_00_airplane-0031-sketch-36.png
subject-07,1,458,1.50006794929504,bird,bird,0,0458_ske_s07_0_bird_00_bird-0316-sketch-17.png
subject-07,1,459,1.06821489334106,bird,bird,0,0459_ske_s07_0_bird_00_bird-0072-sketch-27.png
subject-07,1,460,0.634048938751221,knife,knife,0,0460_ske_s07_0_knife_00_knife-0031-sketch-36.png
subject-07,1,461,0.761659145355225,knife,knife,0,0461_ske_s07_0_knife_00_knife-0014-sketch-20.png
subject-07,1,462,0.681828022003174,car,car,0,0462_ske_s07_0_car_00_car-0122-sketch-26.png
subject-07,1,463,0.717412948608398,bird,bird,0,0463_ske_s07_0_bird_00_bird-0834-sketch-24.png
subject-07,1,464,0.781142950057983,cat,cat,0,0464_ske_s07_0_cat_00_cat-0251-sketch-6.png
subject-07,1,465,0.593448877334595,bear,bear,0,0465_ske_s07_0_bear_00_bear-0148-sketch-50.png
subject-07,1,466,0.558933019638062,bicycle,bicycle,0,0466_ske_s07_0_bicycle_00_bicycle-0102-sketch-9.png
subject-07,1,467,0.612612962722778,airplane,airplane,0,0467_ske_s07_0_airplane_00_airplane-0025-sketch-30.png
subject-07,1,468,0.754410982131958,airplane,airplane,0,0468_ske_s07_0_airplane_00_airplane-0002-sketch-1.png
subject-07,1,469,0.564234018325806,boat,boat,0,0469_ske_s07_0_boat_00_boat-0065-sketch-20.png
subject-07,1,470,0.630163192749023,oven,oven,0,0470_ske_s07_0_oven_00_oven-0006-sketch-13.png
subject-07,1,471,0.592321872711182,clock,clock,0,0471_ske_s07_0_clock_00_clock-0017-sketch-23.png
subject-07,1,472,0.845671892166138,dog,dog,0,0472_ske_s07_0_dog_00_dog-3503-sketch-6.png
subject-07,1,473,0.547868013381958,oven,oven,0,0473_ske_s07_0_oven_00_oven-0025-sketch-30.png
subject-07,1,474,0.58749794960022,oven,oven,0,0474_ske_s07_0_oven_00_oven-0002-sketch-1.png
subject-07,1,475,1.21545505523682,oven,truck,0,0475_ske_s07_0_truck_00_truck-0196-sketch-47.png
subject-07,1,476,0.675191879272461,elephant,elephant,0,0476_ske_s07_0_elephant_00_elephant-0047-sketch-50.png
subject-07,1,477,0.996831178665161,bird,bird,0,0477_ske_s07_0_bird_00_bird-1096-sketch-31.png
subject-07,1,478,0.96859884262085,keyboard,keyboard,0,0478_ske_s07_0_keyboard_00_keyboard-0029-sketch-34.png
subject-07,1,479,0.622497081756592,airplane,airplane,0,0479_ske_s07_0_airplane_00_airplane-0019-sketch-25.png
subject-07,1,480,0.688263893127441,airplane,airplane,0,0480_ske_s07_0_airplane_00_airplane-0009-sketch-16.png
subject-07,1,481,0.572367191314697,oven,oven,0,0481_ske_s07_0_oven_00_oven-0039-sketch-43.png
subject-07,1,482,0.648043870925903,cat,cat,0,0482_ske_s07_0_cat_00_cat-0207-sketch-11.png
subject-07,1,483,0.599985122680664,keyboard,keyboard,0,0483_ske_s07_0_keyboard_00_keyboard-0026-sketch-31.png
subject-07,1,484,0.721760988235474,oven,oven,0,0484_ske_s07_0_oven_00_oven-0014-sketch-20.png
subject-07,1,485,0.605736970901489,elephant,elephant,0,0485_ske_s07_0_elephant_00_elephant-0029-sketch-34.png
subject-07,1,486,1.03532195091248,bear,dog,0,0486_ske_s07_0_dog_00_dog-3573-sketch-22.png
subject-07,1,487,0.685161113739014,keyboard,keyboard,0,0487_ske_s07_0_keyboard_00_keyboard-0049-sketch-7.png
subject-07,1,488,0.631402969360352,elephant,elephant,0,0488_ske_s07_0_elephant_00_elephant-0002-sketch-1.png
subject-07,1,489,0.724841117858887,bear,bear,0,0489_ske_s07_0_bear_00_bear-0038-sketch-42.png
subject-07,1,490,0.860596895217896,truck,car,0,0490_ske_s07_0_car_00_car-0002-sketch-1.png
subject-07,1,491,0.662517070770264,clock,clock,0,0491_ske_s07_0_clock_00_clock-0035-sketch-4.png
subject-07,1,492,0.574651002883911,bottle,bottle,0,0492_ske_s07_0_bottle_00_bottle-0038-sketch-42.png
subject-07,1,493,0.841989994049072,bird,bird,0,0493_ske_s07_0_bird_00_bird-0415-sketch-14.png
subject-07,1,494,0.693834066390991,chair,chair,0,0494_ske_s07_0_chair_00_chair-0064-sketch-2.png
subject-07,1,495,0.887783050537109,cat,cat,0,0495_ske_s07_0_cat_00_cat-0124-sketch-29.png
subject-07,1,496,0.527591943740845,clock,clock,0,0496_ske_s07_0_clock_00_clock-0057-sketch-13.png
subject-07,1,497,0.533368825912476,clock,clock,0,0497_ske_s07_0_clock_00_clock-0069-sketch-24.png
subject-07,1,498,0.51910400390625,oven,oven,0,0498_ske_s07_0_oven_00_oven-0020-sketch-26.png
subject-07,1,499,0.582810163497925,truck,truck,0,0499_ske_s07_0_truck_00_truck-0007-sketch-14.png
subject-07,1,500,0.712848901748657,boat,boat,0,0500_ske_s07_0_boat_00_boat-0180-sketch-32.png
subject-07,1,501,1.000981092453,bird,bird,0,0501_ske_s07_0_bird_00_bird-0384-sketch-32.png
subject-07,1,502,0.628353118896484,airplane,airplane,0,0502_ske_s07_0_airplane_00_airplane-0033-sketch-38.png
subject-07,1,503,0.656071901321411,airplane,airplane,0,0503_ske_s07_0_airplane_00_airplane-0016-sketch-22.png
subject-07,1,504,0.705970048904419,bear,bear,0,0504_ske_s07_0_bear_00_bear-0086-sketch-40.png
subject-07,1,505,0.781899929046631,car,truck,0,0505_ske_s07_0_truck_00_truck-0131-sketch-34.png
subject-07,1,506,0.639589071273804,car,truck,0,0506_ske_s07_0_truck_00_truck-0244-sketch-44.png
subject-07,1,507,0.727845191955566,bird,bird,0,0507_ske_s07_0_bird_00_bird-0578-sketch-23.png
subject-07,1,508,0.787230968475342,car,car,0,0508_ske_s07_0_car_00_car-0136-sketch-39.png
subject-07,1,509,0.982919931411743,bear,bear,0,0509_ske_s07_0_bear_00_bear-0036-sketch-40.png
subject-07,1,510,0.608788013458252,chair,chair,0,0510_ske_s07_0_chair_00_chair-0071-sketch-26.png
subject-07,1,511,1.15455293655396,truck,chair,0,0511_ske_s07_0_chair_00_chair-0002-sketch-1.png
subject-07,1,512,0.694463968276978,bicycle,bicycle,0,0512_ske_s07_0_bicycle_00_bicycle-0060-sketch-16.png
subject-07,1,513,0.564727067947388,bicycle,bicycle,0,0513_ske_s07_0_bicycle_00_bicycle-0062-sketch-18.png
subject-07,1,514,0.644134044647217,boat,boat,0,0514_ske_s07_0_boat_00_boat-0110-sketch-15.png
subject-07,1,515,0.603924036026001,bear,bear,0,0515_ske_s07_0_bear_00_bear-0026-sketch-31.png
subject-07,1,516,0.70783519744873,elephant,elephant,0,0516_ske_s07_0_elephant_00_elephant-0076-sketch-30.png
subject-07,1,517,1.01581716537476,oven,oven,0,0517_ske_s07_0_oven_00_oven-0031-sketch-36.png
subject-07,1,518,0.553388833999634,oven,oven,0,0518_ske_s07_0_oven_00_oven-0047-sketch-50.png
subject-07,1,519,0.883123874664307,bird,bird,0,0519_ske_s07_0_bird_00_bird-2010-sketch-30.png
subject-07,1,520,0.564836978912354,knife,knife,0,0520_ske_s07_0_knife_00_knife-0016-sketch-22.png
subject-07,1,521,1.00472283363342,bird,bird,0,0521_ske_s07_0_bird_00_bird-0954-sketch-40.png
subject-07,1,522,0.790489912033081,keyboard,keyboard,0,0522_ske_s07_0_keyboard_00_keyboard-0087-sketch-40.png
subject-07,1,523,0.690799951553345,clock,clock,0,0523_ske_s07_0_clock_00_clock-0021-sketch-27.png
subject-07,1,524,0.556133031845093,knife,knife,0,0524_ske_s07_0_knife_00_knife-0043-sketch-47.png
subject-07,1,525,0.65604305267334,keyboard,keyboard,0,0525_ske_s07_0_keyboard_00_keyboard-0004-sketch-11.png
subject-07,1,526,0.660140991210938,clock,clock,0,0526_ske_s07_0_clock_00_clock-0150-sketch-6.png
subject-07,1,527,0.653747081756592,clock,clock,0,0527_ske_s07_0_clock_00_clock-0073-sketch-28.png
subject-07,1,528,1.04751300811768,airplane,airplane,0,0528_ske_s07_0_airplane_00_airplane-0005-sketch-12.png
subject-07,1,529,0.827174186706543,boat,boat,0,0529_ske_s07_0_boat_00_boat-0052-sketch-0.png
subject-07,1,530,1.00303220748901,truck,truck,0,0530_ske_s07_0_truck_00_truck-0301-sketch-5.png
subject-07,1,531,0.677284955978394,car,car,0,0531_ske_s07_0_car_00_car-0125-sketch-29.png
subject-07,1,532,0.746716976165771,boat,boat,0,0532_ske_s07_0_boat_00_boat-0197-sketch-48.png
subject-07,1,533,1.10242104530334,truck,truck,0,0533_ske_s07_0_truck_00_truck-0050-sketch-8.png
subject-07,1,534,0.91041898727417,truck,truck,0,0534_ske_s07_0_truck_00_truck-0384-sketch-32.png
subject-07,1,535,0.730067014694214,bear,bear,0,0535_ske_s07_0_bear_00_bear-0085-sketch-4.png
subject-07,1,536,0.649831771850586,cat,cat,0,0536_ske_s07_0_cat_00_cat-0073-sketch-29.png
subject-07,1,537,0.470092058181763,clock,clock,0,0537_ske_s07_0_clock_00_clock-0143-sketch-45.png
subject-07,1,538,0.605962991714478,chair,chair,0,0538_ske_s07_0_chair_00_chair-0166-sketch-20.png
subject-07,1,539,1.44126319885254,elephant,elephant,0,0539_ske_s07_0_elephant_00_elephant-0013-sketch-2.png
subject-07,1,540,0.8211989402771,clock,clock,0,0540_ske_s07_0_clock_00_clock-0081-sketch-35.png
subject-07,1,541,0.714982986450195,chair,chair,0,0541_ske_s07_0_chair_00_chair-0006-sketch-13.png
subject-07,1,542,0.722856998443604,chair,chair,0,0542_ske_s07_0_chair_00_chair-0063-sketch-19.png
subject-07,1,543,0.914618015289307,clock,clock,0,0543_ske_s07_0_clock_00_clock-0127-sketch-30.png
subject-07,1,544,0.576617002487183,chair,chair,0,0544_ske_s07_0_chair_00_chair-0127-sketch-31.png
subject-07,1,545,0.600441932678223,keyboard,keyboard,0,0545_ske_s07_0_keyboard_00_keyboard-0044-sketch-48.png
subject-07,1,546,0.808123111724854,keyboard,keyboard,0,0546_ske_s07_0_keyboard_00_keyboard-0033-sketch-38.png
subject-07,1,547,1.08824896812439,bear,dog,0,0547_ske_s07_0_dog_00_dog-3915-sketch-0.png
subject-07,1,548,0.66173791885376,knife,knife,0,0548_ske_s07_0_knife_00_knife-0011-sketch-18.png
subject-07,1,549,0.819425821304321,chair,chair,0,0549_ske_s07_0_chair_00_chair-0163-sketch-18.png
subject-07,1,550,1.50018119812012,truck,truck,0,0550_ske_s07_0_truck_00_truck-0045-sketch-49.png
subject-07,1,551,0.741538047790527,bicycle,bicycle,0,0551_ske_s07_0_bicycle_00_bicycle-0090-sketch-43.png
subject-07,1,552,0.696871995925903,bicycle,bicycle,0,0552_ske_s07_0_bicycle_00_bicycle-0020-sketch-26.png
subject-07,1,553,0.659075975418091,bear,bear,0,0553_ske_s07_0_bear_00_bear-0170-sketch-24.png
subject-07,1,554,0.620568037033081,bear,bear,0,0554_ske_s07_0_bear_00_bear-0005-sketch-12.png
subject-07,1,555,0.72042989730835,bird,bird,0,0555_ske_s07_0_bird_00_bird-1937-sketch-10.png
subject-07,1,556,0.702048063278198,car,car,0,0556_ske_s07_0_car_00_car-0092-sketch-45.png
subject-07,1,557,1.23385405540466,clock,clock,0,0557_ske_s07_0_clock_00_clock-0136-sketch-39.png
subject-07,1,558,0.969905853271484,cat,cat,0,0558_ske_s07_0_cat_00_cat-0128-sketch-32.png
subject-07,1,559,0.576077222824097,knife,knife,0,0559_ske_s07_0_knife_00_knife-0037-sketch-41.png
subject-07,1,560,0.71340012550354,car,car,0,0560_ske_s07_0_car_00_car-0124-sketch-28.png
subject-07,1,561,0.855515003204346,bear,bear,0,0561_ske_s07_0_bear_00_bear-0022-sketch-28.png
subject-07,1,562,1.0009560585022,bird,bird,0,0562_ske_s07_0_bird_00_bird-1081-sketch-18.png
subject-07,1,563,0.62096095085144,keyboard,keyboard,0,0563_ske_s07_0_keyboard_00_keyboard-0007-sketch-14.png
subject-07,1,564,0.660948038101196,chair,chair,0,0564_ske_s07_0_chair_00_chair-0005-sketch-12.png
subject-07,1,565,0.846447944641113,cat,cat,0,0565_ske_s07_0_cat_00_cat-0048-sketch-7.png
subject-07,1,566,0.564170837402344,knife,knife,0,0566_ske_s07_0_knife_00_knife-0027-sketch-32.png
subject-07,1,567,0.754016160964966,bear,bear,0,0567_ske_s07_0_bear_00_bear-0090-sketch-44.png
subject-07,1,568,0.678030014038086,chair,chair,0,0568_ske_s07_0_chair_00_chair-0168-sketch-22.png
subject-07,1,569,0.64985990524292,boat,boat,0,0569_ske_s07_0_boat_00_boat-0130-sketch-33.png
subject-07,1,570,0.893548011779785,dog,dog,0,0570_ske_s07_0_dog_00_dog-0476-sketch-26.png
subject-07,1,571,0.62929105758667,keyboard,keyboard,0,0571_ske_s07_0_keyboard_00_keyboard-0042-sketch-46.png
subject-07,1,572,0.803082942962646,bicycle,bicycle,0,0572_ske_s07_0_bicycle_00_bicycle-0031-sketch-36.png
subject-07,1,573,0.657020092010498,keyboard,keyboard,0,0573_ske_s07_0_keyboard_00_keyboard-0053-sketch-1.png
subject-07,1,574,0.592805862426758,cat,cat,0,0574_ske_s07_0_cat_00_cat-0043-sketch-47.png
subject-07,1,575,0.610756874084473,bear,bear,0,0575_ske_s07_0_bear_00_bear-0179-sketch-32.png
subject-07,1,576,1.40037512779236,elephant,elephant,0,0576_ske_s07_0_elephant_00_elephant-0058-sketch-14.png
subject-07,1,577,0.706594944000244,car,car,0,0577_ske_s07_0_car_00_car-0116-sketch-20.png
subject-07,1,578,NaN,na,knife,0,0578_ske_s07_0_knife_00_knife-0026-sketch-31.png
subject-07,1,579,0.843905925750732,keyboard,keyboard,0,0579_ske_s07_0_keyboard_00_keyboard-0084-sketch-38.png
subject-07,1,580,0.759720087051392,dog,dog,0,0580_ske_s07_0_dog_00_dog-2506-sketch-23.png
subject-07,1,581,1.00367498397827,dog,dog,0,0581_ske_s07_0_dog_00_dog-1759-sketch-38.png
subject-07,1,582,1.07314682006836,truck,truck,0,0582_ske_s07_0_truck_00_truck-0115-sketch-2.png
subject-07,1,583,0.729506015777588,cat,cat,0,0583_ske_s07_0_cat_00_cat-0053-sketch-10.png
subject-07,1,584,0.68684196472168,truck,car,0,0584_ske_s07_0_car_00_car-0017-sketch-23.png
subject-07,1,585,0.672807931900024,cat,dog,0,0585_ske_s07_0_dog_00_dog-5223-sketch-45.png
subject-07,1,586,1.32251000404358,elephant,elephant,0,0586_ske_s07_0_elephant_00_elephant-0052-sketch-0.png
subject-07,1,587,1.10626912117004,bottle,bottle,0,0587_ske_s07_0_bottle_00_bottle-0217-sketch-20.png
subject-07,1,588,0.466254949569702,oven,oven,0,0588_ske_s07_0_oven_00_oven-0030-sketch-35.png
subject-07,1,589,0.976052045822144,bottle,bottle,0,0589_ske_s07_0_bottle_00_bottle-0133-sketch-37.png
subject-07,1,590,0.783690929412842,truck,truck,0,0590_ske_s07_0_truck_00_truck-0249-sketch-49.png
subject-07,1,591,0.643554925918579,knife,knife,0,0591_ske_s07_0_knife_00_knife-0028-sketch-33.png
subject-07,1,592,0.787329912185669,truck,truck,0,0592_ske_s07_0_truck_00_truck-0134-sketch-37.png
subject-07,1,593,0.697365999221802,cat,cat,0,0593_ske_s07_0_cat_00_cat-0042-sketch-46.png
subject-07,1,594,0.549149036407471,oven,oven,0,0594_ske_s07_0_oven_00_oven-0034-sketch-39.png
subject-07,1,595,1.32881498336792,elephant,elephant,0,0595_ske_s07_0_elephant_00_elephant-0044-sketch-48.png
subject-07,1,596,0.584825038909912,clock,clock,0,0596_ske_s07_0_clock_00_clock-0131-sketch-34.png
subject-07,1,597,1.39236783981323,cat,cat,0,0597_ske_s07_0_cat_00_cat-0150-sketch-7.png
subject-07,1,598,0.814304828643799,chair,chair,0,0598_ske_s07_0_chair_00_chair-0122-sketch-27.png
subject-07,1,599,NaN,na,bear,0,0599_ske_s07_0_bear_00_bear-0023-sketch-29.png
subject-07,1,600,0.816399812698364,car,car,0,0600_ske_s07_0_car_00_car-0069-sketch-24.png
subject-07,1,601,0.715846061706543,clock,clock,0,0601_ske_s07_0_clock_00_clock-0112-sketch-17.png
subject-07,1,602,1.50004911422729,bear,cat,0,0602_ske_s07_0_cat_00_cat-0059-sketch-16.png
subject-07,1,603,1.02747201919556,airplane,airplane,0,0603_ske_s07_0_airplane_00_airplane-0003-sketch-10.png
subject-07,1,604,0.823318004608154,dog,dog,0,0604_ske_s07_0_dog_00_dog-5354-sketch-25.png
subject-07,1,605,0.702860116958618,bicycle,bicycle,0,0605_ske_s07_0_bicycle_00_bicycle-0002-sketch-1.png
subject-07,1,606,0.674761056900024,bird,bird,0,0606_ske_s07_0_bird_00_bird-0325-sketch-25.png
subject-07,1,607,0.554646968841553,boat,boat,0,0607_ske_s07_0_boat_00_boat-0126-sketch-3.png
subject-07,1,608,1.07437300682068,boat,truck,0,0608_ske_s07_0_truck_00_truck-0161-sketch-15.png
subject-07,1,609,1.19203400611877,car,boat,0,0609_ske_s07_0_boat_00_boat-0146-sketch-48.png
subject-07,1,610,0.552297830581665,cat,cat,0,0610_ske_s07_0_cat_00_cat-0289-sketch-4.png
subject-07,1,611,0.755851984024048,dog,dog,0,0611_ske_s07_0_dog_00_dog-5028-sketch-8.png
subject-07,1,612,0.523636102676392,airplane,airplane,0,0612_ske_s07_0_airplane_00_airplane-0021-sketch-27.png
subject-07,1,613,0.649864912033081,bear,bear,0,0613_ske_s07_0_bear_00_bear-0123-sketch-28.png
subject-07,1,614,0.643208980560303,car,truck,0,0614_ske_s07_0_truck_00_truck-0255-sketch-9.png
subject-07,1,615,0.745026826858521,cat,cat,0,0615_ske_s07_0_cat_00_cat-0304-sketch-8.png
subject-07,1,616,0.519205808639526,oven,oven,0,0616_ske_s07_0_oven_00_oven-0016-sketch-22.png
subject-07,1,617,0.520807981491089,car,car,0,0617_ske_s07_0_car_00_car-0138-sketch-40.png
subject-07,1,618,0.562526941299438,keyboard,keyboard,0,0618_ske_s07_0_keyboard_00_keyboard-0063-sketch-19.png
subject-07,1,619,0.660676002502441,airplane,airplane,0,0619_ske_s07_0_airplane_00_airplane-0012-sketch-19.png
subject-07,1,620,0.590201139450073,oven,oven,0,0620_ske_s07_0_oven_00_oven-0021-sketch-27.png
subject-07,1,621,0.700046062469482,elephant,elephant,0,0621_ske_s07_0_elephant_00_elephant-0048-sketch-6.png
subject-07,1,622,0.867946863174438,car,car,0,0622_ske_s07_0_car_00_car-0052-sketch-0.png
subject-07,1,623,0.593657970428467,bicycle,bicycle,0,0623_ske_s07_0_bicycle_00_bicycle-0039-sketch-43.png
subject-07,1,624,0.631422996520996,elephant,elephant,0,0624_ske_s07_0_elephant_00_elephant-0016-sketch-22.png
subject-07,1,625,0.961292028427124,truck,truck,0,0625_ske_s07_0_truck_00_truck-0135-sketch-38.png
subject-07,1,626,0.763124942779541,boat,boat,0,0626_ske_s07_0_boat_00_boat-0237-sketch-38.png
subject-07,1,627,0.602832078933716,car,car,0,0627_ske_s07_0_car_00_car-0112-sketch-17.png
subject-07,1,628,1.39056205749512,bird,bird,0,0628_ske_s07_0_bird_00_bird-0733-sketch-25.png
subject-07,1,629,1.45045399665833,elephant,elephant,0,0629_ske_s07_0_elephant_00_elephant-0065-sketch-20.png
subject-07,1,630,0.886642932891846,dog,dog,0,0630_ske_s07_0_dog_00_dog-0607-sketch-8.png
subject-07,1,631,0.544198989868164,bicycle,bicycle,0,0631_ske_s07_0_bicycle_00_bicycle-0023-sketch-29.png
subject-07,1,632,1.03429484367371,dog,dog,0,0632_ske_s07_0_dog_00_dog-1035-sketch-27.png
subject-07,1,633,NaN,na,boat,0,0633_ske_s07_0_boat_00_boat-0016-sketch-22.png
subject-07,1,634,0.723835945129395,car,car,0,0634_ske_s07_0_car_00_car-0014-sketch-20.png
subject-07,1,635,0.639302968978882,clock,clock,0,0635_ske_s07_0_clock_00_clock-0044-sketch-48.png
subject-07,1,636,NaN,na,dog,0,0636_ske_s07_0_dog_00_dog-0215-sketch-19.png
subject-07,1,637,NaN,na,truck,0,0637_ske_s07_0_truck_00_truck-0157-sketch-11.png
subject-07,1,638,0.734679937362671,dog,dog,0,0638_ske_s07_0_dog_00_dog-4208-sketch-45.png
subject-07,1,639,0.588551998138428,bicycle,bicycle,0,0639_ske_s07_0_bicycle_00_bicycle-0058-sketch-14.png
subject-07,1,640,0.552474021911621,clock,clock,0,0640_ske_s07_0_clock_00_clock-0007-sketch-14.png
subject-07,1,641,0.958853960037231,bird,bird,0,0641_ske_s07_0_bird_00_bird-0030-sketch-35.png
subject-07,1,642,0.83037805557251,dog,dog,0,0642_ske_s07_0_dog_00_dog-4499-sketch-33.png
subject-07,1,643,0.536113023757935,oven,oven,0,0643_ske_s07_0_oven_00_oven-0027-sketch-32.png
subject-07,1,644,0.806118011474609,knife,knife,0,0644_ske_s07_0_knife_00_knife-0004-sketch-11.png
subject-07,1,645,0.677955150604248,bear,bear,0,0645_ske_s07_0_bear_00_bear-0049-sketch-8.png
subject-07,1,646,0.991863965988159,elephant,elephant,0,0646_ske_s07_0_elephant_00_elephant-0015-sketch-21.png
subject-07,1,647,0.73993706703186,boat,boat,0,0647_ske_s07_0_boat_00_boat-0108-sketch-13.png
subject-07,1,648,0.575559139251709,chair,chair,0,0648_ske_s07_0_chair_00_chair-0014-sketch-20.png
subject-07,1,649,0.637115955352783,dog,dog,0,0649_ske_s07_0_dog_00_dog-0011-sketch-18.png
subject-07,1,650,1.43494200706482,bear,bear,0,0650_ske_s07_0_bear_00_bear-0007-sketch-14.png
subject-07,1,651,0.522907972335815,boat,boat,0,0651_ske_s07_0_boat_00_boat-0166-sketch-2.png
subject-07,1,652,0.540586948394775,boat,boat,0,0652_ske_s07_0_boat_00_boat-0165-sketch-19.png
subject-07,1,653,0.50055193901062,keyboard,keyboard,0,0653_ske_s07_0_keyboard_00_keyboard-0052-sketch-0.png
subject-07,1,654,1.3442690372467,chair,elephant,0,0654_ske_s07_0_elephant_00_elephant-0040-sketch-44.png
subject-07,1,655,0.520161151885986,oven,oven,0,0655_ske_s07_0_oven_00_oven-0035-sketch-4.png
subject-07,1,656,0.605829954147339,airplane,airplane,0,0656_ske_s07_0_airplane_00_airplane-0045-sketch-49.png
subject-07,1,657,0.961641073226929,boat,knife,0,0657_ske_s07_0_knife_00_knife-0033-sketch-38.png
subject-07,1,658,0.845561981201172,cat,cat,0,0658_ske_s07_0_cat_00_cat-0082-sketch-37.png
subject-07,1,659,1.00709700584412,oven,bottle,0,0659_ske_s07_0_bottle_00_bottle-0114-sketch-2.png
subject-07,1,660,0.535312175750732,bottle,bottle,0,0660_ske_s07_0_bottle_00_bottle-0338-sketch-38.png
subject-07,1,661,0.560901165008545,boat,boat,0,0661_ske_s07_0_boat_00_boat-0068-sketch-23.png
subject-07,1,662,0.534940004348755,elephant,elephant,0,0662_ske_s07_0_elephant_00_elephant-0001-sketch-0.png
subject-07,1,663,0.704813003540039,dog,dog,0,0663_ske_s07_0_dog_00_dog-4475-sketch-11.png
subject-07,1,664,1.01846504211426,oven,oven,0,0664_ske_s07_0_oven_00_oven-0043-sketch-47.png
subject-07,1,665,0.520046949386597,cat,cat,0,0665_ske_s07_0_cat_00_cat-0062-sketch-19.png
subject-07,1,666,0.543898105621338,cat,cat,0,0666_ske_s07_0_cat_00_cat-0274-sketch-26.png
subject-07,1,667,0.637675046920776,bird,bird,0,0667_ske_s07_0_bird_00_bird-0292-sketch-41.png
subject-07,1,668,0.607912063598633,bottle,bottle,0,0668_ske_s07_0_bottle_00_bottle-0107-sketch-13.png
subject-07,1,669,0.497556924819946,clock,clock,0,0669_ske_s07_0_clock_00_clock-0070-sketch-25.png
subject-07,1,670,0.557244062423706,boat,boat,0,0670_ske_s07_0_boat_00_boat-0233-sketch-34.png
subject-07,1,671,0.535261869430542,airplane,airplane,0,0671_ske_s07_0_airplane_00_airplane-0007-sketch-14.png
subject-07,1,672,0.538724899291992,cat,cat,0,0672_ske_s07_0_cat_00_cat-0264-sketch-17.png
subject-07,1,673,0.546921968460083,cat,cat,0,0673_ske_s07_0_cat_00_cat-0258-sketch-11.png
subject-07,1,674,0.718549013137817,car,truck,0,0674_ske_s07_0_truck_00_truck-0213-sketch-16.png
subject-07,1,675,0.714352130889893,chair,chair,0,0675_ske_s07_0_chair_00_chair-0055-sketch-11.png
subject-07,1,676,0.648230791091919,oven,oven,0,0676_ske_s07_0_oven_00_oven-0022-sketch-28.png
subject-07,1,677,0.819837093353271,bird,bird,0,0677_ske_s07_0_bird_00_bird-1948-sketch-20.png
subject-07,1,678,0.82967209815979,boat,boat,0,0678_ske_s07_0_boat_00_boat-0064-sketch-2.png
subject-07,1,679,0.59155797958374,boat,boat,0,0679_ske_s07_0_boat_00_boat-0088-sketch-41.png
subject-07,1,680,0.785738945007324,elephant,elephant,0,0680_ske_s07_0_elephant_00_elephant-0100-sketch-7.png
subject-07,1,681,0.691237211227417,bird,bird,0,0681_ske_s07_0_bird_00_bird-0479-sketch-26.png
subject-07,1,682,0.691395044326782,car,truck,0,0682_ske_s07_0_truck_00_truck-0243-sketch-43.png
subject-07,1,683,0.716776132583618,knife,knife,0,0683_ske_s07_0_knife_00_knife-0021-sketch-27.png
subject-07,1,684,0.966656923294067,cat,cat,0,0684_ske_s07_0_cat_00_cat-0009-sketch-16.png
subject-07,1,685,0.496639013290405,airplane,airplane,0,0685_ske_s07_0_airplane_00_airplane-0018-sketch-24.png
subject-07,1,686,0.630133152008057,car,truck,0,0686_ske_s07_0_truck_00_truck-0286-sketch-36.png
subject-07,1,687,0.77006196975708,car,car,0,0687_ske_s07_0_car_00_car-0005-sketch-12.png
subject-07,1,688,0.842112064361572,knife,car,0,0688_ske_s07_0_car_00_car-0079-sketch-33.png
subject-07,1,689,0.917744874954224,chair,chair,0,0689_ske_s07_0_chair_00_chair-0175-sketch-29.png
subject-07,1,690,0.643506050109863,car,car,0,0690_ske_s07_0_car_00_car-0132-sketch-35.png
subject-07,1,691,0.94520115852356,dog,dog,0,0691_ske_s07_0_dog_00_dog-4581-sketch-16.png
subject-07,1,692,0.913192987442017,truck,truck,0,0692_ske_s07_0_truck_00_truck-0348-sketch-46.png
subject-07,1,693,0.610883951187134,bottle,bottle,0,0693_ske_s07_0_bottle_00_bottle-0041-sketch-45.png
subject-07,1,694,0.52065896987915,car,car,0,0694_ske_s07_0_car_00_car-0151-sketch-7.png
subject-07,1,695,0.488818883895874,clock,clock,0,0695_ske_s07_0_clock_00_clock-0123-sketch-27.png
subject-07,1,696,0.710401058197021,bear,bear,0,0696_ske_s07_0_bear_00_bear-0107-sketch-13.png
subject-07,1,697,0.626191854476929,bottle,bottle,0,0697_ske_s07_0_bottle_00_bottle-0294-sketch-44.png
subject-07,1,698,0.53594183921814,airplane,airplane,0,0698_ske_s07_0_airplane_00_airplane-0042-sketch-46.png
subject-07,1,699,0.599740982055664,bottle,bottle,0,0699_ske_s07_0_bottle_00_bottle-0243-sketch-44.png
subject-07,1,700,0.789553880691528,bottle,bottle,0,0700_ske_s07_0_bottle_00_bottle-0280-sketch-31.png
subject-07,1,701,1.11952686309814,bear,bear,0,0701_ske_s07_0_bear_00_bear-0187-sketch-4.png
subject-07,1,702,0.65329909324646,bear,bear,0,0702_ske_s07_0_bear_00_bear-0041-sketch-45.png
subject-07,1,703,0.619340896606445,knife,knife,0,0703_ske_s07_0_knife_00_knife-0018-sketch-24.png
subject-07,1,704,0.756764888763428,bird,bird,0,0704_ske_s07_0_bird_00_bird-1148-sketch-32.png
subject-07,1,705,0.616919994354248,oven,oven,0,0705_ske_s07_0_oven_00_oven-0015-sketch-21.png
subject-07,1,706,0.532685041427612,bicycle,bicycle,0,0706_ske_s07_0_bicycle_00_bicycle-0068-sketch-23.png
subject-07,1,707,0.634426116943359,elephant,elephant,0,0707_ske_s07_0_elephant_00_elephant-0032-sketch-37.png
subject-07,1,708,0.670008897781372,car,truck,0,0708_ske_s07_0_truck_00_truck-0336-sketch-35.png
subject-07,1,709,0.624413967132568,boat,boat,0,0709_ske_s07_0_boat_00_boat-0080-sketch-34.png
subject-07,1,710,1.36769104003906,dog,dog,0,0710_ske_s07_0_dog_00_dog-0243-sketch-44.png
subject-07,1,711,0.621669054031372,airplane,airplane,0,0711_ske_s07_0_airplane_00_airplane-0020-sketch-26.png
subject-07,1,712,1.50005722045898,airplane,airplane,0,0712_ske_s07_0_airplane_00_airplane-0039-sketch-43.png
subject-07,1,713,0.802978038787842,car,car,0,0713_ske_s07_0_car_00_car-0030-sketch-35.png
subject-07,1,714,0.772937059402466,boat,boat,0,0714_ske_s07_0_boat_00_boat-0079-sketch-33.png
subject-07,1,715,0.688686847686768,dog,dog,0,0715_ske_s07_0_dog_00_dog-1711-sketch-40.png
subject-07,1,716,0.80267596244812,truck,truck,0,0716_ske_s07_0_truck_00_truck-0342-sketch-40.png
subject-07,1,717,0.812506914138794,airplane,airplane,0,0717_ske_s07_0_airplane_00_airplane-0050-sketch-8.png
subject-07,1,718,0.660133123397827,bottle,bottle,0,0718_ske_s07_0_bottle_00_bottle-0066-sketch-22.png
subject-07,1,719,0.540082931518555,oven,oven,0,0719_ske_s07_0_oven_00_oven-0040-sketch-44.png
subject-07,1,720,0.663837909698486,boat,boat,0,0720_ske_s07_0_boat_00_boat-0067-sketch-22.png
subject-07,1,721,0.525499820709229,knife,knife,0,0721_ske_s07_0_knife_00_knife-0013-sketch-2.png
subject-07,1,722,0.693583965301514,bicycle,bicycle,0,0722_ske_s07_0_bicycle_00_bicycle-0081-sketch-35.png
subject-07,1,723,0.589108943939209,bottle,bottle,0,0723_ske_s07_0_bottle_00_bottle-0215-sketch-19.png
subject-07,1,724,1.00505900382996,oven,oven,0,0724_ske_s07_0_oven_00_oven-0033-sketch-38.png
subject-07,1,725,0.626944065093994,bear,bear,0,0725_ske_s07_0_bear_00_bear-0037-sketch-41.png
subject-07,1,726,0.644685983657837,knife,knife,0,0726_ske_s07_0_knife_00_knife-0008-sketch-15.png
subject-07,1,727,0.572601795196533,bird,bird,0,0727_ske_s07_0_bird_00_bird-1749-sketch-25.png
subject-07,1,728,0.562384843826294,oven,oven,0,0728_ske_s07_0_oven_00_oven-0036-sketch-40.png
subject-07,1,729,0.804435014724731,knife,knife,0,0729_ske_s07_0_knife_00_knife-0032-sketch-37.png
subject-07,1,730,0.647933959960938,cat,cat,0,0730_ske_s07_0_cat_00_cat-0265-sketch-18.png
subject-07,1,731,1.28174209594727,knife,knife,0,0731_ske_s07_0_knife_00_knife-0025-sketch-30.png
subject-07,1,732,0.681851148605347,bicycle,bicycle,0,0732_ske_s07_0_bicycle_00_bicycle-0019-sketch-25.png
subject-07,1,733,0.821336984634399,boat,boat,0,0733_ske_s07_0_boat_00_boat-0123-sketch-27.png
subject-07,1,734,0.471060991287231,oven,oven,0,0734_ske_s07_0_oven_00_oven-0050-sketch-8.png
subject-07,1,735,0.667171001434326,truck,truck,0,0735_ske_s07_0_truck_00_truck-0012-sketch-19.png
subject-07,1,736,0.648813009262085,car,truck,0,0736_ske_s07_0_truck_00_truck-0154-sketch-0.png
subject-07,1,737,0.608614206314087,cat,cat,0,0737_ske_s07_0_cat_00_cat-0233-sketch-35.png
subject-07,1,738,0.844729900360107,knife,knife,0,0738_ske_s07_0_knife_00_knife-0041-sketch-45.png
subject-07,1,739,1.20822405815125,elephant,elephant,0,0739_ske_s07_0_elephant_00_elephant-0066-sketch-21.png
subject-07,1,740,0.731974840164185,bear,bear,0,0740_ske_s07_0_bear_00_bear-0059-sketch-16.png
subject-07,1,741,0.651932001113892,knife,knife,0,0741_ske_s07_0_knife_00_knife-0009-sketch-16.png
subject-07,1,742,0.953757047653198,airplane,airplane,0,0742_ske_s07_0_airplane_00_airplane-0022-sketch-28.png
subject-07,1,743,NaN,na,car,0,0743_ske_s07_0_car_00_car-0117-sketch-21.png
subject-07,1,744,0.591262102127075,keyboard,keyboard,0,0744_ske_s07_0_keyboard_00_keyboard-0014-sketch-20.png
subject-07,1,745,0.585047006607056,bottle,bottle,0,0745_ske_s07_0_bottle_00_bottle-0131-sketch-35.png
subject-07,1,746,0.984903812408447,bird,bird,0,0746_ske_s07_0_bird_00_bird-1562-sketch-40.png
subject-07,1,747,0.654772043228149,keyboard,keyboard,0,0747_ske_s07_0_keyboard_00_keyboard-0061-sketch-17.png
subject-07,1,748,1.17255616188049,cat,cat,0,0748_ske_s07_0_cat_00_cat-0134-sketch-38.png
subject-07,1,749,0.730200052261353,bottle,bottle,0,0749_ske_s07_0_bottle_00_bottle-0301-sketch-50.png
subject-07,1,750,0.84217095375061,dog,dog,0,0750_ske_s07_0_dog_00_dog-0111-sketch-17.png
subject-07,1,751,0.734483957290649,chair,chair,0,0751_ske_s07_0_chair_00_chair-0051-sketch-9.png
subject-07,1,752,0.557797908782959,knife,knife,0,0752_ske_s07_0_knife_00_knife-0006-sketch-13.png
subject-07,1,753,0.84153413772583,truck,truck,0,0753_ske_s07_0_truck_00_truck-0355-sketch-7.png
subject-07,1,754,0.479397773742676,airplane,airplane,0,0754_ske_s07_0_airplane_00_airplane-0006-sketch-13.png
subject-07,1,755,0.667377948760986,dog,dog,0,0755_ske_s07_0_dog_00_dog-5325-sketch-45.png
subject-07,1,756,0.759006977081299,truck,truck,0,0756_ske_s07_0_truck_00_truck-0025-sketch-30.png
subject-07,1,757,0.732818841934204,car,car,0,0757_ske_s07_0_car_00_car-0143-sketch-45.png
subject-07,1,758,0.676643848419189,clock,clock,0,0758_ske_s07_0_clock_00_clock-0060-sketch-16.png
subject-07,1,759,0.738591909408569,car,car,0,0759_ske_s07_0_car_00_car-0022-sketch-28.png
subject-07,1,760,0.63637900352478,bottle,bottle,0,0760_ske_s07_0_bottle_00_bottle-0071-sketch-27.png
subject-07,1,761,1.15216112136841,car,truck,0,0761_ske_s07_0_truck_00_truck-0136-sketch-39.png
subject-07,1,762,0.80585503578186,clock,clock,0,0762_ske_s07_0_clock_00_clock-0087-sketch-40.png
subject-07,1,763,0.665642023086548,car,car,0,0763_ske_s07_0_car_00_car-0018-sketch-24.png
subject-07,1,764,1.21750903129578,airplane,airplane,0,0764_ske_s07_0_airplane_00_airplane-0035-sketch-4.png
subject-07,1,765,1.03170490264893,bicycle,bicycle,0,0765_ske_s07_0_bicycle_00_bicycle-0011-sketch-18.png
subject-07,1,766,0.869383096694946,car,car,0,0766_ske_s07_0_car_00_car-0098-sketch-50.png
subject-07,1,767,0.66698694229126,clock,clock,0,0767_ske_s07_0_clock_00_clock-0076-sketch-30.png
subject-07,1,768,0.554712057113647,keyboard,keyboard,0,0768_ske_s07_0_keyboard_00_keyboard-0022-sketch-28.png
subject-07,1,769,0.70868992805481,bear,bear,0,0769_ske_s07_0_bear_00_bear-0198-sketch-5.png
subject-07,1,770,0.59225606918335,airplane,airplane,0,0770_ske_s07_0_airplane_00_airplane-0044-sketch-48.png
subject-07,1,771,1.14435291290283,bicycle,bicycle,0,0771_ske_s07_0_bicycle_00_bicycle-0038-sketch-42.png
subject-07,1,772,1.18008303642273,elephant,elephant,0,0772_ske_s07_0_elephant_00_elephant-0062-sketch-18.png
subject-07,1,773,0.688177108764648,bottle,bottle,0,0773_ske_s07_0_bottle_00_bottle-0330-sketch-30.png
subject-07,1,774,0.935554027557373,cat,cat,0,0774_ske_s07_0_cat_00_cat-0269-sketch-21.png
subject-07,1,775,1.41743302345276,chair,keyboard,0,0775_ske_s07_0_keyboard_00_keyboard-0028-sketch-33.png
subject-07,1,776,0.805296897888184,car,car,0,0776_ske_s07_0_car_00_car-0009-sketch-16.png
subject-07,1,777,0.873059988021851,bear,bear,0,0777_ske_s07_0_bear_00_bear-0110-sketch-16.png
subject-07,1,778,0.952906847000122,knife,knife,0,0778_ske_s07_0_knife_00_knife-0042-sketch-46.png
subject-07,1,779,0.57103705406189,oven,oven,0,0779_ske_s07_0_oven_00_oven-0005-sketch-12.png
subject-07,1,780,0.834723949432373,elephant,elephant,0,0780_ske_s07_0_elephant_00_elephant-0090-sketch-43.png
subject-07,1,781,0.936227083206177,keyboard,keyboard,0,0781_ske_s07_0_keyboard_00_keyboard-0076-sketch-30.png
subject-07,1,782,0.737980127334595,knife,knife,0,0782_ske_s07_0_knife_00_knife-0035-sketch-4.png
subject-07,1,783,1.46592998504639,bear,bear,0,0783_ske_s07_0_bear_00_bear-0039-sketch-43.png
subject-07,1,784,0.608110904693604,chair,chair,0,0784_ske_s07_0_chair_00_chair-0088-sketch-41.png
subject-07,1,785,0.705513954162598,elephant,elephant,0,0785_ske_s07_0_elephant_00_elephant-0080-sketch-34.png
subject-07,1,786,0.581510066986084,chair,chair,0,0786_ske_s07_0_chair_00_chair-0034-sketch-39.png
subject-07,1,787,0.517252206802368,oven,oven,0,0787_ske_s07_0_oven_00_oven-0049-sketch-7.png
subject-07,1,788,0.52493691444397,clock,clock,0,0788_ske_s07_0_clock_00_clock-0093-sketch-46.png
subject-07,1,789,0.57913613319397,oven,oven,0,0789_ske_s07_0_oven_00_oven-0013-sketch-2.png
subject-07,1,790,0.548872947692871,knife,knife,0,0790_ske_s07_0_knife_00_knife-0030-sketch-35.png
subject-07,1,791,0.744591951370239,airplane,airplane,0,0791_ske_s07_0_airplane_00_airplane-0046-sketch-5.png
subject-07,1,792,0.554398059844971,boat,boat,0,0792_ske_s07_0_boat_00_boat-0094-sketch-47.png
subject-07,1,793,0.645928859710693,car,truck,0,0793_ske_s07_0_truck_00_truck-0192-sketch-43.png
subject-07,1,794,0.599976062774658,clock,clock,0,0794_ske_s07_0_clock_00_clock-0138-sketch-40.png
subject-07,1,795,0.787785053253174,dog,dog,0,0795_ske_s07_0_dog_00_dog-3417-sketch-2.png
subject-07,1,796,0.707672119140625,keyboard,keyboard,0,0796_ske_s07_0_keyboard_00_keyboard-0035-sketch-4.png
subject-07,1,797,0.497298955917358,boat,boat,0,0797_ske_s07_0_boat_00_boat-0152-sketch-8.png
subject-07,1,798,0.46347188949585,keyboard,keyboard,0,0798_ske_s07_0_keyboard_00_keyboard-0010-sketch-17.png
subject-07,1,799,0.985296010971069,airplane,airplane,0,0799_ske_s07_0_airplane_00_airplane-0047-sketch-50.png
subject-07,1,800,0.680716991424561,chair,chair,0,0800_ske_s07_0_chair_00_chair-0062-sketch-18.png
