subj,session,trial,rt,object_response,category,condition,imagename
subject-05,1,1,0.783522844314575,bird,bird,0,0001_ske_s05_0_bird_00_bird-1721-sketch-46.png
subject-05,1,2,0.813191890716553,bicycle,bicycle,0,0002_ske_s05_0_bicycle_00_bicycle-0090-sketch-43.png
subject-05,1,3,0.952939987182617,dog,dog,0,0003_ske_s05_0_dog_00_dog-4208-sketch-45.png
subject-05,1,4,1.10099601745605,bottle,bottle,0,0004_ske_s05_0_bottle_00_bottle-0097-sketch-50.png
subject-05,1,5,0.474644184112549,bicycle,bicycle,0,0005_ske_s05_0_bicycle_00_bicycle-0102-sketch-9.png
subject-05,1,6,0.918385028839111,bear,bear,0,0006_ske_s05_0_bear_00_bear-0195-sketch-47.png
subject-05,1,7,1.07450389862061,boat,boat,0,0007_ske_s05_0_boat_00_boat-0165-sketch-19.png
subject-05,1,8,0.682070016860962,boat,boat,0,0008_ske_s05_0_boat_00_boat-0234-sketch-35.png
subject-05,1,9,0.719766139984131,elephant,elephant,0,0009_ske_s05_0_elephant_00_elephant-0029-sketch-34.png
subject-05,1,10,0.861668109893799,elephant,elephant,0,0010_ske_s05_0_elephant_00_elephant-0066-sketch-21.png
subject-05,1,11,0.607550144195557,bottle,bottle,0,0011_ske_s05_0_bottle_00_bottle-0215-sketch-19.png
subject-05,1,12,0.725339889526367,keyboard,keyboard,0,0012_ske_s05_0_keyboard_00_keyboard-0010-sketch-17.png
subject-05,1,13,1.16926693916321,knife,knife,0,0013_ske_s05_0_knife_00_knife-0008-sketch-15.png
subject-05,1,14,1.08100295066833,car,car,0,0014_ske_s05_0_car_00_car-0117-sketch-21.png
subject-05,1,15,0.758634090423584,boat,boat,0,0015_ske_s05_0_boat_00_boat-0197-sketch-48.png
subject-05,1,16,0.596833944320679,keyboard,keyboard,0,0016_ske_s05_0_keyboard_00_keyboard-0049-sketch-7.png
subject-05,1,17,0.656576871871948,cat,cat,0,0017_ske_s05_0_cat_00_cat-0124-sketch-29.png
subject-05,1,18,1.02828502655029,bird,bird,0,0018_ske_s05_0_bird_00_bird-1740-sketch-17.png
subject-05,1,19,0.932023048400879,bicycle,bicycle,0,0019_ske_s05_0_bicycle_00_bicycle-0059-sketch-15.png
subject-05,1,20,1.14575886726379,airplane,airplane,0,0020_ske_s05_0_airplane_00_airplane-0051-sketch-9.png
subject-05,1,21,0.613643169403076,clock,clock,0,0021_ske_s05_0_clock_00_clock-0027-sketch-32.png
subject-05,1,22,1.50006794929504,bear,bear,0,0022_ske_s05_0_bear_00_bear-0073-sketch-29.png
subject-05,1,23,0.799279928207397,cat,cat,0,0023_ske_s05_0_cat_00_cat-0027-sketch-32.png
subject-05,1,24,1.23516511917114,elephant,elephant,0,0024_ske_s05_0_elephant_00_elephant-0015-sketch-21.png
subject-05,1,25,0.686942100524902,knife,knife,0,0025_ske_s05_0_knife_00_knife-0004-sketch-11.png
subject-05,1,26,0.601139068603516,clock,clock,0,0026_ske_s05_0_clock_00_clock-0015-sketch-21.png
subject-05,1,27,0.612636089324951,elephant,elephant,0,0027_ske_s05_0_elephant_00_elephant-0061-sketch-17.png
subject-05,1,28,0.866237163543701,airplane,airplane,0,0028_ske_s05_0_airplane_00_airplane-0020-sketch-26.png
subject-05,1,29,0.806127071380615,car,car,0,0029_ske_s05_0_car_00_car-0083-sketch-37.png
subject-05,1,30,1.0160219669342,chair,chair,0,0030_ske_s05_0_chair_00_chair-0040-sketch-44.png
subject-05,1,31,0.737845897674561,airplane,airplane,0,0031_ske_s05_0_airplane_00_airplane-0008-sketch-15.png
subject-05,1,32,1.03356385231018,knife,knife,0,0032_ske_s05_0_knife_00_knife-0014-sketch-20.png
subject-05,1,33,0.749397039413452,airplane,airplane,0,0033_ske_s05_0_airplane_00_airplane-0016-sketch-22.png
subject-05,1,34,1.01539206504822,bear,bear,0,0034_ske_s05_0_bear_00_bear-0045-sketch-49.png
subject-05,1,35,1.02696800231934,truck,car,0,0035_ske_s05_0_car_00_car-0002-sketch-1.png
subject-05,1,36,0.810691118240356,knife,knife,0,0036_ske_s05_0_knife_00_knife-0027-sketch-32.png
subject-05,1,37,0.632776975631714,bottle,bottle,0,0037_ske_s05_0_bottle_00_bottle-0313-sketch-15.png
subject-05,1,38,0.912343978881836,cat,cat,0,0038_ske_s05_0_cat_00_cat-0295-sketch-45.png
subject-05,1,39,0.808457136154175,knife,knife,0,0039_ske_s05_0_knife_00_knife-0030-sketch-35.png
subject-05,1,40,0.67029595375061,keyboard,keyboard,0,0040_ske_s05_0_keyboard_00_keyboard-0033-sketch-38.png
subject-05,1,41,1.50007200241089,elephant,elephant,0,0041_ske_s05_0_elephant_00_elephant-0012-sketch-19.png
subject-05,1,42,0.855643033981323,keyboard,keyboard,0,0042_ske_s05_0_keyboard_00_keyboard-0087-sketch-40.png
subject-05,1,43,0.817649126052856,elephant,elephant,0,0043_ske_s05_0_elephant_00_elephant-0021-sketch-27.png
subject-05,1,44,0.741591930389404,boat,boat,0,0044_ske_s05_0_boat_00_boat-0036-sketch-40.png
subject-05,1,45,0.671119928359985,boat,boat,0,0045_ske_s05_0_boat_00_boat-0125-sketch-29.png
subject-05,1,46,0.8748779296875,bird,bird,0,0046_ske_s05_0_bird_00_bird-0733-sketch-25.png
subject-05,1,47,0.688849210739136,chair,chair,0,0047_ske_s05_0_chair_00_chair-0118-sketch-23.png
subject-05,1,48,0.742485046386719,knife,knife,0,0048_ske_s05_0_knife_00_knife-0040-sketch-44.png
subject-05,1,49,1.07453489303589,car,car,0,0049_ske_s05_0_car_00_car-0034-sketch-39.png
subject-05,1,50,0.660315036773682,keyboard,keyboard,0,0050_ske_s05_0_keyboard_00_keyboard-0052-sketch-0.png
subject-05,1,51,0.750118017196655,bicycle,bicycle,0,0051_ske_s05_0_bicycle_00_bicycle-0045-sketch-49.png
subject-05,1,52,1.20996117591858,bear,bear,0,0052_ske_s05_0_bear_00_bear-0068-sketch-24.png
subject-05,1,53,0.773941040039062,bicycle,bicycle,0,0053_ske_s05_0_bicycle_00_bicycle-0008-sketch-15.png
subject-05,1,54,0.767592906951904,bicycle,bicycle,0,0054_ske_s05_0_bicycle_00_bicycle-0098-sketch-50.png
subject-05,1,55,0.821338891983032,chair,chair,0,0055_ske_s05_0_chair_00_chair-0175-sketch-29.png
subject-05,1,56,0.80142879486084,oven,oven,0,0056_ske_s05_0_oven_00_oven-0031-sketch-36.png
subject-05,1,57,0.671252965927124,airplane,airplane,0,0057_ske_s05_0_airplane_00_airplane-0004-sketch-11.png
subject-05,1,58,1.23491096496582,dog,dog,0,0058_ske_s05_0_dog_00_dog-2948-sketch-10.png
subject-05,1,59,0.568542003631592,cat,cat,0,0059_ske_s05_0_cat_00_cat-0082-sketch-37.png
subject-05,1,60,0.984221935272217,boat,boat,0,0060_ske_s05_0_boat_00_boat-0099-sketch-6.png
subject-05,1,61,0.678184986114502,bottle,bottle,0,0061_ske_s05_0_bottle_00_bottle-0030-sketch-35.png
subject-05,1,62,1.21200799942017,dog,dog,0,0062_ske_s05_0_dog_00_dog-1759-sketch-38.png
subject-05,1,63,1.27373886108398,oven,oven,0,0063_ske_s05_0_oven_00_oven-0005-sketch-12.png
subject-05,1,64,0.73954701423645,dog,dog,0,0064_ske_s05_0_dog_00_dog-1617-sketch-48.png
subject-05,1,65,0.583777904510498,clock,clock,0,0065_ske_s05_0_clock_00_clock-0007-sketch-14.png
subject-05,1,66,0.719245910644531,airplane,airplane,0,0066_ske_s05_0_airplane_00_airplane-0022-sketch-28.png
subject-05,1,67,0.909353971481323,bottle,bottle,0,0067_ske_s05_0_bottle_00_bottle-0133-sketch-37.png
subject-05,1,68,1.342777967453,elephant,elephant,0,0068_ske_s05_0_elephant_00_elephant-0013-sketch-2.png
subject-05,1,69,0.788689136505127,car,car,0,0069_ske_s05_0_car_00_car-0116-sketch-20.png
subject-05,1,70,0.744354963302612,truck,car,0,0070_ske_s05_0_car_00_car-0050-sketch-8.png
subject-05,1,71,0.650211095809937,bicycle,bicycle,0,0071_ske_s05_0_bicycle_00_bicycle-0002-sketch-1.png
subject-05,1,72,0.863997936248779,bottle,bottle,0,0072_ske_s05_0_bottle_00_bottle-0202-sketch-8.png
subject-05,1,73,NaN,na,bear,0,0073_ske_s05_0_bear_00_bear-0027-sketch-32.png
subject-05,1,74,0.827948093414307,oven,oven,0,0074_ske_s05_0_oven_00_oven-0037-sketch-41.png
subject-05,1,75,0.677809953689575,oven,oven,0,0075_ske_s05_0_oven_00_oven-0039-sketch-43.png
subject-05,1,76,0.567324161529541,knife,knife,0,0076_ske_s05_0_knife_00_knife-0002-sketch-1.png
subject-05,1,77,0.747146844863892,car,car,0,0077_ske_s05_0_car_00_car-0129-sketch-32.png
subject-05,1,78,0.755088806152344,boat,boat,0,0078_ske_s05_0_boat_00_boat-0239-sketch-4.png
subject-05,1,79,1.19083285331726,keyboard,keyboard,0,0079_ske_s05_0_keyboard_00_keyboard-0059-sketch-15.png
subject-05,1,80,1.2206289768219,car,car,0,0080_ske_s05_0_car_00_car-0024-sketch-3.png
subject-05,1,81,1.06431698799133,bird,bird,0,0081_ske_s05_0_bird_00_bird-0834-sketch-24.png
subject-05,1,82,0.972234010696411,knife,knife,0,0082_ske_s05_0_knife_00_knife-0017-sketch-23.png
subject-05,1,83,0.984112977981567,bottle,bottle,0,0083_ske_s05_0_bottle_00_bottle-0162-sketch-17.png
subject-05,1,84,NaN,na,dog,0,0084_ske_s05_0_dog_00_dog-3153-sketch-11.png
subject-05,1,85,1.13411116600037,truck,truck,0,0085_ske_s05_0_truck_00_truck-0369-sketch-19.png
subject-05,1,86,0.677489042282104,chair,chair,0,0086_ske_s05_0_chair_00_chair-0064-sketch-2.png
subject-05,1,87,0.715559959411621,dog,dog,0,0087_ske_s05_0_dog_00_dog-3573-sketch-22.png
subject-05,1,88,1.19516587257385,keyboard,chair,0,0088_ske_s05_0_chair_00_chair-0002-sketch-1.png
subject-05,1,89,1.02077412605286,bicycle,bicycle,0,0089_ske_s05_0_bicycle_00_bicycle-0026-sketch-31.png
subject-05,1,90,1.05855703353882,dog,dog,0,0090_ske_s05_0_dog_00_dog-5084-sketch-11.png
subject-05,1,91,0.544581890106201,keyboard,keyboard,0,0091_ske_s05_0_keyboard_00_keyboard-0061-sketch-17.png
subject-05,1,92,1.01233506202698,car,car,0,0092_ske_s05_0_car_00_car-0022-sketch-28.png
subject-05,1,93,0.918166875839233,dog,dog,0,0093_ske_s05_0_dog_00_dog-1973-sketch-47.png
subject-05,1,94,0.710058927536011,chair,oven,0,0094_ske_s05_0_oven_00_oven-0024-sketch-3.png
subject-05,1,95,0.723571062088013,truck,truck,0,0095_ske_s05_0_truck_00_truck-0348-sketch-46.png
subject-05,1,96,0.655523061752319,keyboard,keyboard,0,0096_ske_s05_0_keyboard_00_keyboard-0029-sketch-34.png
subject-05,1,97,0.991420030593872,cat,cat,0,0097_ske_s05_0_cat_00_cat-0251-sketch-6.png
subject-05,1,98,0.671051979064941,cat,bottle,0,0098_ske_s05_0_bottle_00_bottle-0114-sketch-2.png
subject-05,1,99,0.760957956314087,bottle,bottle,0,0099_ske_s05_0_bottle_00_bottle-0045-sketch-49.png
subject-05,1,100,0.674844026565552,clock,clock,0,0100_ske_s05_0_clock_00_clock-0067-sketch-22.png
subject-05,1,101,0.61847710609436,elephant,elephant,0,0101_ske_s05_0_elephant_00_elephant-0014-sketch-20.png
subject-05,1,102,0.756557941436768,bear,bear,0,0102_ske_s05_0_bear_00_bear-0086-sketch-40.png
subject-05,1,103,1.30039501190186,airplane,airplane,0,0103_ske_s05_0_airplane_00_airplane-0009-sketch-16.png
subject-05,1,104,0.914123058319092,truck,truck,0,0104_ske_s05_0_truck_00_truck-0088-sketch-41.png
subject-05,1,105,1.07590389251709,airplane,airplane,0,0105_ske_s05_0_airplane_00_airplane-0014-sketch-20.png
subject-05,1,106,0.595870018005371,knife,knife,0,0106_ske_s05_0_knife_00_knife-0028-sketch-33.png
subject-05,1,107,0.797425031661987,knife,knife,0,0107_ske_s05_0_knife_00_knife-0025-sketch-30.png
subject-05,1,108,1.01312518119812,bottle,bottle,0,0108_ske_s05_0_bottle_00_bottle-0135-sketch-39.png
subject-05,1,109,0.817228078842163,bottle,bottle,0,0109_ske_s05_0_bottle_00_bottle-0185-sketch-38.png
subject-05,1,110,0.872890949249268,cat,cat,0,0110_ske_s05_0_cat_00_cat-0289-sketch-4.png
subject-05,1,111,0.672550201416016,chair,chair,0,0111_ske_s05_0_chair_00_chair-0005-sketch-12.png
subject-05,1,112,0.79621410369873,bottle,bottle,0,0112_ske_s05_0_bottle_00_bottle-0002-sketch-1.png
subject-05,1,113,0.712800025939941,bear,bear,0,0113_ske_s05_0_bear_00_bear-0103-sketch-1.png
subject-05,1,114,0.710303068161011,bear,bear,0,0114_ske_s05_0_bear_00_bear-0117-sketch-22.png
subject-05,1,115,0.97998309135437,dog,dog,0,0115_ske_s05_0_dog_00_dog-2541-sketch-0.png
subject-05,1,116,0.929797887802124,elephant,elephant,0,0116_ske_s05_0_elephant_00_elephant-0100-sketch-7.png
subject-05,1,117,0.939623832702637,bear,bear,0,0117_ske_s05_0_bear_00_bear-0149-sketch-6.png
subject-05,1,118,0.861445188522339,clock,clock,0,0118_ske_s05_0_clock_00_clock-0137-sketch-4.png
subject-05,1,119,0.91913104057312,knife,knife,0,0119_ske_s05_0_knife_00_knife-0032-sketch-37.png
subject-05,1,120,0.687000036239624,oven,oven,0,0120_ske_s05_0_oven_00_oven-0010-sketch-17.png
subject-05,1,121,1.29670691490173,bottle,bottle,0,0121_ske_s05_0_bottle_00_bottle-0305-sketch-9.png
subject-05,1,122,0.678667068481445,knife,knife,0,0122_ske_s05_0_knife_00_knife-0015-sketch-21.png
subject-05,1,123,1.50004911422729,elephant,elephant,0,0123_ske_s05_0_elephant_00_elephant-0033-sketch-38.png
subject-05,1,124,0.584346055984497,bottle,bottle,0,0124_ske_s05_0_bottle_00_bottle-0041-sketch-45.png
subject-05,1,125,1.00220823287964,airplane,airplane,0,0125_ske_s05_0_airplane_00_airplane-0005-sketch-12.png
subject-05,1,126,1.13824009895325,bear,bear,0,0126_ske_s05_0_bear_00_bear-0070-sketch-26.png
subject-05,1,127,0.648005962371826,chair,chair,0,0127_ske_s05_0_chair_00_chair-0071-sketch-26.png
subject-05,1,128,0.707499027252197,bicycle,bicycle,0,0128_ske_s05_0_bicycle_00_bicycle-0060-sketch-16.png
subject-05,1,129,0.953263998031616,truck,truck,0,0129_ske_s05_0_truck_00_truck-0221-sketch-23.png
subject-05,1,130,NaN,na,chair,0,0130_ske_s05_0_chair_00_chair-0083-sketch-37.png
subject-05,1,131,0.929027080535889,elephant,elephant,0,0131_ske_s05_0_elephant_00_elephant-0002-sketch-1.png
subject-05,1,132,0.668846130371094,bottle,bottle,0,0132_ske_s05_0_bottle_00_bottle-0301-sketch-50.png
subject-05,1,133,0.62450909614563,car,car,0,0133_ske_s05_0_car_00_car-0100-sketch-7.png
subject-05,1,134,0.566315174102783,oven,oven,0,0134_ske_s05_0_oven_00_oven-0038-sketch-42.png
subject-05,1,135,1.43226885795593,keyboard,keyboard,0,0135_ske_s05_0_keyboard_00_keyboard-0071-sketch-26.png
subject-05,1,136,1.12644290924072,truck,car,0,0136_ske_s05_0_car_00_car-0005-sketch-12.png
subject-05,1,137,0.836187839508057,oven,oven,0,0137_ske_s05_0_oven_00_oven-0032-sketch-37.png
subject-05,1,138,0.729739189147949,oven,oven,0,0138_ske_s05_0_oven_00_oven-0046-sketch-5.png
subject-05,1,139,0.867445945739746,elephant,elephant,0,0139_ske_s05_0_elephant_00_elephant-0037-sketch-41.png
subject-05,1,140,1.03537392616272,keyboard,keyboard,0,0140_ske_s05_0_keyboard_00_keyboard-0009-sketch-16.png
subject-05,1,141,1.01717805862427,boat,boat,0,0141_ske_s05_0_boat_00_boat-0065-sketch-20.png
subject-05,1,142,0.76497483253479,knife,knife,0,0142_ske_s05_0_knife_00_knife-0041-sketch-45.png
subject-05,1,143,0.740869045257568,chair,chair,0,0143_ske_s05_0_chair_00_chair-0062-sketch-18.png
subject-05,1,144,0.840522050857544,knife,knife,0,0144_ske_s05_0_knife_00_knife-0011-sketch-18.png
subject-05,1,145,0.598322868347168,cat,cat,0,0145_ske_s05_0_cat_00_cat-0258-sketch-11.png
subject-05,1,146,1.23426008224487,bottle,bottle,0,0146_ske_s05_0_bottle_00_bottle-0338-sketch-38.png
subject-05,1,147,1.25768804550171,cat,cat,0,0147_ske_s05_0_cat_00_cat-0269-sketch-21.png
subject-05,1,148,1.37768411636353,elephant,elephant,0,0148_ske_s05_0_elephant_00_elephant-0006-sketch-13.png
subject-05,1,149,NaN,na,chair,0,0149_ske_s05_0_chair_00_chair-0180-sketch-33.png
subject-05,1,150,0.70757794380188,bear,bear,0,0150_ske_s05_0_bear_00_bear-0048-sketch-7.png
subject-05,1,151,0.621157169342041,dog,dog,0,0151_ske_s05_0_dog_00_dog-0111-sketch-17.png
subject-05,1,152,0.749050855636597,cat,boat,0,0152_ske_s05_0_boat_00_boat-0107-sketch-12.png
subject-05,1,153,0.684708118438721,chair,chair,0,0153_ske_s05_0_chair_00_chair-0168-sketch-22.png
subject-05,1,154,0.700898885726929,clock,clock,0,0154_ske_s05_0_clock_00_clock-0127-sketch-30.png
subject-05,1,155,0.698735952377319,chair,chair,0,0155_ske_s05_0_chair_00_chair-0088-sketch-41.png
subject-05,1,156,0.736207962036133,airplane,airplane,0,0156_ske_s05_0_airplane_00_airplane-0007-sketch-14.png
subject-05,1,157,0.574154853820801,chair,chair,0,0157_ske_s05_0_chair_00_chair-0163-sketch-18.png
subject-05,1,158,0.581892967224121,keyboard,keyboard,0,0158_ske_s05_0_keyboard_00_keyboard-0014-sketch-20.png
subject-05,1,159,0.669556856155396,keyboard,keyboard,0,0159_ske_s05_0_keyboard_00_keyboard-0023-sketch-29.png
subject-05,1,160,0.677426099777222,knife,knife,0,0160_ske_s05_0_knife_00_knife-0018-sketch-24.png
subject-05,1,161,0.674968004226685,bottle,bottle,0,0161_ske_s05_0_bottle_00_bottle-0131-sketch-35.png
subject-05,1,162,0.720745086669922,truck,car,0,0162_ske_s05_0_car_00_car-0025-sketch-30.png
subject-05,1,163,0.83442211151123,boat,bear,0,0163_ske_s05_0_bear_00_bear-0201-sketch-7.png
subject-05,1,164,1.22218799591064,boat,boat,0,0164_ske_s05_0_boat_00_boat-0132-sketch-35.png
subject-05,1,165,0.532056093215942,elephant,elephant,0,0165_ske_s05_0_elephant_00_elephant-0071-sketch-26.png
subject-05,1,166,0.911980867385864,cat,cat,0,0166_ske_s05_0_cat_00_cat-0134-sketch-38.png
subject-05,1,167,0.667608976364136,knife,knife,0,0167_ske_s05_0_knife_00_knife-0036-sketch-40.png
subject-05,1,168,0.845422029495239,bicycle,bicycle,0,0168_ske_s05_0_bicycle_00_bicycle-0023-sketch-29.png
subject-05,1,169,0.525522947311401,bottle,bottle,0,0169_ske_s05_0_bottle_00_bottle-0126-sketch-30.png
subject-05,1,170,0.609243869781494,cat,cat,0,0170_ske_s05_0_cat_00_cat-0304-sketch-8.png
subject-05,1,171,0.732937097549438,oven,oven,0,0171_ske_s05_0_oven_00_oven-0043-sketch-47.png
subject-05,1,172,0.540711164474487,knife,knife,0,0172_ske_s05_0_knife_00_knife-0050-sketch-8.png
subject-05,1,173,1.16852879524231,keyboard,keyboard,0,0173_ske_s05_0_keyboard_00_keyboard-0064-sketch-2.png
subject-05,1,174,0.844724178314209,knife,knife,0,0174_ske_s05_0_knife_00_knife-0007-sketch-14.png
subject-05,1,175,0.540215969085693,cat,cat,0,0175_ske_s05_0_cat_00_cat-0264-sketch-17.png
subject-05,1,176,1.17404699325562,elephant,elephant,0,0176_ske_s05_0_elephant_00_elephant-0101-sketch-8.png
subject-05,1,177,0.787831783294678,car,car,0,0177_ske_s05_0_car_00_car-0043-sketch-47.png
subject-05,1,178,0.7256920337677,cat,cat,0,0178_ske_s05_0_cat_00_cat-0260-sketch-13.png
subject-05,1,179,0.975375890731812,cat,cat,0,0179_ske_s05_0_cat_00_cat-0085-sketch-4.png
subject-05,1,180,0.529305934906006,cat,cat,0,0180_ske_s05_0_cat_00_cat-0011-sketch-18.png
subject-05,1,181,0.621023893356323,oven,oven,0,0181_ske_s05_0_oven_00_oven-0008-sketch-15.png
subject-05,1,182,0.79905891418457,airplane,airplane,0,0182_ske_s05_0_airplane_00_airplane-0023-sketch-29.png
subject-05,1,183,1.11070704460144,chair,chair,0,0183_ske_s05_0_chair_00_chair-0127-sketch-31.png
subject-05,1,184,1.05060887336731,oven,oven,0,0184_ske_s05_0_oven_00_oven-0029-sketch-34.png
subject-05,1,185,0.818356990814209,truck,truck,0,0185_ske_s05_0_truck_00_truck-0136-sketch-39.png
subject-05,1,186,0.988050937652588,elephant,elephant,0,0186_ske_s05_0_elephant_00_elephant-0065-sketch-20.png
subject-05,1,187,0.89220404624939,bird,bird,0,0187_ske_s05_0_bird_00_bird-2312-sketch-27.png
subject-05,1,188,0.729928016662598,truck,truck,0,0188_ske_s05_0_truck_00_truck-0045-sketch-49.png
subject-05,1,189,0.529414176940918,airplane,airplane,0,0189_ske_s05_0_airplane_00_airplane-0034-sketch-39.png
subject-05,1,190,0.511269092559814,cat,cat,0,0190_ske_s05_0_cat_00_cat-0274-sketch-26.png
subject-05,1,191,1.41325402259827,truck,truck,0,0191_ske_s05_0_truck_00_truck-0167-sketch-20.png
subject-05,1,192,0.81111478805542,car,car,0,0192_ske_s05_0_car_00_car-0064-sketch-2.png
subject-05,1,193,0.992816925048828,bird,bird,0,0193_ske_s05_0_bird_00_bird-0292-sketch-41.png
subject-05,1,194,0.702626943588257,cat,cat,0,0194_ske_s05_0_cat_00_cat-0302-sketch-6.png
subject-05,1,195,1.02048516273499,dog,dog,0,0195_ske_s05_0_dog_00_dog-3915-sketch-0.png
subject-05,1,196,1.39831805229187,car,truck,0,0196_ske_s05_0_truck_00_truck-0302-sketch-50.png
subject-05,1,197,0.989897966384888,cat,cat,0,0197_ske_s05_0_cat_00_cat-0043-sketch-47.png
subject-05,1,198,1.50002193450928,dog,dog,0,0198_ske_s05_0_dog_00_dog-1393-sketch-3.png
subject-05,1,199,1.19390916824341,bicycle,bicycle,0,0199_ske_s05_0_bicycle_00_bicycle-0056-sketch-12.png
subject-05,1,200,0.541668176651001,cat,cat,0,0200_ske_s05_0_cat_00_cat-0265-sketch-18.png
subject-05,1,201,1.50008606910706,cat,cat,0,0201_ske_s05_0_cat_00_cat-0245-sketch-46.png
subject-05,1,202,0.583126068115234,chair,chair,0,0202_ske_s05_0_chair_00_chair-0129-sketch-33.png
subject-05,1,203,0.689340114593506,car,car,0,0203_ske_s05_0_car_00_car-0047-sketch-50.png
subject-05,1,204,0.622818946838379,bottle,bottle,0,0204_ske_s05_0_bottle_00_bottle-0050-sketch-9.png
subject-05,1,205,1.08270001411438,truck,truck,0,0205_ske_s05_0_truck_00_truck-0154-sketch-0.png
subject-05,1,206,0.698479890823364,clock,clock,0,0206_ske_s05_0_clock_00_clock-0143-sketch-45.png
subject-05,1,207,0.572163820266724,bottle,bottle,0,0207_ske_s05_0_bottle_00_bottle-0184-sketch-37.png
subject-05,1,208,0.876178979873657,bottle,bottle,0,0208_ske_s05_0_bottle_00_bottle-0107-sketch-13.png
subject-05,1,209,1.19367408752441,chair,chair,0,0209_ske_s05_0_chair_00_chair-0013-sketch-2.png
subject-05,1,210,0.995731830596924,bird,bird,0,0210_ske_s05_0_bird_00_bird-0325-sketch-25.png
subject-05,1,211,0.743400096893311,dog,dog,0,0211_ske_s05_0_dog_00_dog-3503-sketch-6.png
subject-05,1,212,0.649408102035522,bicycle,bicycle,0,0212_ske_s05_0_bicycle_00_bicycle-0087-sketch-40.png
subject-05,1,213,0.779235124588013,bottle,bottle,0,0213_ske_s05_0_bottle_00_bottle-0189-sketch-41.png
subject-05,1,214,0.616830825805664,oven,oven,0,0214_ske_s05_0_oven_00_oven-0049-sketch-7.png
subject-05,1,215,1.2906219959259,elephant,elephant,0,0215_ske_s05_0_elephant_00_elephant-0025-sketch-30.png
subject-05,1,216,0.630436897277832,truck,truck,0,0216_ske_s05_0_truck_00_truck-0025-sketch-30.png
subject-05,1,217,0.604404926300049,boat,boat,0,0217_ske_s05_0_boat_00_boat-0034-sketch-39.png
subject-05,1,218,0.478055953979492,bottle,bottle,0,0218_ske_s05_0_bottle_00_bottle-0130-sketch-34.png
subject-05,1,219,0.68619704246521,bird,bird,0,0219_ske_s05_0_bird_00_bird-1096-sketch-31.png
subject-05,1,220,0.863594055175781,boat,boat,0,0220_ske_s05_0_boat_00_boat-0194-sketch-45.png
subject-05,1,221,0.631418943405151,dog,dog,0,0221_ske_s05_0_dog_00_dog-3417-sketch-2.png
subject-05,1,222,1.46926999092102,dog,dog,0,0222_ske_s05_0_dog_00_dog-4475-sketch-11.png
subject-05,1,223,0.775227069854736,elephant,elephant,0,0223_ske_s05_0_elephant_00_elephant-0011-sketch-18.png
subject-05,1,224,0.509050130844116,bear,bear,0,0224_ske_s05_0_bear_00_bear-0081-sketch-36.png
subject-05,1,225,0.654747009277344,chair,chair,0,0225_ske_s05_0_chair_00_chair-0105-sketch-11.png
subject-05,1,226,0.638590097427368,bird,bird,0,0226_ske_s05_0_bird_00_bird-1860-sketch-33.png
subject-05,1,227,0.726478815078735,bird,bird,0,0227_ske_s05_0_bird_00_bird-0954-sketch-40.png
subject-05,1,228,0.506242990493774,cat,cat,0,0228_ske_s05_0_cat_00_cat-0016-sketch-22.png
subject-05,1,229,0.505913019180298,keyboard,keyboard,0,0229_ske_s05_0_keyboard_00_keyboard-0039-sketch-43.png
subject-05,1,230,0.909969091415405,cat,cat,0,0230_ske_s05_0_cat_00_cat-0104-sketch-10.png
subject-05,1,231,1.2798068523407,bird,bird,0,0231_ske_s05_0_bird_00_bird-1510-sketch-39.png
subject-05,1,232,0.569478034973145,knife,knife,0,0232_ske_s05_0_knife_00_knife-0013-sketch-2.png
subject-05,1,233,0.665285110473633,keyboard,keyboard,0,0233_ske_s05_0_keyboard_00_keyboard-0068-sketch-23.png
subject-05,1,234,0.613013029098511,knife,knife,0,0234_ske_s05_0_knife_00_knife-0010-sketch-17.png
subject-05,1,235,1.02097702026367,bicycle,bicycle,0,0235_ske_s05_0_bicycle_00_bicycle-0054-sketch-10.png
subject-05,1,236,0.986852169036865,bird,bird,0,0236_ske_s05_0_bird_00_bird-1562-sketch-40.png
subject-05,1,237,0.808694124221802,car,car,0,0237_ske_s05_0_car_00_car-0030-sketch-35.png
subject-05,1,238,1.28043794631958,car,car,0,0238_ske_s05_0_car_00_car-0124-sketch-28.png
subject-05,1,239,0.598466873168945,keyboard,keyboard,0,0239_ske_s05_0_keyboard_00_keyboard-0004-sketch-11.png
subject-05,1,240,0.709903001785278,car,car,0,0240_ske_s05_0_car_00_car-0021-sketch-27.png
subject-05,1,241,1.12581205368042,boat,boat,0,0241_ske_s05_0_boat_00_boat-0110-sketch-15.png
subject-05,1,242,0.933763980865479,bottle,bottle,0,0242_ske_s05_0_bottle_00_bottle-0237-sketch-39.png
subject-05,1,243,1.11164021492004,cat,bear,0,0243_ske_s05_0_bear_00_bear-0137-sketch-40.png
subject-05,1,244,1.45522809028625,boat,boat,0,0244_ske_s05_0_boat_00_boat-0074-sketch-29.png
subject-05,1,245,0.63311505317688,bear,bear,0,0245_ske_s05_0_bear_00_bear-0036-sketch-40.png
subject-05,1,246,0.670827150344849,keyboard,keyboard,0,0246_ske_s05_0_keyboard_00_keyboard-0084-sketch-38.png
subject-05,1,247,0.648529052734375,elephant,elephant,0,0247_ske_s05_0_elephant_00_elephant-0028-sketch-33.png
subject-05,1,248,0.622468233108521,knife,knife,0,0248_ske_s05_0_knife_00_knife-0029-sketch-34.png
subject-05,1,249,0.70218300819397,truck,truck,0,0249_ske_s05_0_truck_00_truck-0307-sketch-0.png
subject-05,1,250,0.836336135864258,dog,dog,0,0250_ske_s05_0_dog_00_dog-2506-sketch-23.png
subject-05,1,251,0.837804079055786,bicycle,bicycle,0,0251_ske_s05_0_bicycle_00_bicycle-0057-sketch-13.png
subject-05,1,252,NaN,na,clock,0,0252_ske_s05_0_clock_00_clock-0115-sketch-2.png
subject-05,1,253,0.527623891830444,chair,chair,0,0253_ske_s05_0_chair_00_chair-0067-sketch-22.png
subject-05,1,254,0.589432954788208,keyboard,keyboard,0,0254_ske_s05_0_keyboard_00_keyboard-0038-sketch-42.png
subject-05,1,255,1.30895495414734,keyboard,oven,0,0255_ske_s05_0_oven_00_oven-0013-sketch-2.png
subject-05,1,256,0.937082052230835,dog,dog,0,0256_ske_s05_0_dog_00_dog-0243-sketch-44.png
subject-05,1,257,1.39291405677795,keyboard,keyboard,0,0257_ske_s05_0_keyboard_00_keyboard-0098-sketch-50.png
subject-05,1,258,0.71064305305481,chair,chair,0,0258_ske_s05_0_chair_00_chair-0079-sketch-33.png
subject-05,1,259,1.36630201339722,truck,truck,0,0259_ske_s05_0_truck_00_truck-0012-sketch-19.png
subject-05,1,260,NaN,na,bird,0,0260_ske_s05_0_bird_00_bird-1749-sketch-25.png
subject-05,1,261,1.0839741230011,boat,boat,0,0261_ske_s05_0_boat_00_boat-0088-sketch-41.png
subject-05,1,262,0.601710081100464,airplane,airplane,0,0262_ske_s05_0_airplane_00_airplane-0003-sketch-10.png
subject-05,1,263,1.3196439743042,bird,bird,0,0263_ske_s05_0_bird_00_bird-0748-sketch-39.png
subject-05,1,264,0.641506910324097,clock,clock,0,0264_ske_s05_0_clock_00_clock-0123-sketch-27.png
subject-05,1,265,0.91736102104187,bird,bird,0,0265_ske_s05_0_bird_00_bird-1033-sketch-20.png
subject-05,1,266,0.817214965820312,bird,bird,0,0266_ske_s05_0_bird_00_bird-2372-sketch-36.png
subject-05,1,267,0.784894943237305,boat,boat,0,0267_ske_s05_0_boat_00_boat-0085-sketch-39.png
subject-05,1,268,1.05656313896179,truck,truck,0,0268_ske_s05_0_truck_00_truck-0303-sketch-6.png
subject-05,1,269,0.624469041824341,clock,clock,0,0269_ske_s05_0_clock_00_clock-0073-sketch-28.png
subject-05,1,270,1.14053201675415,elephant,elephant,0,0270_ske_s05_0_elephant_00_elephant-0082-sketch-36.png
subject-05,1,271,0.874271154403687,elephant,elephant,0,0271_ske_s05_0_elephant_00_elephant-0050-sketch-8.png
subject-05,1,272,0.667817115783691,chair,chair,0,0272_ske_s05_0_chair_00_chair-0006-sketch-13.png
subject-05,1,273,0.569749116897583,bird,bird,0,0273_ske_s05_0_bird_00_bird-0228-sketch-3.png
subject-05,1,274,0.639452934265137,chair,chair,0,0274_ske_s05_0_chair_00_chair-0014-sketch-20.png
subject-05,1,275,0.723405122756958,oven,oven,0,0275_ske_s05_0_oven_00_oven-0026-sketch-31.png
subject-05,1,276,0.721218109130859,cat,cat,0,0276_ske_s05_0_cat_00_cat-0279-sketch-30.png
subject-05,1,277,0.544938087463379,boat,boat,0,0277_ske_s05_0_boat_00_boat-0080-sketch-34.png
subject-05,1,278,1.23125410079956,bicycle,bicycle,0,0278_ske_s05_0_bicycle_00_bicycle-0048-sketch-6.png
subject-05,1,279,0.950537919998169,dog,dog,0,0279_ske_s05_0_dog_00_dog-4325-sketch-13.png
subject-05,1,280,0.810522079467773,bird,bird,0,0280_ske_s05_0_bird_00_bird-0749-sketch-4.png
subject-05,1,281,0.582211017608643,clock,clock,0,0281_ske_s05_0_clock_00_clock-0131-sketch-34.png
subject-05,1,282,NaN,na,airplane,0,0282_ske_s05_0_airplane_00_airplane-0025-sketch-30.png
subject-05,1,283,NaN,na,oven,0,0283_ske_s05_0_oven_00_oven-0041-sketch-45.png
subject-05,1,284,0.936115980148315,car,car,0,0284_ske_s05_0_car_00_car-0013-sketch-2.png
subject-05,1,285,0.679347991943359,boat,boat,0,0285_ske_s05_0_boat_00_boat-0068-sketch-23.png
subject-05,1,286,0.709423065185547,knife,knife,0,0286_ske_s05_0_knife_00_knife-0023-sketch-29.png
subject-05,1,287,0.586899995803833,bear,bear,0,0287_ske_s05_0_bear_00_bear-0023-sketch-29.png
subject-05,1,288,0.530873775482178,bottle,bottle,0,0288_ske_s05_0_bottle_00_bottle-0330-sketch-30.png
subject-05,1,289,0.784897089004517,dog,dog,0,0289_ske_s05_0_dog_00_dog-3338-sketch-40.png
subject-05,1,290,0.83269190788269,elephant,elephant,0,0290_ske_s05_0_elephant_00_elephant-0090-sketch-43.png
subject-05,1,291,0.694416046142578,dog,dog,0,0291_ske_s05_0_dog_00_dog-0476-sketch-26.png
subject-05,1,292,0.60620903968811,knife,knife,0,0292_ske_s05_0_knife_00_knife-0045-sketch-49.png
subject-05,1,293,0.681946039199829,keyboard,keyboard,0,0293_ske_s05_0_keyboard_00_keyboard-0085-sketch-39.png
subject-05,1,294,0.669713973999023,boat,boat,0,0294_ske_s05_0_boat_00_boat-0152-sketch-8.png
subject-05,1,295,0.593636989593506,clock,clock,0,0295_ske_s05_0_clock_00_clock-0138-sketch-40.png
subject-05,1,296,0.71347188949585,bicycle,bicycle,0,0296_ske_s05_0_bicycle_00_bicycle-0099-sketch-6.png
subject-05,1,297,1.00510191917419,keyboard,keyboard,0,0297_ske_s05_0_keyboard_00_keyboard-0062-sketch-18.png
subject-05,1,298,0.691157102584839,bottle,bottle,0,0298_ske_s05_0_bottle_00_bottle-0207-sketch-11.png
subject-05,1,299,0.645104885101318,boat,boat,0,0299_ske_s05_0_boat_00_boat-0237-sketch-38.png
subject-05,1,300,1.34871411323547,bird,bird,0,0300_ske_s05_0_bird_00_bird-0415-sketch-14.png
subject-05,1,301,0.574655055999756,cat,cat,0,0301_ske_s05_0_cat_00_cat-0048-sketch-7.png
subject-05,1,302,0.5886549949646,bird,bird,0,0302_ske_s05_0_bird_00_bird-2262-sketch-28.png
subject-05,1,303,0.820404052734375,truck,truck,0,0303_ske_s05_0_truck_00_truck-0336-sketch-35.png
subject-05,1,304,1.02425289154053,elephant,elephant,0,0304_ske_s05_0_elephant_00_elephant-0098-sketch-50.png
subject-05,1,305,0.607640027999878,clock,clock,0,0305_ske_s05_0_clock_00_clock-0099-sketch-6.png
subject-05,1,306,0.727560043334961,bottle,bottle,0,0306_ske_s05_0_bottle_00_bottle-0031-sketch-36.png
subject-05,1,307,0.769731998443604,knife,knife,0,0307_ske_s05_0_knife_00_knife-0031-sketch-36.png
subject-05,1,308,0.669198989868164,chair,chair,0,0308_ske_s05_0_chair_00_chair-0197-sketch-49.png
subject-05,1,309,0.576894998550415,boat,boat,0,0309_ske_s05_0_boat_00_boat-0123-sketch-27.png
subject-05,1,310,0.616722822189331,clock,clock,0,0310_ske_s05_0_clock_00_clock-0144-sketch-46.png
subject-05,1,311,0.611064910888672,clock,clock,0,0311_ske_s05_0_clock_00_clock-0085-sketch-39.png
subject-05,1,312,0.864291906356812,oven,oven,0,0312_ske_s05_0_oven_00_oven-0021-sketch-27.png
subject-05,1,313,0.770519018173218,bird,bird,0,0313_ske_s05_0_bird_00_bird-0479-sketch-26.png
subject-05,1,314,0.561918973922729,cat,cat,0,0314_ske_s05_0_cat_00_cat-0042-sketch-46.png
subject-05,1,315,1.07622194290161,dog,dog,0,0315_ske_s05_0_dog_00_dog-1711-sketch-40.png
subject-05,1,316,1.14973902702332,airplane,airplane,0,0316_ske_s05_0_airplane_00_airplane-0048-sketch-6.png
subject-05,1,317,0.681576013565063,bird,bird,0,0317_ske_s05_0_bird_00_bird-0072-sketch-27.png
subject-05,1,318,1.37930202484131,airplane,airplane,0,0318_ske_s05_0_airplane_00_airplane-0018-sketch-24.png
subject-05,1,319,1.11506700515747,dog,dog,0,0319_ske_s05_0_dog_00_dog-1797-sketch-26.png
subject-05,1,320,0.555091142654419,keyboard,keyboard,0,0320_ske_s05_0_keyboard_00_keyboard-0037-sketch-41.png
subject-05,1,321,0.702562093734741,airplane,airplane,0,0321_ske_s05_0_airplane_00_airplane-0049-sketch-7.png
subject-05,1,322,0.44840407371521,boat,boat,0,0322_ske_s05_0_boat_00_boat-0173-sketch-26.png
subject-05,1,323,0.472265958786011,cat,cat,0,0323_ske_s05_0_cat_00_cat-0241-sketch-42.png
subject-05,1,324,0.52396297454834,chair,chair,0,0324_ske_s05_0_chair_00_chair-0052-sketch-0.png
subject-05,1,325,1.02636003494263,knife,knife,0,0325_ske_s05_0_knife_00_knife-0039-sketch-43.png
subject-05,1,326,0.575729131698608,keyboard,keyboard,0,0326_ske_s05_0_keyboard_00_keyboard-0042-sketch-46.png
subject-05,1,327,0.553543090820312,dog,dog,0,0327_ske_s05_0_dog_00_dog-2615-sketch-3.png
subject-05,1,328,0.539266109466553,bicycle,bicycle,0,0328_ske_s05_0_bicycle_00_bicycle-0039-sketch-43.png
subject-05,1,329,0.541330099105835,bottle,bottle,0,0329_ske_s05_0_bottle_00_bottle-0217-sketch-20.png
subject-05,1,330,0.940882921218872,bird,bird,0,0330_ske_s05_0_bird_00_bird-0474-sketch-21.png
subject-05,1,331,0.54477596282959,cat,cat,0,0331_ske_s05_0_cat_00_cat-0160-sketch-15.png
subject-05,1,332,0.688616037368774,bird,bird,0,0332_ske_s05_0_bird_00_bird-0880-sketch-2.png
subject-05,1,333,0.674299001693726,bird,bird,0,0333_ske_s05_0_bird_00_bird-1702-sketch-29.png
subject-05,1,334,0.510154962539673,chair,chair,0,0334_ske_s05_0_chair_00_chair-0055-sketch-11.png
subject-05,1,335,0.81793999671936,car,car,0,0335_ske_s05_0_car_00_car-0143-sketch-45.png
subject-05,1,336,0.701833963394165,chair,chair,0,0336_ske_s05_0_chair_00_chair-0176-sketch-3.png
subject-05,1,337,1.2058629989624,bird,bird,0,0337_ske_s05_0_bird_00_bird-1565-sketch-43.png
subject-05,1,338,NaN,na,bear,0,0338_ske_s05_0_bear_00_bear-0033-sketch-38.png
subject-05,1,339,1.14738583564758,keyboard,keyboard,0,0339_ske_s05_0_keyboard_00_keyboard-0019-sketch-25.png
subject-05,1,340,0.765110969543457,elephant,elephant,0,0340_ske_s05_0_elephant_00_elephant-0039-sketch-43.png
subject-05,1,341,0.674616098403931,oven,oven,0,0341_ske_s05_0_oven_00_oven-0018-sketch-24.png
subject-05,1,342,0.839000940322876,bird,bird,0,0342_ske_s05_0_bird_00_bird-0939-sketch-27.png
subject-05,1,343,1.33660197257996,elephant,elephant,0,0343_ske_s05_0_elephant_00_elephant-0044-sketch-48.png
subject-05,1,344,0.604274988174438,oven,oven,0,0344_ske_s05_0_oven_00_oven-0050-sketch-8.png
subject-05,1,345,0.700109004974365,elephant,elephant,0,0345_ske_s05_0_elephant_00_elephant-0019-sketch-25.png
subject-05,1,346,0.852128982543945,knife,knife,0,0346_ske_s05_0_knife_00_knife-0022-sketch-28.png
subject-05,1,347,1.00366497039795,keyboard,keyboard,0,0347_ske_s05_0_keyboard_00_keyboard-0026-sketch-31.png
subject-05,1,348,0.615849018096924,knife,knife,0,0348_ske_s05_0_knife_00_knife-0006-sketch-13.png
subject-05,1,349,0.605451822280884,boat,boat,0,0349_ske_s05_0_boat_00_boat-0029-sketch-34.png
subject-05,1,350,0.699249029159546,elephant,elephant,0,0350_ske_s05_0_elephant_00_elephant-0040-sketch-44.png
subject-05,1,351,0.936954021453857,car,truck,0,0351_ske_s05_0_truck_00_truck-0286-sketch-36.png
subject-05,1,352,0.438858985900879,clock,clock,0,0352_ske_s05_0_clock_00_clock-0057-sketch-13.png
subject-05,1,353,0.5245680809021,chair,chair,0,0353_ske_s05_0_chair_00_chair-0051-sketch-9.png
subject-05,1,354,0.550381898880005,boat,boat,0,0354_ske_s05_0_boat_00_boat-0146-sketch-48.png
subject-05,1,355,0.506550073623657,oven,oven,0,0355_ske_s05_0_oven_00_oven-0007-sketch-14.png
subject-05,1,356,0.668246984481812,bicycle,bicycle,0,0356_ske_s05_0_bicycle_00_bicycle-0038-sketch-42.png
subject-05,1,357,0.69786810874939,car,truck,0,0357_ske_s05_0_truck_00_truck-0275-sketch-26.png
subject-05,1,358,1.37571382522583,dog,dog,0,0358_ske_s05_0_dog_00_dog-3695-sketch-40.png
subject-05,1,359,0.727346897125244,bicycle,bicycle,0,0359_ske_s05_0_bicycle_00_bicycle-0016-sketch-22.png
subject-05,1,360,0.969107151031494,bicycle,bicycle,0,0360_ske_s05_0_bicycle_00_bicycle-0070-sketch-25.png
subject-05,1,361,0.693304061889648,knife,knife,0,0361_ske_s05_0_knife_00_knife-0034-sketch-39.png
subject-05,1,362,0.813213109970093,car,car,0,0362_ske_s05_0_car_00_car-0122-sketch-26.png
subject-05,1,363,0.728775024414062,car,car,0,0363_ske_s05_0_car_00_car-0096-sketch-49.png
subject-05,1,364,0.606576204299927,knife,knife,0,0364_ske_s05_0_knife_00_knife-0042-sketch-46.png
subject-05,1,365,0.710279941558838,truck,truck,0,0365_ske_s05_0_truck_00_truck-0232-sketch-33.png
subject-05,1,366,1.13449215888977,car,car,0,0366_ske_s05_0_car_00_car-0139-sketch-41.png
subject-05,1,367,0.49201512336731,airplane,airplane,0,0367_ske_s05_0_airplane_00_airplane-0032-sketch-37.png
subject-05,1,368,0.66182804107666,knife,knife,0,0368_ske_s05_0_knife_00_knife-0009-sketch-16.png
subject-05,1,369,0.61756706237793,clock,clock,0,0369_ske_s05_0_clock_00_clock-0071-sketch-26.png
subject-05,1,370,0.767552852630615,dog,dog,0,0370_ske_s05_0_dog_00_dog-4909-sketch-37.png
subject-05,1,371,0.583307981491089,chair,chair,0,0371_ske_s05_0_chair_00_chair-0124-sketch-29.png
subject-05,1,372,0.625160932540894,chair,chair,0,0372_ske_s05_0_chair_00_chair-0155-sketch-10.png
subject-05,1,373,0.694860935211182,car,car,0,0373_ske_s05_0_car_00_car-0055-sketch-11.png
subject-05,1,374,0.694630861282349,airplane,airplane,0,0374_ske_s05_0_airplane_00_airplane-0029-sketch-34.png
subject-05,1,375,0.958526849746704,cat,cat,0,0375_ske_s05_0_cat_00_cat-0073-sketch-29.png
subject-05,1,376,0.718277931213379,bird,bird,0,0376_ske_s05_0_bird_00_bird-1081-sketch-18.png
subject-05,1,377,0.830173969268799,cat,cat,0,0377_ske_s05_0_cat_00_cat-0053-sketch-10.png
subject-05,1,378,NaN,na,airplane,0,0378_ske_s05_0_airplane_00_airplane-0033-sketch-38.png
subject-05,1,379,0.919775009155273,airplane,boat,0,0379_ske_s05_0_boat_00_boat-0178-sketch-30.png
subject-05,1,380,1.17145991325378,dog,dog,0,0380_ske_s05_0_dog_00_dog-2323-sketch-41.png
subject-05,1,381,0.995699167251587,oven,oven,0,0381_ske_s05_0_oven_00_oven-0034-sketch-39.png
subject-05,1,382,0.905271768569946,chair,chair,0,0382_ske_s05_0_chair_00_chair-0029-sketch-34.png
subject-05,1,383,1.03099083900452,dog,dog,0,0383_ske_s05_0_dog_00_dog-3000-sketch-11.png
subject-05,1,384,0.720762968063354,knife,knife,0,0384_ske_s05_0_knife_00_knife-0001-sketch-0.png
subject-05,1,385,1.02467608451843,cat,bear,0,0385_ske_s05_0_bear_00_bear-0135-sketch-39.png
subject-05,1,386,0.652379035949707,cat,cat,0,0386_ske_s05_0_cat_00_cat-0233-sketch-35.png
subject-05,1,387,1.10839581489563,truck,truck,0,0387_ske_s05_0_truck_00_truck-0244-sketch-44.png
subject-05,1,388,0.654368162155151,bicycle,bicycle,0,0388_ske_s05_0_bicycle_00_bicycle-0101-sketch-8.png
subject-05,1,389,0.84617280960083,bird,bird,0,0389_ske_s05_0_bird_00_bird-0384-sketch-32.png
subject-05,1,390,0.621765851974487,chair,chair,0,0390_ske_s05_0_chair_00_chair-0094-sketch-47.png
subject-05,1,391,0.641335964202881,clock,clock,0,0391_ske_s05_0_clock_00_clock-0060-sketch-16.png
subject-05,1,392,0.669315099716187,chair,bicycle,0,0392_ske_s05_0_bicycle_00_bicycle-0047-sketch-50.png
subject-05,1,393,0.683058977127075,chair,chair,0,0393_ske_s05_0_chair_00_chair-0130-sketch-34.png
subject-05,1,394,0.604957103729248,bicycle,bicycle,0,0394_ske_s05_0_bicycle_00_bicycle-0068-sketch-23.png
subject-05,1,395,0.768768072128296,keyboard,keyboard,0,0395_ske_s05_0_keyboard_00_keyboard-0016-sketch-22.png
subject-05,1,396,NaN,na,bicycle,0,0396_ske_s05_0_bicycle_00_bicycle-0078-sketch-32.png
subject-05,1,397,0.580341100692749,oven,oven,0,0397_ske_s05_0_oven_00_oven-0033-sketch-38.png
subject-05,1,398,1.14612102508545,cat,bird,0,0398_ske_s05_0_bird_00_bird-0685-sketch-28.png
subject-05,1,399,NaN,na,knife,0,0399_ske_s05_0_knife_00_knife-0033-sketch-38.png
subject-05,1,400,0.811747074127197,clock,boat,0,0400_ske_s05_0_boat_00_boat-0016-sketch-22.png
subject-05,1,401,0.649688959121704,airplane,airplane,0,0401_ske_s05_0_airplane_00_airplane-0019-sketch-25.png
subject-05,1,402,0.707383155822754,truck,truck,0,0402_ske_s05_0_truck_00_truck-0385-sketch-33.png
subject-05,1,403,1.21303606033325,dog,dog,0,0403_ske_s05_0_dog_00_dog-4709-sketch-4.png
subject-05,1,404,0.587019920349121,oven,oven,0,0404_ske_s05_0_oven_00_oven-0001-sketch-0.png
subject-05,1,405,0.394963979721069,cat,cat,0,0405_ske_s05_0_cat_00_cat-0090-sketch-44.png
subject-05,1,406,0.72654390335083,truck,truck,0,0406_ske_s05_0_truck_00_truck-0308-sketch-1.png
subject-05,1,407,0.724544048309326,bottle,bottle,0,0407_ske_s05_0_bottle_00_bottle-0143-sketch-46.png
subject-05,1,408,0.660354852676392,knife,knife,0,0408_ske_s05_0_knife_00_knife-0012-sketch-19.png
subject-05,1,409,0.697979927062988,bicycle,bicycle,0,0409_ske_s05_0_bicycle_00_bicycle-0040-sketch-44.png
subject-05,1,410,0.609911918640137,oven,oven,0,0410_ske_s05_0_oven_00_oven-0028-sketch-33.png
subject-05,1,411,0.629642963409424,elephant,elephant,0,0411_ske_s05_0_elephant_00_elephant-0016-sketch-22.png
subject-05,1,412,0.721590995788574,airplane,airplane,0,0412_ske_s05_0_airplane_00_airplane-0036-sketch-40.png
subject-05,1,413,0.719491958618164,bird,bird,0,0413_ske_s05_0_bird_00_bird-0640-sketch-33.png
subject-05,1,414,0.611155033111572,knife,knife,0,0414_ske_s05_0_knife_00_knife-0048-sketch-6.png
subject-05,1,415,0.558969020843506,chair,chair,0,0415_ske_s05_0_chair_00_chair-0072-sketch-27.png
subject-05,1,416,0.546931982040405,bird,bird,0,0416_ske_s05_0_bird_00_bird-1937-sketch-10.png
subject-05,1,417,0.760796070098877,elephant,elephant,0,0417_ske_s05_0_elephant_00_elephant-0022-sketch-28.png
subject-05,1,418,1.19265007972717,dog,dog,0,0418_ske_s05_0_dog_00_dog-3303-sketch-0.png
subject-05,1,419,0.960256099700928,airplane,airplane,0,0419_ske_s05_0_airplane_00_airplane-0013-sketch-2.png
subject-05,1,420,0.768049955368042,bird,bird,0,0420_ske_s05_0_bird_00_bird-0809-sketch-48.png
subject-05,1,421,0.997852087020874,keyboard,keyboard,0,0421_ske_s05_0_keyboard_00_keyboard-0074-sketch-29.png
subject-05,1,422,0.549722909927368,boat,boat,0,0422_ske_s05_0_boat_00_boat-0051-sketch-9.png
subject-05,1,423,0.673358917236328,knife,knife,0,0423_ske_s05_0_knife_00_knife-0047-sketch-50.png
subject-05,1,424,0.657446146011353,bottle,bottle,0,0424_ske_s05_0_bottle_00_bottle-0292-sketch-42.png
subject-05,1,425,0.644998073577881,airplane,airplane,0,0425_ske_s05_0_airplane_00_airplane-0021-sketch-27.png
subject-05,1,426,0.729365110397339,car,car,0,0426_ske_s05_0_car_00_car-0138-sketch-40.png
subject-05,1,427,0.562999963760376,keyboard,keyboard,0,0427_ske_s05_0_keyboard_00_keyboard-0022-sketch-28.png
subject-05,1,428,0.690859079360962,cat,cat,0,0428_ske_s05_0_cat_00_cat-0009-sketch-16.png
subject-05,1,429,0.616418123245239,cat,cat,0,0429_ske_s05_0_cat_00_cat-0140-sketch-43.png
subject-05,1,430,0.700051069259644,bicycle,bicycle,0,0430_ske_s05_0_bicycle_00_bicycle-0020-sketch-26.png
subject-05,1,431,0.943935871124268,cat,cat,0,0431_ske_s05_0_cat_00_cat-0158-sketch-13.png
subject-05,1,432,1.50002408027649,bear,bear,0,0432_ske_s05_0_bear_00_bear-0049-sketch-8.png
subject-05,1,433,0.631479978561401,cat,cat,0,0433_ske_s05_0_cat_00_cat-0250-sketch-50.png
subject-05,1,434,0.825520992279053,truck,truck,0,0434_ske_s05_0_truck_00_truck-0007-sketch-14.png
subject-05,1,435,0.727292060852051,boat,boat,0,0435_ske_s05_0_boat_00_boat-0108-sketch-13.png
subject-05,1,436,0.666993141174316,bear,bear,0,0436_ske_s05_0_bear_00_bear-0037-sketch-41.png
subject-05,1,437,0.598867893218994,oven,oven,0,0437_ske_s05_0_oven_00_oven-0012-sketch-19.png
subject-05,1,438,0.976682901382446,dog,dog,0,0438_ske_s05_0_dog_00_dog-5028-sketch-8.png
subject-05,1,439,0.622539043426514,keyboard,keyboard,0,0439_ske_s05_0_keyboard_00_keyboard-0043-sketch-47.png
subject-05,1,440,1.50002288818359,bottle,bottle,0,0440_ske_s05_0_bottle_00_bottle-0082-sketch-37.png
subject-05,1,441,0.666505098342896,bicycle,bicycle,0,0441_ske_s05_0_bicycle_00_bicycle-0053-sketch-1.png
subject-05,1,442,0.637977123260498,truck,truck,0,0442_ske_s05_0_truck_00_truck-0029-sketch-34.png
subject-05,1,443,0.631782054901123,elephant,elephant,0,0443_ske_s05_0_elephant_00_elephant-0020-sketch-26.png
subject-05,1,444,0.71366286277771,oven,chair,0,0444_ske_s05_0_chair_00_chair-0200-sketch-6.png
subject-05,1,445,0.559636116027832,bottle,bottle,0,0445_ske_s05_0_bottle_00_bottle-0296-sketch-46.png
subject-05,1,446,0.595012187957764,knife,knife,0,0446_ske_s05_0_knife_00_knife-0046-sketch-5.png
subject-05,1,447,0.832898855209351,airplane,airplane,0,0447_ske_s05_0_airplane_00_airplane-0027-sketch-32.png
subject-05,1,448,0.670654058456421,airplane,airplane,0,0448_ske_s05_0_airplane_00_airplane-0024-sketch-3.png
subject-05,1,449,1.32470417022705,bird,bird,0,0449_ske_s05_0_bird_00_bird-1756-sketch-31.png
subject-05,1,450,0.620506048202515,chair,chair,0,0450_ske_s05_0_chair_00_chair-0166-sketch-20.png
subject-05,1,451,1.06020879745483,chair,chair,0,0451_ske_s05_0_chair_00_chair-0122-sketch-27.png
subject-05,1,452,1.24999189376831,car,truck,0,0452_ske_s05_0_truck_00_truck-0243-sketch-43.png
subject-05,1,453,0.829945087432861,boat,boat,0,0453_ske_s05_0_boat_00_boat-0052-sketch-0.png
subject-05,1,454,1.19577383995056,bird,bird,0,0454_ske_s05_0_bird_00_bird-0030-sketch-35.png
subject-05,1,455,0.52552604675293,oven,oven,0,0455_ske_s05_0_oven_00_oven-0030-sketch-35.png
subject-05,1,456,0.703248023986816,truck,truck,0,0456_ske_s05_0_truck_00_truck-0112-sketch-17.png
subject-05,1,457,0.752983808517456,keyboard,keyboard,0,0457_ske_s05_0_keyboard_00_keyboard-0091-sketch-44.png
subject-05,1,458,0.658795833587646,bird,bird,0,0458_ske_s05_0_bird_00_bird-1201-sketch-34.png
subject-05,1,459,0.686710119247437,bicycle,bicycle,0,0459_ske_s05_0_bicycle_00_bicycle-0013-sketch-2.png
subject-05,1,460,0.774595022201538,elephant,elephant,0,0460_ske_s05_0_elephant_00_elephant-0043-sketch-47.png
subject-05,1,461,0.768311023712158,airplane,airplane,0,0461_ske_s05_0_airplane_00_airplane-0017-sketch-23.png
subject-05,1,462,0.552335023880005,bird,bird,0,0462_ske_s05_0_bird_00_bird-0274-sketch-25.png
subject-05,1,463,0.558032989501953,clock,clock,0,0463_ske_s05_0_clock_00_clock-0118-sketch-22.png
subject-05,1,464,0.529811859130859,cat,cat,0,0464_ske_s05_0_cat_00_cat-0052-sketch-1.png
subject-05,1,465,1.32975912094116,airplane,airplane,0,0465_ske_s05_0_airplane_00_airplane-0050-sketch-8.png
subject-05,1,466,0.991276979446411,car,truck,0,0466_ske_s05_0_truck_00_truck-0312-sketch-13.png
subject-05,1,467,0.619214057922363,bear,bear,0,0467_ske_s05_0_bear_00_bear-0110-sketch-16.png
subject-05,1,468,0.706828117370605,bottle,bottle,0,0468_ske_s05_0_bottle_00_bottle-0268-sketch-20.png
subject-05,1,469,1.1009349822998,dog,dog,0,0469_ske_s05_0_dog_00_dog-1657-sketch-38.png
subject-05,1,470,1.29065704345703,airplane,airplane,0,0470_ske_s05_0_airplane_00_airplane-0031-sketch-36.png
subject-05,1,471,0.540518999099731,bird,bird,0,0471_ske_s05_0_bird_00_bird-2010-sketch-30.png
subject-05,1,472,0.782603025436401,keyboard,keyboard,0,0472_ske_s05_0_keyboard_00_keyboard-0053-sketch-1.png
subject-05,1,473,0.983896970748901,elephant,elephant,0,0473_ske_s05_0_elephant_00_elephant-0058-sketch-14.png
subject-05,1,474,0.587837934494019,clock,clock,0,0474_ske_s05_0_clock_00_clock-0021-sketch-27.png
subject-05,1,475,0.785969018936157,chair,chair,0,0475_ske_s05_0_chair_00_chair-0178-sketch-31.png
subject-05,1,476,0.533565044403076,boat,boat,0,0476_ske_s05_0_boat_00_boat-0180-sketch-32.png
subject-05,1,477,0.811225891113281,bird,bird,0,0477_ske_s05_0_bird_00_bird-2169-sketch-36.png
subject-05,1,478,0.531275033950806,airplane,airplane,0,0478_ske_s05_0_airplane_00_airplane-0030-sketch-35.png
subject-05,1,479,0.650953054428101,boat,boat,0,0479_ske_s05_0_boat_00_boat-0233-sketch-34.png
subject-05,1,480,0.88858699798584,truck,truck,0,0480_ske_s05_0_truck_00_truck-0301-sketch-5.png
subject-05,1,481,0.724640130996704,chair,chair,0,0481_ske_s05_0_chair_00_chair-0131-sketch-35.png
subject-05,1,482,0.666353940963745,cat,cat,0,0482_ske_s05_0_cat_00_cat-0015-sketch-21.png
subject-05,1,483,0.832242965698242,boat,boat,0,0483_ske_s05_0_boat_00_boat-0079-sketch-33.png
subject-05,1,484,0.714116096496582,car,car,0,0484_ske_s05_0_car_00_car-0145-sketch-47.png
subject-05,1,485,0.83998703956604,dog,dog,0,0485_ske_s05_0_dog_00_dog-4202-sketch-4.png
subject-05,1,486,0.605955839157104,knife,knife,0,0486_ske_s05_0_knife_00_knife-0038-sketch-42.png
subject-05,1,487,1.47186207771301,oven,bicycle,0,0487_ske_s05_0_bicycle_00_bicycle-0058-sketch-14.png
subject-05,1,488,0.611377000808716,bear,bear,0,0488_ske_s05_0_bear_00_bear-0026-sketch-31.png
subject-05,1,489,0.573220014572144,boat,boat,0,0489_ske_s05_0_boat_00_boat-0115-sketch-2.png
subject-05,1,490,0.630780935287476,airplane,airplane,0,0490_ske_s05_0_airplane_00_airplane-0015-sketch-21.png
subject-05,1,491,0.758558988571167,oven,oven,0,0491_ske_s05_0_oven_00_oven-0045-sketch-49.png
subject-05,1,492,1.21840286254883,bird,bird,0,0492_ske_s05_0_bird_00_bird-0357-sketch-9.png
subject-05,1,493,0.506334066390991,bicycle,bicycle,0,0493_ske_s05_0_bicycle_00_bicycle-0066-sketch-21.png
subject-05,1,494,0.584188938140869,airplane,airplane,0,0494_ske_s05_0_airplane_00_airplane-0043-sketch-47.png
subject-05,1,495,0.869904041290283,oven,dog,0,0495_ske_s05_0_dog_00_dog-1035-sketch-27.png
subject-05,1,496,0.555853128433228,cat,cat,0,0496_ske_s05_0_cat_00_cat-0207-sketch-11.png
subject-05,1,497,0.530033826828003,cat,dog,0,0497_ske_s05_0_dog_00_dog-5223-sketch-45.png
subject-05,1,498,0.46558403968811,airplane,airplane,0,0498_ske_s05_0_airplane_00_airplane-0001-sketch-0.png
subject-05,1,499,0.621447801589966,dog,dog,0,0499_ske_s05_0_dog_00_dog-5325-sketch-45.png
subject-05,1,500,0.661166191101074,bottle,bottle,0,0500_ske_s05_0_bottle_00_bottle-0243-sketch-44.png
subject-05,1,501,0.60106897354126,knife,knife,0,0501_ske_s05_0_knife_00_knife-0005-sketch-12.png
subject-05,1,502,0.81885290145874,knife,knife,0,0502_ske_s05_0_knife_00_knife-0049-sketch-7.png
subject-05,1,503,0.784536838531494,chair,chair,0,0503_ske_s05_0_chair_00_chair-0167-sketch-21.png
subject-05,1,504,0.624402046203613,knife,knife,0,0504_ske_s05_0_knife_00_knife-0019-sketch-25.png
subject-05,1,505,1.20211505889893,bear,bear,0,0505_ske_s05_0_bear_00_bear-0179-sketch-32.png
subject-05,1,506,0.976069927215576,bottle,bottle,0,0506_ske_s05_0_bottle_00_bottle-0071-sketch-27.png
subject-05,1,507,0.987900972366333,car,car,0,0507_ske_s05_0_car_00_car-0076-sketch-30.png
subject-05,1,508,0.819583892822266,cat,cat,0,0508_ske_s05_0_cat_00_cat-0059-sketch-16.png
subject-05,1,509,0.877573013305664,bear,bear,0,0509_ske_s05_0_bear_00_bear-0079-sketch-34.png
subject-05,1,510,0.791108131408691,dog,dog,0,0510_ske_s05_0_dog_00_dog-0011-sketch-18.png
subject-05,1,511,0.680947065353394,clock,clock,0,0511_ske_s05_0_clock_00_clock-0087-sketch-40.png
subject-05,1,512,1.0148868560791,bird,bird,0,0512_ske_s05_0_bird_00_bird-1342-sketch-24.png
subject-05,1,513,0.758744955062866,clock,clock,0,0513_ske_s05_0_clock_00_clock-0074-sketch-29.png
subject-05,1,514,0.822370052337646,elephant,elephant,0,0514_ske_s05_0_elephant_00_elephant-0076-sketch-30.png
subject-05,1,515,1.43813705444336,chair,chair,0,0515_ske_s05_0_chair_00_chair-0060-sketch-16.png
subject-05,1,516,0.870044946670532,oven,oven,0,0516_ske_s05_0_oven_00_oven-0036-sketch-40.png
subject-05,1,517,0.721920013427734,car,truck,0,0517_ske_s05_0_truck_00_truck-0289-sketch-39.png
subject-05,1,518,0.952095031738281,boat,boat,0,0518_ske_s05_0_boat_00_boat-0001-sketch-0.png
subject-05,1,519,0.91349983215332,dog,dog,0,0519_ske_s05_0_dog_00_dog-2150-sketch-22.png
subject-05,1,520,0.909301996231079,bear,bear,0,0520_ske_s05_0_bear_00_bear-0161-sketch-16.png
subject-05,1,521,1.00508689880371,knife,knife,0,0521_ske_s05_0_knife_00_knife-0051-sketch-9.png
subject-05,1,522,1.30911898612976,bear,bear,0,0522_ske_s05_0_bear_00_bear-0171-sketch-25.png
subject-05,1,523,1.43494296073914,dog,dog,0,0523_ske_s05_0_dog_00_dog-3251-sketch-9.png
subject-05,1,524,1.16469287872314,knife,knife,0,0524_ske_s05_0_knife_00_knife-0016-sketch-22.png
subject-05,1,525,1.12258291244507,knife,knife,0,0525_ske_s05_0_knife_00_knife-0035-sketch-4.png
subject-05,1,526,0.886189222335815,bear,bear,0,0526_ske_s05_0_bear_00_bear-0112-sketch-18.png
subject-05,1,527,1.0599319934845,bear,bear,0,0527_ske_s05_0_bear_00_bear-0198-sketch-5.png
subject-05,1,528,0.879709959030151,clock,clock,0,0528_ske_s05_0_clock_00_clock-0076-sketch-30.png
subject-05,1,529,1.11950087547302,bottle,bottle,0,0529_ske_s05_0_bottle_00_bottle-0321-sketch-22.png
subject-05,1,530,0.977617979049683,bird,bird,0,0530_ske_s05_0_bird_00_bird-0491-sketch-37.png
subject-05,1,531,0.839334964752197,cat,cat,0,0531_ske_s05_0_cat_00_cat-0293-sketch-43.png
subject-05,1,532,0.694994211196899,keyboard,keyboard,0,0532_ske_s05_0_keyboard_00_keyboard-0044-sketch-48.png
subject-05,1,533,0.774890899658203,car,car,0,0533_ske_s05_0_car_00_car-0151-sketch-7.png
subject-05,1,534,0.964791059494019,boat,boat,0,0534_ske_s05_0_boat_00_boat-0212-sketch-15.png
subject-05,1,535,1.13257098197937,elephant,elephant,0,0535_ske_s05_0_elephant_00_elephant-0047-sketch-50.png
subject-05,1,536,1.47865295410156,oven,oven,0,0536_ske_s05_0_oven_00_oven-0047-sketch-50.png
subject-05,1,537,0.835988998413086,chair,chair,0,0537_ske_s05_0_chair_00_chair-0011-sketch-18.png
subject-05,1,538,1.2279200553894,dog,dog,0,0538_ske_s05_0_dog_00_dog-1292-sketch-3.png
subject-05,1,539,0.901732921600342,bear,bear,0,0539_ske_s05_0_bear_00_bear-0107-sketch-13.png
subject-05,1,540,1.35748219490051,cat,cat,0,0540_ske_s05_0_cat_00_cat-0128-sketch-32.png
subject-05,1,541,0.821499109268188,car,car,0,0541_ske_s05_0_car_00_car-0125-sketch-29.png
subject-05,1,542,1.06715488433838,bear,bear,0,0542_ske_s05_0_bear_00_bear-0087-sketch-41.png
subject-05,1,543,1.37920999526978,bird,bird,0,0543_ske_s05_0_bird_00_bird-0047-sketch-50.png
subject-05,1,544,1.17881011962891,truck,truck,0,0544_ske_s05_0_truck_00_truck-0076-sketch-30.png
subject-05,1,545,1.50002288818359,bird,bird,0,0545_ske_s05_0_bird_00_bird-0316-sketch-17.png
subject-05,1,546,0.8125319480896,bicycle,bicycle,0,0546_ske_s05_0_bicycle_00_bicycle-0075-sketch-3.png
subject-05,1,547,0.784170866012573,keyboard,keyboard,0,0547_ske_s05_0_keyboard_00_keyboard-0008-sketch-15.png
subject-05,1,548,1.49985003471375,boat,truck,0,0548_ske_s05_0_truck_00_truck-0196-sketch-47.png
subject-05,1,549,NaN,na,dog,0,0549_ske_s05_0_dog_00_dog-1460-sketch-44.png
subject-05,1,550,0.79570484161377,dog,dog,0,0550_ske_s05_0_dog_00_dog-2198-sketch-20.png
subject-05,1,551,0.809551000595093,dog,dog,0,0551_ske_s05_0_dog_00_dog-4581-sketch-16.png
subject-05,1,552,0.875472784042358,bear,bear,0,0552_ske_s05_0_bear_00_bear-0199-sketch-50.png
subject-05,1,553,0.721428155899048,bicycle,bicycle,0,0553_ske_s05_0_bicycle_00_bicycle-0081-sketch-35.png
subject-05,1,554,0.688859939575195,bottle,bottle,0,0554_ske_s05_0_bottle_00_bottle-0003-sketch-10.png
subject-05,1,555,0.555041074752808,car,car,0,0555_ske_s05_0_car_00_car-0153-sketch-9.png
subject-05,1,556,0.638430833816528,elephant,elephant,0,0556_ske_s05_0_elephant_00_elephant-0048-sketch-6.png
subject-05,1,557,0.642355918884277,bottle,bottle,0,0557_ske_s05_0_bottle_00_bottle-0086-sketch-40.png
subject-05,1,558,0.59824013710022,boat,boat,0,0558_ske_s05_0_boat_00_boat-0253-sketch-7.png
subject-05,1,559,0.598239898681641,bottle,bottle,0,0559_ske_s05_0_bottle_00_bottle-0294-sketch-44.png
subject-05,1,560,0.687781095504761,bottle,bottle,0,0560_ske_s05_0_bottle_00_bottle-0054-sketch-11.png
subject-05,1,561,0.759937047958374,truck,truck,0,0561_ske_s05_0_truck_00_truck-0342-sketch-40.png
subject-05,1,562,1.07967805862427,keyboard,keyboard,0,0562_ske_s05_0_keyboard_00_keyboard-0076-sketch-30.png
subject-05,1,563,0.871379137039185,oven,oven,0,0563_ske_s05_0_oven_00_oven-0022-sketch-28.png
subject-05,1,564,0.719105005264282,clock,clock,0,0564_ske_s05_0_clock_00_clock-0093-sketch-46.png
subject-05,1,565,1.17878293991089,airplane,airplane,0,0565_ske_s05_0_airplane_00_airplane-0011-sketch-18.png
subject-05,1,566,0.816478967666626,bird,bird,0,0566_ske_s05_0_bird_00_bird-0694-sketch-36.png
subject-05,1,567,0.514472961425781,oven,oven,0,0567_ske_s05_0_oven_00_oven-0025-sketch-30.png
subject-05,1,568,0.588737010955811,clock,clock,0,0568_ske_s05_0_clock_00_clock-0070-sketch-25.png
subject-05,1,569,0.782238006591797,bottle,bottle,0,0569_ske_s05_0_bottle_00_bottle-0019-sketch-25.png
subject-05,1,570,1.20022201538086,bear,bear,0,0570_ske_s05_0_bear_00_bear-0170-sketch-24.png
subject-05,1,571,0.527650117874146,oven,oven,0,0571_ske_s05_0_oven_00_oven-0027-sketch-32.png
subject-05,1,572,0.925403833389282,dog,dog,0,0572_ske_s05_0_dog_00_dog-0607-sketch-8.png
subject-05,1,573,0.643192052841187,truck,truck,0,0573_ske_s05_0_truck_00_truck-0386-sketch-34.png
subject-05,1,574,0.643136024475098,boat,boat,0,0574_ske_s05_0_boat_00_boat-0059-sketch-15.png
subject-05,1,575,0.633036136627197,clock,clock,0,0575_ske_s05_0_clock_00_clock-0046-sketch-5.png
subject-05,1,576,1.10079503059387,knife,knife,0,0576_ske_s05_0_knife_00_knife-0024-sketch-3.png
subject-05,1,577,0.516672134399414,oven,oven,0,0577_ske_s05_0_oven_00_oven-0006-sketch-13.png
subject-05,1,578,0.880481958389282,chair,chair,0,0578_ske_s05_0_chair_00_chair-0145-sketch-48.png
subject-05,1,579,1.01641082763672,bear,bear,0,0579_ske_s05_0_bear_00_bear-0188-sketch-40.png
subject-05,1,580,1.25006008148193,truck,car,0,0580_ske_s05_0_car_00_car-0017-sketch-23.png
subject-05,1,581,0.866003036499023,boat,boat,0,0581_ske_s05_0_boat_00_boat-0094-sketch-47.png
subject-05,1,582,0.723719835281372,airplane,airplane,0,0582_ske_s05_0_airplane_00_airplane-0010-sketch-17.png
subject-05,1,583,0.94943904876709,bicycle,bicycle,0,0583_ske_s05_0_bicycle_00_bicycle-0095-sketch-48.png
subject-05,1,584,0.885421991348267,bear,bear,0,0584_ske_s05_0_bear_00_bear-0059-sketch-16.png
subject-05,1,585,0.799077987670898,bicycle,bicycle,0,0585_ske_s05_0_bicycle_00_bicycle-0025-sketch-30.png
subject-05,1,586,0.95676589012146,cat,cat,0,0586_ske_s05_0_cat_00_cat-0149-sketch-6.png
subject-05,1,587,0.555146932601929,bicycle,bicycle,0,0587_ske_s05_0_bicycle_00_bicycle-0034-sketch-39.png
subject-05,1,588,0.866436004638672,car,car,0,0588_ske_s05_0_car_00_car-0018-sketch-24.png
subject-05,1,589,0.572420120239258,knife,knife,0,0589_ske_s05_0_knife_00_knife-0021-sketch-27.png
subject-05,1,590,0.526250839233398,cat,cat,0,0590_ske_s05_0_cat_00_cat-0152-sketch-9.png
subject-05,1,591,1.3958899974823,airplane,airplane,0,0591_ske_s05_0_airplane_00_airplane-0028-sketch-33.png
subject-05,1,592,0.553802013397217,bicycle,bicycle,0,0592_ske_s05_0_bicycle_00_bicycle-0080-sketch-34.png
subject-05,1,593,1.04150795936584,truck,truck,0,0593_ske_s05_0_truck_00_truck-0192-sketch-43.png
subject-05,1,594,0.723356008529663,knife,knife,0,0594_ske_s05_0_knife_00_knife-0037-sketch-41.png
subject-05,1,595,0.967183113098145,oven,oven,0,0595_ske_s05_0_oven_00_oven-0011-sketch-18.png
subject-05,1,596,0.533068895339966,clock,clock,0,0596_ske_s05_0_clock_00_clock-0141-sketch-43.png
subject-05,1,597,0.709197998046875,bottle,bottle,0,0597_ske_s05_0_bottle_00_bottle-0038-sketch-42.png
subject-05,1,598,0.952587127685547,oven,bird,0,0598_ske_s05_0_bird_00_bird-1148-sketch-32.png
subject-05,1,599,0.872428178787231,truck,truck,0,0599_ske_s05_0_truck_00_truck-0115-sketch-2.png
subject-05,1,600,0.62471604347229,keyboard,keyboard,0,0600_ske_s05_0_keyboard_00_keyboard-0088-sketch-41.png
subject-05,1,601,1.4022741317749,knife,knife,0,0601_ske_s05_0_knife_00_knife-0044-sketch-48.png
subject-05,1,602,0.805894136428833,bicycle,bicycle,0,0602_ske_s05_0_bicycle_00_bicycle-0044-sketch-48.png
subject-05,1,603,0.816110849380493,bird,bird,0,0603_ske_s05_0_bird_00_bird-2313-sketch-28.png
subject-05,1,604,0.817830801010132,oven,oven,0,0604_ske_s05_0_oven_00_oven-0019-sketch-25.png
subject-05,1,605,0.469285011291504,clock,clock,0,0605_ske_s05_0_clock_00_clock-0077-sketch-31.png
subject-05,1,606,0.615011930465698,airplane,airplane,0,0606_ske_s05_0_airplane_00_airplane-0037-sketch-41.png
subject-05,1,607,0.643222093582153,oven,oven,0,0607_ske_s05_0_oven_00_oven-0042-sketch-46.png
subject-05,1,608,0.538578987121582,clock,clock,0,0608_ske_s05_0_clock_00_clock-0069-sketch-24.png
subject-05,1,609,0.964483976364136,bicycle,bicycle,0,0609_ske_s05_0_bicycle_00_bicycle-0071-sketch-26.png
subject-05,1,610,0.510882139205933,clock,clock,0,0610_ske_s05_0_clock_00_clock-0110-sketch-15.png
subject-05,1,611,0.756492137908936,oven,chair,0,0611_ske_s05_0_chair_00_chair-0076-sketch-30.png
subject-05,1,612,0.508313894271851,bottle,bottle,0,0612_ske_s05_0_bottle_00_bottle-0066-sketch-22.png
subject-05,1,613,0.849793195724487,bottle,bottle,0,0613_ske_s05_0_bottle_00_bottle-0039-sketch-43.png
subject-05,1,614,0.647573947906494,boat,boat,0,0614_ske_s05_0_boat_00_boat-0128-sketch-31.png
subject-05,1,615,1.06561088562012,elephant,elephant,0,0615_ske_s05_0_elephant_00_elephant-0086-sketch-4.png
subject-05,1,616,0.477345943450928,clock,clock,0,0616_ske_s05_0_clock_00_clock-0092-sketch-45.png
subject-05,1,617,0.614982128143311,car,car,0,0617_ske_s05_0_car_00_car-0114-sketch-19.png
subject-05,1,618,1.08701992034912,boat,boat,0,0618_ske_s05_0_boat_00_boat-0126-sketch-3.png
subject-05,1,619,0.608680963516235,airplane,airplane,0,0619_ske_s05_0_airplane_00_airplane-0047-sketch-50.png
subject-05,1,620,0.626620054244995,clock,clock,0,0620_ske_s05_0_clock_00_clock-0033-sketch-38.png
subject-05,1,621,0.544298887252808,clock,clock,0,0621_ske_s05_0_clock_00_clock-0078-sketch-32.png
subject-05,1,622,0.528212070465088,clock,clock,0,0622_ske_s05_0_clock_00_clock-0030-sketch-35.png
subject-05,1,623,0.491865158081055,clock,clock,0,0623_ske_s05_0_clock_00_clock-0095-sketch-48.png
subject-05,1,624,0.788064002990723,bicycle,bicycle,0,0624_ske_s05_0_bicycle_00_bicycle-0019-sketch-25.png
subject-05,1,625,0.791725158691406,bear,bear,0,0625_ske_s05_0_bear_00_bear-0005-sketch-12.png
subject-05,1,626,0.84959602355957,truck,truck,0,0626_ske_s05_0_truck_00_truck-0134-sketch-37.png
subject-05,1,627,NaN,na,bear,0,0627_ske_s05_0_bear_00_bear-0007-sketch-14.png
subject-05,1,628,0.838954210281372,truck,truck,0,0628_ske_s05_0_truck_00_truck-0075-sketch-3.png
subject-05,1,629,0.795276880264282,cat,cat,0,0629_ske_s05_0_cat_00_cat-0044-sketch-48.png
subject-05,1,630,1.12053203582764,bicycle,bicycle,0,0630_ske_s05_0_bicycle_00_bicycle-0004-sketch-11.png
subject-05,1,631,0.918307065963745,oven,oven,0,0631_ske_s05_0_oven_00_oven-0051-sketch-9.png
subject-05,1,632,0.608306884765625,keyboard,keyboard,0,0632_ske_s05_0_keyboard_00_keyboard-0006-sketch-13.png
subject-05,1,633,1.09413003921509,truck,truck,0,0633_ske_s05_0_truck_00_truck-0213-sketch-16.png
subject-05,1,634,0.692365169525146,elephant,elephant,0,0634_ske_s05_0_elephant_00_elephant-0052-sketch-0.png
subject-05,1,635,0.893706798553467,dog,dog,0,0635_ske_s05_0_dog_00_dog-4499-sketch-33.png
subject-05,1,636,0.647691011428833,bicycle,bicycle,0,0636_ske_s05_0_bicycle_00_bicycle-0031-sketch-36.png
subject-05,1,637,0.61926007270813,clock,clock,0,0637_ske_s05_0_clock_00_clock-0005-sketch-12.png
subject-05,1,638,0.669005155563354,bear,bear,0,0638_ske_s05_0_bear_00_bear-0148-sketch-50.png
subject-05,1,639,0.826991081237793,cat,cat,0,0639_ske_s05_0_cat_00_cat-0229-sketch-31.png
subject-05,1,640,0.70474100112915,bear,bear,0,0640_ske_s05_0_bear_00_bear-0136-sketch-4.png
subject-05,1,641,0.849045038223267,boat,truck,0,0641_ske_s05_0_truck_00_truck-0368-sketch-18.png
subject-05,1,642,0.624529123306274,keyboard,keyboard,0,0642_ske_s05_0_keyboard_00_keyboard-0035-sketch-4.png
subject-05,1,643,0.618697881698608,clock,clock,0,0643_ske_s05_0_clock_00_clock-0028-sketch-33.png
subject-05,1,644,0.786081075668335,elephant,elephant,0,0644_ske_s05_0_elephant_00_elephant-0080-sketch-34.png
subject-05,1,645,0.726164817810059,clock,clock,0,0645_ske_s05_0_clock_00_clock-0017-sketch-23.png
subject-05,1,646,0.54980206489563,bicycle,bicycle,0,0646_ske_s05_0_bicycle_00_bicycle-0083-sketch-37.png
subject-05,1,647,0.609773874282837,bear,bear,0,0647_ske_s05_0_bear_00_bear-0085-sketch-4.png
subject-05,1,648,0.673561096191406,chair,chair,0,0648_ske_s05_0_chair_00_chair-0135-sketch-39.png
subject-05,1,649,0.717178821563721,boat,boat,0,0649_ske_s05_0_boat_00_boat-0070-sketch-25.png
subject-05,1,650,0.529177904129028,bicycle,bicycle,0,0650_ske_s05_0_bicycle_00_bicycle-0094-sketch-47.png
subject-05,1,651,1.46479892730713,airplane,airplane,0,0651_ske_s05_0_airplane_00_airplane-0035-sketch-4.png
subject-05,1,652,0.920997142791748,car,car,0,0652_ske_s05_0_car_00_car-0040-sketch-44.png
subject-05,1,653,0.690834045410156,elephant,elephant,0,0653_ske_s05_0_elephant_00_elephant-0057-sketch-13.png
subject-05,1,654,0.698180913925171,bottle,bottle,0,0654_ske_s05_0_bottle_00_bottle-0150-sketch-7.png
subject-05,1,655,1.01244401931763,car,truck,0,0655_ske_s05_0_truck_00_truck-0131-sketch-34.png
subject-05,1,656,1.04574203491211,bottle,bottle,0,0656_ske_s05_0_bottle_00_bottle-0165-sketch-2.png
subject-05,1,657,0.979895114898682,bird,bird,0,0657_ske_s05_0_bird_00_bird-1948-sketch-20.png
subject-05,1,658,0.917438983917236,bottle,bottle,0,0658_ske_s05_0_bottle_00_bottle-0145-sketch-48.png
subject-05,1,659,1.35315203666687,boat,boat,0,0659_ske_s05_0_boat_00_boat-0064-sketch-2.png
subject-05,1,660,1.17115211486816,bicycle,bicycle,0,0660_ske_s05_0_bicycle_00_bicycle-0062-sketch-18.png
subject-05,1,661,1.03704404830933,bear,bear,0,0661_ske_s05_0_bear_00_bear-0039-sketch-43.png
subject-05,1,662,0.722742080688477,clock,clock,0,0662_ske_s05_0_clock_00_clock-0133-sketch-36.png
subject-05,1,663,0.952416896820068,keyboard,keyboard,0,0663_ske_s05_0_keyboard_00_keyboard-0047-sketch-50.png
subject-05,1,664,0.786158800125122,clock,clock,0,0664_ske_s05_0_clock_00_clock-0022-sketch-28.png
subject-05,1,665,0.738136053085327,oven,oven,0,0665_ske_s05_0_oven_00_oven-0023-sketch-29.png
subject-05,1,666,0.90018892288208,bear,bear,0,0666_ske_s05_0_bear_00_bear-0166-sketch-20.png
subject-05,1,667,1.09008193016052,keyboard,keyboard,0,0667_ske_s05_0_keyboard_00_keyboard-0005-sketch-12.png
subject-05,1,668,0.539617776870728,car,car,0,0668_ske_s05_0_car_00_car-0014-sketch-20.png
subject-05,1,669,0.591519832611084,elephant,elephant,0,0669_ske_s05_0_elephant_00_elephant-0054-sketch-10.png
subject-05,1,670,0.563315868377686,car,car,0,0670_ske_s05_0_car_00_car-0069-sketch-24.png
subject-05,1,671,0.585047006607056,keyboard,keyboard,0,0671_ske_s05_0_keyboard_00_keyboard-0063-sketch-19.png
subject-05,1,672,0.448917150497437,car,car,0,0672_ske_s05_0_car_00_car-0120-sketch-24.png
subject-05,1,673,0.990669965744019,truck,truck,0,0673_ske_s05_0_truck_00_truck-0355-sketch-7.png
subject-05,1,674,NaN,na,elephant,0,0674_ske_s05_0_elephant_00_elephant-0062-sketch-18.png
subject-05,1,675,0.442501068115234,bicycle,bicycle,0,0675_ske_s05_0_bicycle_00_bicycle-0037-sketch-41.png
subject-05,1,676,0.664260149002075,bicycle,bicycle,0,0676_ske_s05_0_bicycle_00_bicycle-0011-sketch-18.png
subject-05,1,677,0.657850980758667,oven,oven,0,0677_ske_s05_0_oven_00_oven-0004-sketch-11.png
subject-05,1,678,0.937835931777954,bear,bear,0,0678_ske_s05_0_bear_00_bear-0030-sketch-35.png
subject-05,1,679,0.485421895980835,keyboard,keyboard,0,0679_ske_s05_0_keyboard_00_keyboard-0045-sketch-49.png
subject-05,1,680,0.901457071304321,car,car,0,0680_ske_s05_0_car_00_car-0044-sketch-48.png
subject-05,1,681,1.17917990684509,bird,dog,0,0681_ske_s05_0_dog_00_dog-5354-sketch-25.png
subject-05,1,682,0.57096004486084,oven,oven,0,0682_ske_s05_0_oven_00_oven-0040-sketch-44.png
subject-05,1,683,1.01079916954041,elephant,elephant,0,0683_ske_s05_0_elephant_00_elephant-0075-sketch-3.png
subject-05,1,684,0.676687955856323,bear,bear,0,0684_ske_s05_0_bear_00_bear-0038-sketch-42.png
subject-05,1,685,0.718236923217773,elephant,elephant,0,0685_ske_s05_0_elephant_00_elephant-0030-sketch-35.png
subject-05,1,686,0.722157955169678,bear,bear,0,0686_ske_s05_0_bear_00_bear-0053-sketch-10.png
subject-05,1,687,0.612190008163452,keyboard,keyboard,0,0687_ske_s05_0_keyboard_00_keyboard-0017-sketch-23.png
subject-05,1,688,0.757866859436035,car,car,0,0688_ske_s05_0_car_00_car-0079-sketch-33.png
subject-05,1,689,0.74370002746582,chair,chair,0,0689_ske_s05_0_chair_00_chair-0153-sketch-0.png
subject-05,1,690,0.659460067749023,chair,chair,0,0690_ske_s05_0_chair_00_chair-0066-sketch-21.png
subject-05,1,691,0.779405117034912,boat,boat,0,0691_ske_s05_0_boat_00_boat-0166-sketch-2.png
subject-05,1,692,0.856971025466919,car,truck,0,0692_ske_s05_0_truck_00_truck-0255-sketch-9.png
subject-05,1,693,0.555002927780151,airplane,airplane,0,0693_ske_s05_0_airplane_00_airplane-0040-sketch-44.png
subject-05,1,694,0.782847881317139,truck,truck,0,0694_ske_s05_0_truck_00_truck-0157-sketch-11.png
subject-05,1,695,0.888452053070068,car,truck,0,0695_ske_s05_0_truck_00_truck-0132-sketch-35.png
subject-05,1,696,0.492614984512329,oven,oven,0,0696_ske_s05_0_oven_00_oven-0035-sketch-4.png
subject-05,1,697,0.82011079788208,bicycle,bicycle,0,0697_ske_s05_0_bicycle_00_bicycle-0046-sketch-5.png
subject-05,1,698,1.05834984779358,chair,chair,0,0698_ske_s05_0_chair_00_chair-0144-sketch-47.png
subject-05,1,699,0.71577000617981,elephant,elephant,0,0699_ske_s05_0_elephant_00_elephant-0032-sketch-37.png
subject-05,1,700,0.885606050491333,car,car,0,0700_ske_s05_0_car_00_car-0098-sketch-50.png
subject-05,1,701,0.685586214065552,bicycle,bicycle,0,0701_ske_s05_0_bicycle_00_bicycle-0022-sketch-28.png
subject-05,1,702,0.821197986602783,airplane,airplane,0,0702_ske_s05_0_airplane_00_airplane-0046-sketch-5.png
subject-05,1,703,0.860940933227539,bear,bear,0,0703_ske_s05_0_bear_00_bear-0041-sketch-45.png
subject-05,1,704,0.659091949462891,boat,boat,0,0704_ske_s05_0_boat_00_boat-0067-sketch-22.png
subject-05,1,705,1.2206130027771,oven,oven,0,0705_ske_s05_0_oven_00_oven-0048-sketch-6.png
subject-05,1,706,0.42651104927063,car,truck,0,0706_ske_s05_0_truck_00_truck-0249-sketch-49.png
subject-05,1,707,0.746451139450073,car,car,0,0707_ske_s05_0_car_00_car-0052-sketch-0.png
subject-05,1,708,1.0182409286499,dog,dog,0,0708_ske_s05_0_dog_00_dog-0215-sketch-19.png
subject-05,1,709,1.39583802223206,boat,boat,0,0709_ske_s05_0_boat_00_boat-0010-sketch-17.png
subject-05,1,710,0.523880958557129,keyboard,keyboard,0,0710_ske_s05_0_keyboard_00_keyboard-0007-sketch-14.png
subject-05,1,711,0.509558916091919,clock,clock,0,0711_ske_s05_0_clock_00_clock-0059-sketch-15.png
subject-05,1,712,0.641686916351318,bear,bear,0,0712_ske_s05_0_bear_00_bear-0017-sketch-23.png
subject-05,1,713,0.729119062423706,bottle,bottle,0,0713_ske_s05_0_bottle_00_bottle-0245-sketch-46.png
subject-05,1,714,0.873241901397705,car,car,0,0714_ske_s05_0_car_00_car-0092-sketch-45.png
subject-05,1,715,1.28893494606018,clock,clock,0,0715_ske_s05_0_clock_00_clock-0150-sketch-6.png
subject-05,1,716,0.674661159515381,oven,oven,0,0716_ske_s05_0_oven_00_oven-0014-sketch-20.png
subject-05,1,717,0.742727994918823,airplane,airplane,0,0717_ske_s05_0_airplane_00_airplane-0038-sketch-42.png
subject-05,1,718,0.530154943466187,boat,boat,0,0718_ske_s05_0_boat_00_boat-0130-sketch-33.png
subject-05,1,719,1.0239679813385,oven,oven,0,0719_ske_s05_0_oven_00_oven-0002-sketch-1.png
subject-05,1,720,0.941922187805176,car,car,0,0720_ske_s05_0_car_00_car-0136-sketch-39.png
subject-05,1,721,1.02160096168518,keyboard,keyboard,0,0721_ske_s05_0_keyboard_00_keyboard-0034-sketch-39.png
subject-05,1,722,0.719401836395264,car,car,0,0722_ske_s05_0_car_00_car-0029-sketch-34.png
subject-05,1,723,0.969108819961548,cat,cat,0,0723_ske_s05_0_cat_00_cat-0175-sketch-29.png
subject-05,1,724,0.677354097366333,knife,knife,0,0724_ske_s05_0_knife_00_knife-0043-sketch-47.png
subject-05,1,725,0.765263795852661,keyboard,keyboard,0,0725_ske_s05_0_keyboard_00_keyboard-0041-sketch-45.png
subject-05,1,726,0.945058107376099,clock,keyboard,0,0726_ske_s05_0_keyboard_00_keyboard-0028-sketch-33.png
subject-05,1,727,0.544588088989258,boat,boat,0,0727_ske_s05_0_boat_00_boat-0113-sketch-18.png
subject-05,1,728,0.618253946304321,bicycle,bicycle,0,0728_ske_s05_0_bicycle_00_bicycle-0084-sketch-38.png
subject-05,1,729,0.918177127838135,bird,bird,0,0729_ske_s05_0_bird_00_bird-0646-sketch-39.png
subject-05,1,730,0.639997005462646,elephant,elephant,0,0730_ske_s05_0_elephant_00_elephant-0046-sketch-5.png
subject-05,1,731,1.32598400115967,truck,truck,0,0731_ske_s05_0_truck_00_truck-0050-sketch-8.png
subject-05,1,732,1.38168597221375,bear,bear,0,0732_ske_s05_0_bear_00_bear-0187-sketch-4.png
subject-05,1,733,0.445985078811646,chair,chair,0,0733_ske_s05_0_chair_00_chair-0063-sketch-19.png
subject-05,1,734,0.6754469871521,car,car,0,0734_ske_s05_0_car_00_car-0004-sketch-11.png
subject-05,1,735,0.705083131790161,knife,knife,0,0735_ske_s05_0_knife_00_knife-0026-sketch-31.png
subject-05,1,736,0.768992900848389,truck,truck,0,0736_ske_s05_0_truck_00_truck-0135-sketch-38.png
subject-05,1,737,1.19462585449219,bicycle,bicycle,0,0737_ske_s05_0_bicycle_00_bicycle-0003-sketch-10.png
subject-05,1,738,0.80050802230835,clock,clock,0,0738_ske_s05_0_clock_00_clock-0035-sketch-4.png
subject-05,1,739,0.61222505569458,clock,clock,0,0739_ske_s05_0_clock_00_clock-0081-sketch-35.png
subject-05,1,740,0.664083957672119,airplane,airplane,0,0740_ske_s05_0_airplane_00_airplane-0044-sketch-48.png
subject-05,1,741,0.74593186378479,airplane,airplane,0,0741_ske_s05_0_airplane_00_airplane-0006-sketch-13.png
subject-05,1,742,0.607663154602051,clock,clock,0,0742_ske_s05_0_clock_00_clock-0044-sketch-48.png
subject-05,1,743,0.749567031860352,car,truck,0,0743_ske_s05_0_truck_00_truck-0266-sketch-18.png
subject-05,1,744,0.777263164520264,cat,cat,0,0744_ske_s05_0_cat_00_cat-0021-sketch-27.png
subject-05,1,745,0.505452156066895,cat,cat,0,0745_ske_s05_0_cat_00_cat-0150-sketch-7.png
subject-05,1,746,0.701057910919189,bird,bird,0,0746_ske_s05_0_bird_00_bird-0578-sketch-23.png
subject-05,1,747,0.766692876815796,boat,boat,0,0747_ske_s05_0_boat_00_boat-0124-sketch-28.png
subject-05,1,748,NaN,na,dog,0,0748_ske_s05_0_dog_00_dog-2454-sketch-21.png
subject-05,1,749,0.536508083343506,elephant,elephant,0,0749_ske_s05_0_elephant_00_elephant-0094-sketch-47.png
subject-05,1,750,0.492741107940674,airplane,airplane,0,0750_ske_s05_0_airplane_00_airplane-0012-sketch-19.png
subject-05,1,751,0.96033501625061,knife,knife,0,0751_ske_s05_0_knife_00_knife-0020-sketch-26.png
subject-05,1,752,0.829823970794678,cat,cat,0,0752_ske_s05_0_cat_00_cat-0002-sketch-1.png
subject-05,1,753,1.1516740322113,elephant,elephant,0,0753_ske_s05_0_elephant_00_elephant-0079-sketch-33.png
subject-05,1,754,0.469887018203735,airplane,airplane,0,0754_ske_s05_0_airplane_00_airplane-0042-sketch-46.png
subject-05,1,755,0.581562042236328,bottle,bottle,0,0755_ske_s05_0_bottle_00_bottle-0280-sketch-31.png
subject-05,1,756,1.353187084198,elephant,truck,0,0756_ske_s05_0_truck_00_truck-0079-sketch-33.png
subject-05,1,757,0.773288011550903,keyboard,keyboard,0,0757_ske_s05_0_keyboard_00_keyboard-0086-sketch-4.png
subject-05,1,758,0.528601884841919,bear,bear,0,0758_ske_s05_0_bear_00_bear-0123-sketch-28.png
subject-05,1,759,1.40660190582275,dog,dog,0,0759_ske_s05_0_dog_00_dog-0630-sketch-28.png
subject-05,1,760,0.550389051437378,bear,bear,0,0760_ske_s05_0_bear_00_bear-0022-sketch-28.png
subject-05,1,761,0.684182167053223,bear,bear,0,0761_ske_s05_0_bear_00_bear-0090-sketch-44.png
subject-05,1,762,0.695925951004028,oven,oven,0,0762_ske_s05_0_oven_00_oven-0009-sketch-16.png
subject-05,1,763,1.18576502799988,chair,chair,0,0763_ske_s05_0_chair_00_chair-0017-sketch-23.png
subject-05,1,764,0.672034978866577,oven,oven,0,0764_ske_s05_0_oven_00_oven-0003-sketch-10.png
subject-05,1,765,0.95738410949707,keyboard,keyboard,0,0765_ske_s05_0_keyboard_00_keyboard-0003-sketch-10.png
subject-05,1,766,0.489195108413696,keyboard,keyboard,0,0766_ske_s05_0_keyboard_00_keyboard-0002-sketch-1.png
subject-05,1,767,0.894958972930908,cat,cat,0,0767_ske_s05_0_cat_00_cat-0062-sketch-19.png
subject-05,1,768,1.50011587142944,truck,truck,0,0768_ske_s05_0_truck_00_truck-0384-sketch-32.png
subject-05,1,769,1.12307405471802,car,car,0,0769_ske_s05_0_car_00_car-0112-sketch-17.png
subject-05,1,770,0.6964271068573,oven,oven,0,0770_ske_s05_0_oven_00_oven-0015-sketch-21.png
subject-05,1,771,1.17031288146973,car,car,0,0771_ske_s05_0_car_00_car-0045-sketch-49.png
subject-05,1,772,1.07815599441528,boat,boat,0,0772_ske_s05_0_boat_00_boat-0228-sketch-3.png
subject-05,1,773,1.4438738822937,clock,clock,0,0773_ske_s05_0_clock_00_clock-0132-sketch-35.png
subject-05,1,774,0.639842987060547,boat,truck,0,0774_ske_s05_0_truck_00_truck-0161-sketch-15.png
subject-05,1,775,0.513651847839355,clock,clock,0,0775_ske_s05_0_clock_00_clock-0112-sketch-17.png
subject-05,1,776,0.989392042160034,airplane,airplane,0,0776_ske_s05_0_airplane_00_airplane-0002-sketch-1.png
subject-05,1,777,1.01727986335754,oven,oven,0,0777_ske_s05_0_oven_00_oven-0016-sketch-22.png
subject-05,1,778,1.29881381988525,knife,boat,0,0778_ske_s05_0_boat_00_boat-0002-sketch-1.png
subject-05,1,779,1.17477989196777,dog,dog,0,0779_ske_s05_0_dog_00_dog-2291-sketch-12.png
subject-05,1,780,1.44662404060364,car,car,0,0780_ske_s05_0_car_00_car-0032-sketch-37.png
subject-05,1,781,0.822590112686157,car,car,0,0781_ske_s05_0_car_00_car-0132-sketch-35.png
subject-05,1,782,1.24615001678467,chair,chair,0,0782_ske_s05_0_chair_00_chair-0034-sketch-39.png
subject-05,1,783,0.986334800720215,truck,truck,0,0783_ske_s05_0_truck_00_truck-0034-sketch-39.png
subject-05,1,784,0.597845077514648,clock,clock,0,0784_ske_s05_0_clock_00_clock-0049-sketch-7.png
subject-05,1,785,0.756026983261108,airplane,airplane,0,0785_ske_s05_0_airplane_00_airplane-0039-sketch-43.png
subject-05,1,786,0.7918701171875,elephant,elephant,0,0786_ske_s05_0_elephant_00_elephant-0077-sketch-31.png
subject-05,1,787,0.933269023895264,airplane,airplane,0,0787_ske_s05_0_airplane_00_airplane-0045-sketch-49.png
subject-05,1,788,1.5000958442688,elephant,elephant,0,0788_ske_s05_0_elephant_00_elephant-0001-sketch-0.png
subject-05,1,789,0.945126056671143,bottle,bottle,0,0789_ske_s05_0_bottle_00_bottle-0090-sketch-44.png
subject-05,1,790,0.842752933502197,car,car,0,0790_ske_s05_0_car_00_car-0009-sketch-16.png
subject-05,1,791,1.47050094604492,truck,oven,0,0791_ske_s05_0_oven_00_oven-0044-sketch-48.png
subject-05,1,792,0.854287147521973,clock,clock,0,0792_ske_s05_0_clock_00_clock-0018-sketch-24.png
subject-05,1,793,0.564093112945557,oven,oven,0,0793_ske_s05_0_oven_00_oven-0020-sketch-26.png
subject-05,1,794,0.778223991394043,chair,chair,0,0794_ske_s05_0_chair_00_chair-0125-sketch-3.png
subject-05,1,795,0.977869033813477,airplane,airplane,0,0795_ske_s05_0_airplane_00_airplane-0041-sketch-45.png
subject-05,1,796,0.971734046936035,dog,dog,0,0796_ske_s05_0_dog_00_dog-3646-sketch-42.png
subject-05,1,797,0.897496938705444,clock,clock,0,0797_ske_s05_0_clock_00_clock-0136-sketch-39.png
subject-05,1,798,1.26930403709412,elephant,elephant,0,0798_ske_s05_0_elephant_00_elephant-0055-sketch-11.png
subject-05,1,799,0.868927001953125,cat,cat,0,0799_ske_s05_0_cat_00_cat-0067-sketch-23.png
subject-05,1,800,0.95076584815979,keyboard,keyboard,0,0800_ske_s05_0_keyboard_00_keyboard-0031-sketch-36.png
