subj,session,trial,rt,object_response,category,condition,imagename
subject-02,1,1,0.636170864105225,bear,bear,0,0001_ske_s02_0_bear_00_bear-0137-sketch-40.png
subject-02,1,2,0.70617413520813,airplane,airplane,0,0002_ske_s02_0_airplane_00_airplane-0040-sketch-44.png
subject-02,1,3,0.793958187103271,bird,bird,0,0003_ske_s02_0_bird_00_bird-0749-sketch-4.png
subject-02,1,4,0.729671955108643,bird,bird,0,0004_ske_s02_0_bird_00_bird-0316-sketch-17.png
subject-02,1,5,0.619585037231445,cat,cat,0,0005_ske_s02_0_cat_00_cat-0053-sketch-10.png
subject-02,1,6,0.759553909301758,truck,truck,0,0006_ske_s02_0_truck_00_truck-0025-sketch-30.png
subject-02,1,7,0.641202926635742,boat,boat,0,0007_ske_s02_0_boat_00_boat-0228-sketch-3.png
subject-02,1,8,0.806925058364868,dog,dog,0,0008_ske_s02_0_dog_00_dog-0111-sketch-17.png
subject-02,1,9,0.738867998123169,boat,boat,0,0009_ske_s02_0_boat_00_boat-0125-sketch-29.png
subject-02,1,10,0.644573926925659,elephant,elephant,0,0010_ske_s02_0_elephant_00_elephant-0014-sketch-20.png
subject-02,1,11,1.02633094787598,bird,bird,0,0011_ske_s02_0_bird_00_bird-0694-sketch-36.png
subject-02,1,12,0.8961501121521,bicycle,bicycle,0,0012_ske_s02_0_bicycle_00_bicycle-0034-sketch-39.png
subject-02,1,13,0.593961954116821,boat,boat,0,0013_ske_s02_0_boat_00_boat-0128-sketch-31.png
subject-02,1,14,0.555752992630005,airplane,airplane,0,0014_ske_s02_0_airplane_00_airplane-0006-sketch-13.png
subject-02,1,15,0.689661979675293,knife,knife,0,0015_ske_s02_0_knife_00_knife-0042-sketch-46.png
subject-02,1,16,0.675598859786987,boat,boat,0,0016_ske_s02_0_boat_00_boat-0123-sketch-27.png
subject-02,1,17,0.797311067581177,dog,dog,0,0017_ske_s02_0_dog_00_dog-2198-sketch-20.png
subject-02,1,18,0.696942090988159,bear,bear,0,0018_ske_s02_0_bear_00_bear-0007-sketch-14.png
subject-02,1,19,0.844825983047485,car,car,0,0019_ske_s02_0_car_00_car-0013-sketch-2.png
subject-02,1,20,0.82480001449585,bottle,bottle,0,0020_ske_s02_0_bottle_00_bottle-0066-sketch-22.png
subject-02,1,21,0.510345935821533,boat,boat,0,0021_ske_s02_0_boat_00_boat-0010-sketch-17.png
subject-02,1,22,0.742444038391113,bear,bear,0,0022_ske_s02_0_bear_00_bear-0070-sketch-26.png
subject-02,1,23,0.678190946578979,bear,bear,0,0023_ske_s02_0_bear_00_bear-0103-sketch-1.png
subject-02,1,24,0.627832889556885,knife,knife,0,0024_ske_s02_0_knife_00_knife-0015-sketch-21.png
subject-02,1,25,0.64179801940918,chair,chair,0,0025_ske_s02_0_chair_00_chair-0197-sketch-49.png
subject-02,1,26,0.801477909088135,keyboard,keyboard,0,0026_ske_s02_0_keyboard_00_keyboard-0053-sketch-1.png
subject-02,1,27,0.721379041671753,bicycle,bicycle,0,0027_ske_s02_0_bicycle_00_bicycle-0019-sketch-25.png
subject-02,1,28,0.639181852340698,bear,bear,0,0028_ske_s02_0_bear_00_bear-0123-sketch-28.png
subject-02,1,29,0.906970977783203,elephant,elephant,0,0029_ske_s02_0_elephant_00_elephant-0100-sketch-7.png
subject-02,1,30,0.848826885223389,elephant,elephant,0,0030_ske_s02_0_elephant_00_elephant-0079-sketch-33.png
subject-02,1,31,0.850564956665039,dog,dog,0,0031_ske_s02_0_dog_00_dog-2541-sketch-0.png
subject-02,1,32,0.814852952957153,bottle,bottle,0,0032_ske_s02_0_bottle_00_bottle-0338-sketch-38.png
subject-02,1,33,0.648250102996826,bear,bear,0,0033_ske_s02_0_bear_00_bear-0112-sketch-18.png
subject-02,1,34,0.840137958526611,bottle,bottle,0,0034_ske_s02_0_bottle_00_bottle-0107-sketch-13.png
subject-02,1,35,0.725969076156616,car,car,0,0035_ske_s02_0_car_00_car-0044-sketch-48.png
subject-02,1,36,0.701642036437988,chair,chair,0,0036_ske_s02_0_chair_00_chair-0064-sketch-2.png
subject-02,1,37,0.673507928848267,cat,cat,0,0037_ske_s02_0_cat_00_cat-0073-sketch-29.png
subject-02,1,38,0.559314012527466,bear,bear,0,0038_ske_s02_0_bear_00_bear-0090-sketch-44.png
subject-02,1,39,1.34549307823181,dog,dog,0,0039_ske_s02_0_dog_00_dog-5223-sketch-45.png
subject-02,1,40,0.627041101455688,keyboard,keyboard,0,0040_ske_s02_0_keyboard_00_keyboard-0033-sketch-38.png
subject-02,1,41,0.566617012023926,chair,chair,0,0041_ske_s02_0_chair_00_chair-0076-sketch-30.png
subject-02,1,42,0.67686915397644,bicycle,bicycle,0,0042_ske_s02_0_bicycle_00_bicycle-0040-sketch-44.png
subject-02,1,43,0.7863929271698,airplane,airplane,0,0043_ske_s02_0_airplane_00_airplane-0041-sketch-45.png
subject-02,1,44,1.44221997261047,boat,boat,0,0044_ske_s02_0_boat_00_boat-0067-sketch-22.png
subject-02,1,45,0.682086944580078,bird,bird,0,0045_ske_s02_0_bird_00_bird-0954-sketch-40.png
subject-02,1,46,0.905874013900757,dog,dog,0,0046_ske_s02_0_dog_00_dog-0011-sketch-18.png
subject-02,1,47,1.2455518245697,elephant,elephant,0,0047_ske_s02_0_elephant_00_elephant-0055-sketch-11.png
subject-02,1,48,0.609385967254639,bear,bear,0,0048_ske_s02_0_bear_00_bear-0079-sketch-34.png
subject-02,1,49,0.595101833343506,clock,clock,0,0049_ske_s02_0_clock_00_clock-0071-sketch-26.png
subject-02,1,50,0.576946020126343,clock,clock,0,0050_ske_s02_0_clock_00_clock-0017-sketch-23.png
subject-02,1,51,1.22277283668518,chair,chair,0,0051_ske_s02_0_chair_00_chair-0180-sketch-33.png
subject-02,1,52,0.566611051559448,cat,cat,0,0052_ske_s02_0_cat_00_cat-0229-sketch-31.png
subject-02,1,53,0.644973993301392,oven,oven,0,0053_ske_s02_0_oven_00_oven-0031-sketch-36.png
subject-02,1,54,0.718380928039551,car,car,0,0054_ske_s02_0_car_00_car-0083-sketch-37.png
subject-02,1,55,1.01008486747742,dog,dog,0,0055_ske_s02_0_dog_00_dog-2948-sketch-10.png
subject-02,1,56,0.865834951400757,truck,truck,0,0056_ske_s02_0_truck_00_truck-0167-sketch-20.png
subject-02,1,57,0.573781967163086,keyboard,keyboard,0,0057_ske_s02_0_keyboard_00_keyboard-0017-sketch-23.png
subject-02,1,58,0.757459163665771,dog,dog,0,0058_ske_s02_0_dog_00_dog-3695-sketch-40.png
subject-02,1,59,0.545473098754883,boat,boat,0,0059_ske_s02_0_boat_00_boat-0002-sketch-1.png
subject-02,1,60,0.651042938232422,airplane,airplane,0,0060_ske_s02_0_airplane_00_airplane-0010-sketch-17.png
subject-02,1,61,0.834932088851929,boat,boat,0,0061_ske_s02_0_boat_00_boat-0233-sketch-34.png
subject-02,1,62,0.588831901550293,keyboard,keyboard,0,0062_ske_s02_0_keyboard_00_keyboard-0044-sketch-48.png
subject-02,1,63,0.553092956542969,oven,oven,0,0063_ske_s02_0_oven_00_oven-0037-sketch-41.png
subject-02,1,64,0.714375972747803,car,car,0,0064_ske_s02_0_car_00_car-0151-sketch-7.png
subject-02,1,65,0.680438041687012,airplane,airplane,0,0065_ske_s02_0_airplane_00_airplane-0023-sketch-29.png
subject-02,1,66,0.834415197372437,bottle,bottle,0,0066_ske_s02_0_bottle_00_bottle-0131-sketch-35.png
subject-02,1,67,0.629917860031128,clock,clock,0,0067_ske_s02_0_clock_00_clock-0141-sketch-43.png
subject-02,1,68,0.685785055160522,bottle,bottle,0,0068_ske_s02_0_bottle_00_bottle-0189-sketch-41.png
subject-02,1,69,0.783524990081787,airplane,airplane,0,0069_ske_s02_0_airplane_00_airplane-0050-sketch-8.png
subject-02,1,70,0.607163906097412,clock,clock,0,0070_ske_s02_0_clock_00_clock-0078-sketch-32.png
subject-02,1,71,0.897284030914307,bicycle,bicycle,0,0071_ske_s02_0_bicycle_00_bicycle-0039-sketch-43.png
subject-02,1,72,0.938850879669189,bottle,bottle,0,0072_ske_s02_0_bottle_00_bottle-0305-sketch-9.png
subject-02,1,73,0.612800121307373,keyboard,keyboard,0,0073_ske_s02_0_keyboard_00_keyboard-0022-sketch-28.png
subject-02,1,74,0.620651960372925,oven,oven,0,0074_ske_s02_0_oven_00_oven-0012-sketch-19.png
subject-02,1,75,0.65640115737915,airplane,airplane,0,0075_ske_s02_0_airplane_00_airplane-0039-sketch-43.png
subject-02,1,76,0.86009407043457,oven,oven,0,0076_ske_s02_0_oven_00_oven-0035-sketch-4.png
subject-02,1,77,1.06601500511169,bottle,bottle,0,0077_ske_s02_0_bottle_00_bottle-0019-sketch-25.png
subject-02,1,78,0.851840972900391,bear,bear,0,0078_ske_s02_0_bear_00_bear-0170-sketch-24.png
subject-02,1,79,0.651623010635376,keyboard,keyboard,0,0079_ske_s02_0_keyboard_00_keyboard-0005-sketch-12.png
subject-02,1,80,0.84554386138916,airplane,airplane,0,0080_ske_s02_0_airplane_00_airplane-0016-sketch-22.png
subject-02,1,81,1.26758313179016,truck,truck,0,0081_ske_s02_0_truck_00_truck-0157-sketch-11.png
subject-02,1,82,1.02082705497742,truck,truck,0,0082_ske_s02_0_truck_00_truck-0213-sketch-16.png
subject-02,1,83,0.820848941802979,bird,bird,0,0083_ske_s02_0_bird_00_bird-0384-sketch-32.png
subject-02,1,84,0.572632074356079,boat,boat,0,0084_ske_s02_0_boat_00_boat-0126-sketch-3.png
subject-02,1,85,0.704377174377441,cat,cat,0,0085_ske_s02_0_cat_00_cat-0304-sketch-8.png
subject-02,1,86,0.668474197387695,clock,clock,0,0086_ske_s02_0_clock_00_clock-0018-sketch-24.png
subject-02,1,87,0.692201137542725,airplane,airplane,0,0087_ske_s02_0_airplane_00_airplane-0029-sketch-34.png
subject-02,1,88,0.836020946502686,keyboard,keyboard,0,0088_ske_s02_0_keyboard_00_keyboard-0004-sketch-11.png
subject-02,1,89,1.00171494483948,airplane,airplane,0,0089_ske_s02_0_airplane_00_airplane-0032-sketch-37.png
subject-02,1,90,0.953543901443481,knife,knife,0,0090_ske_s02_0_knife_00_knife-0035-sketch-4.png
subject-02,1,91,0.911226987838745,bicycle,bicycle,0,0091_ske_s02_0_bicycle_00_bicycle-0054-sketch-10.png
subject-02,1,92,0.689110040664673,bird,bird,0,0092_ske_s02_0_bird_00_bird-0939-sketch-27.png
subject-02,1,93,0.85689902305603,car,car,0,0093_ske_s02_0_car_00_car-0143-sketch-45.png
subject-02,1,94,0.9308021068573,cat,cat,0,0094_ske_s02_0_cat_00_cat-0258-sketch-11.png
subject-02,1,95,1.17071485519409,clock,clock,0,0095_ske_s02_0_clock_00_clock-0115-sketch-2.png
subject-02,1,96,0.579005002975464,oven,oven,0,0096_ske_s02_0_oven_00_oven-0048-sketch-6.png
subject-02,1,97,0.698095798492432,cat,cat,0,0097_ske_s02_0_cat_00_cat-0175-sketch-29.png
subject-02,1,98,0.711920022964478,bird,bird,0,0098_ske_s02_0_bird_00_bird-0578-sketch-23.png
subject-02,1,99,0.799739837646484,bottle,bottle,0,0099_ske_s02_0_bottle_00_bottle-0185-sketch-38.png
subject-02,1,100,0.59566593170166,airplane,airplane,0,0100_ske_s02_0_airplane_00_airplane-0037-sketch-41.png
subject-02,1,101,0.729641199111938,dog,dog,0,0101_ske_s02_0_dog_00_dog-5325-sketch-45.png
subject-02,1,102,0.569424152374268,bicycle,bicycle,0,0102_ske_s02_0_bicycle_00_bicycle-0099-sketch-6.png
subject-02,1,103,0.675216913223267,keyboard,keyboard,0,0103_ske_s02_0_keyboard_00_keyboard-0016-sketch-22.png
subject-02,1,104,1.0048360824585,knife,knife,0,0104_ske_s02_0_knife_00_knife-0021-sketch-27.png
subject-02,1,105,0.718648910522461,cat,cat,0,0105_ske_s02_0_cat_00_cat-0279-sketch-30.png
subject-02,1,106,0.838632106781006,chair,chair,0,0106_ske_s02_0_chair_00_chair-0029-sketch-34.png
subject-02,1,107,0.764198064804077,bear,bear,0,0107_ske_s02_0_bear_00_bear-0059-sketch-16.png
subject-02,1,108,1.01190996170044,truck,truck,0,0108_ske_s02_0_truck_00_truck-0050-sketch-8.png
subject-02,1,109,0.654138088226318,oven,oven,0,0109_ske_s02_0_oven_00_oven-0001-sketch-0.png
subject-02,1,110,0.751713991165161,bird,bird,0,0110_ske_s02_0_bird_00_bird-0834-sketch-24.png
subject-02,1,111,0.515419960021973,clock,clock,0,0111_ske_s02_0_clock_00_clock-0057-sketch-13.png
subject-02,1,112,0.905428886413574,car,car,0,0112_ske_s02_0_car_00_car-0004-sketch-11.png
subject-02,1,113,0.781264066696167,truck,truck,0,0113_ske_s02_0_truck_00_truck-0385-sketch-33.png
subject-02,1,114,0.737449169158936,elephant,elephant,0,0114_ske_s02_0_elephant_00_elephant-0025-sketch-30.png
subject-02,1,115,0.508810043334961,clock,clock,0,0115_ske_s02_0_clock_00_clock-0033-sketch-38.png
subject-02,1,116,0.639086008071899,bicycle,bicycle,0,0116_ske_s02_0_bicycle_00_bicycle-0023-sketch-29.png
subject-02,1,117,0.790599822998047,bird,bird,0,0117_ske_s02_0_bird_00_bird-0685-sketch-28.png
subject-02,1,118,0.606616020202637,chair,chair,0,0118_ske_s02_0_chair_00_chair-0094-sketch-47.png
subject-02,1,119,0.68005108833313,car,car,0,0119_ske_s02_0_car_00_car-0043-sketch-47.png
subject-02,1,120,0.733972072601318,airplane,airplane,0,0120_ske_s02_0_airplane_00_airplane-0014-sketch-20.png
subject-02,1,121,0.633685111999512,bottle,bottle,0,0121_ske_s02_0_bottle_00_bottle-0135-sketch-39.png
subject-02,1,122,0.763899803161621,clock,clock,0,0122_ske_s02_0_clock_00_clock-0067-sketch-22.png
subject-02,1,123,0.73372483253479,boat,boat,0,0123_ske_s02_0_boat_00_boat-0068-sketch-23.png
subject-02,1,124,0.715044975280762,bicycle,bicycle,0,0124_ske_s02_0_bicycle_00_bicycle-0004-sketch-11.png
subject-02,1,125,0.760938882827759,elephant,elephant,0,0125_ske_s02_0_elephant_00_elephant-0077-sketch-31.png
subject-02,1,126,0.544758081436157,boat,boat,0,0126_ske_s02_0_boat_00_boat-0173-sketch-26.png
subject-02,1,127,0.702529907226562,knife,knife,0,0127_ske_s02_0_knife_00_knife-0029-sketch-34.png
subject-02,1,128,0.630533933639526,bottle,bottle,0,0128_ske_s02_0_bottle_00_bottle-0150-sketch-7.png
subject-02,1,129,0.994150876998901,clock,bear,0,0129_ske_s02_0_bear_00_bear-0201-sketch-7.png
subject-02,1,130,0.580280065536499,knife,knife,0,0130_ske_s02_0_knife_00_knife-0045-sketch-49.png
subject-02,1,131,1.31598496437073,truck,car,0,0131_ske_s02_0_car_00_car-0029-sketch-34.png
subject-02,1,132,0.679743051528931,cat,cat,0,0132_ske_s02_0_cat_00_cat-0250-sketch-50.png
subject-02,1,133,0.645494937896729,clock,clock,0,0133_ske_s02_0_clock_00_clock-0131-sketch-34.png
subject-02,1,134,0.669266939163208,airplane,airplane,0,0134_ske_s02_0_airplane_00_airplane-0045-sketch-49.png
subject-02,1,135,0.625463008880615,car,car,0,0135_ske_s02_0_car_00_car-0032-sketch-37.png
subject-02,1,136,0.812962055206299,elephant,elephant,0,0136_ske_s02_0_elephant_00_elephant-0052-sketch-0.png
subject-02,1,137,0.552767992019653,clock,clock,0,0137_ske_s02_0_clock_00_clock-0060-sketch-16.png
subject-02,1,138,0.978378057479858,dog,dog,0,0138_ske_s02_0_dog_00_dog-0630-sketch-28.png
subject-02,1,139,0.97415018081665,bear,bear,0,0139_ske_s02_0_bear_00_bear-0117-sketch-22.png
subject-02,1,140,0.778017044067383,bird,bird,0,0140_ske_s02_0_bird_00_bird-0809-sketch-48.png
subject-02,1,141,0.626392841339111,airplane,airplane,0,0141_ske_s02_0_airplane_00_airplane-0019-sketch-25.png
subject-02,1,142,1.1356840133667,clock,keyboard,0,0142_ske_s02_0_keyboard_00_keyboard-0028-sketch-33.png
subject-02,1,143,0.933625936508179,car,car,0,0143_ske_s02_0_car_00_car-0017-sketch-23.png
subject-02,1,144,0.709409952163696,car,car,0,0144_ske_s02_0_car_00_car-0047-sketch-50.png
subject-02,1,145,0.555218935012817,oven,oven,0,0145_ske_s02_0_oven_00_oven-0041-sketch-45.png
subject-02,1,146,0.578850984573364,bear,bear,0,0146_ske_s02_0_bear_00_bear-0037-sketch-41.png
subject-02,1,147,1.32286095619202,truck,truck,0,0147_ske_s02_0_truck_00_truck-0369-sketch-19.png
subject-02,1,148,0.758458137512207,keyboard,keyboard,0,0148_ske_s02_0_keyboard_00_keyboard-0062-sketch-18.png
subject-02,1,149,0.714466094970703,bird,bird,0,0149_ske_s02_0_bird_00_bird-2313-sketch-28.png
subject-02,1,150,0.608364105224609,boat,boat,0,0150_ske_s02_0_boat_00_boat-0237-sketch-38.png
subject-02,1,151,0.72217583656311,bottle,bottle,0,0151_ske_s02_0_bottle_00_bottle-0145-sketch-48.png
subject-02,1,152,0.842015027999878,bird,bird,0,0152_ske_s02_0_bird_00_bird-1096-sketch-31.png
subject-02,1,153,0.595622062683105,airplane,airplane,0,0153_ske_s02_0_airplane_00_airplane-0004-sketch-11.png
subject-02,1,154,0.813556909561157,chair,chair,0,0154_ske_s02_0_chair_00_chair-0153-sketch-0.png
subject-02,1,155,0.689294099807739,knife,knife,0,0155_ske_s02_0_knife_00_knife-0025-sketch-30.png
subject-02,1,156,0.739144086837769,bicycle,bicycle,0,0156_ske_s02_0_bicycle_00_bicycle-0002-sketch-1.png
subject-02,1,157,0.690900087356567,bear,bear,0,0157_ske_s02_0_bear_00_bear-0023-sketch-29.png
subject-02,1,158,0.646569013595581,bottle,bottle,0,0158_ske_s02_0_bottle_00_bottle-0045-sketch-49.png
subject-02,1,159,0.91284704208374,airplane,airplane,0,0159_ske_s02_0_airplane_00_airplane-0028-sketch-33.png
subject-02,1,160,0.630280017852783,chair,chair,0,0160_ske_s02_0_chair_00_chair-0072-sketch-27.png
subject-02,1,161,0.805687189102173,dog,dog,0,0161_ske_s02_0_dog_00_dog-4581-sketch-16.png
subject-02,1,162,0.739568948745728,dog,dog,0,0162_ske_s02_0_dog_00_dog-0243-sketch-44.png
subject-02,1,163,0.523292779922485,airplane,airplane,0,0163_ske_s02_0_airplane_00_airplane-0036-sketch-40.png
subject-02,1,164,0.655426025390625,chair,chair,0,0164_ske_s02_0_chair_00_chair-0071-sketch-26.png
subject-02,1,165,0.706946134567261,bird,bird,0,0165_ske_s02_0_bird_00_bird-0733-sketch-25.png
subject-02,1,166,0.576675891876221,chair,chair,0,0166_ske_s02_0_chair_00_chair-0145-sketch-48.png
subject-02,1,167,0.598515033721924,airplane,airplane,0,0167_ske_s02_0_airplane_00_airplane-0015-sketch-21.png
subject-02,1,168,0.710319042205811,keyboard,keyboard,0,0168_ske_s02_0_keyboard_00_keyboard-0019-sketch-25.png
subject-02,1,169,0.608067989349365,cat,cat,0,0169_ske_s02_0_cat_00_cat-0044-sketch-48.png
subject-02,1,170,0.747874021530151,chair,chair,0,0170_ske_s02_0_chair_00_chair-0005-sketch-12.png
subject-02,1,171,0.621894121170044,bicycle,bicycle,0,0171_ske_s02_0_bicycle_00_bicycle-0062-sketch-18.png
subject-02,1,172,0.569487810134888,bicycle,bicycle,0,0172_ske_s02_0_bicycle_00_bicycle-0044-sketch-48.png
subject-02,1,173,0.955327987670898,chair,truck,0,0173_ske_s02_0_truck_00_truck-0161-sketch-15.png
subject-02,1,174,0.833489894866943,bottle,bottle,0,0174_ske_s02_0_bottle_00_bottle-0313-sketch-15.png
subject-02,1,175,0.872889995574951,bottle,bottle,0,0175_ske_s02_0_bottle_00_bottle-0280-sketch-31.png
subject-02,1,176,1.01674914360046,dog,dog,0,0176_ske_s02_0_dog_00_dog-3000-sketch-11.png
subject-02,1,177,0.596668004989624,cat,cat,0,0177_ske_s02_0_cat_00_cat-0090-sketch-44.png
subject-02,1,178,0.570459127426147,clock,clock,0,0178_ske_s02_0_clock_00_clock-0059-sketch-15.png
subject-02,1,179,0.968323945999146,elephant,elephant,0,0179_ske_s02_0_elephant_00_elephant-0012-sketch-19.png
subject-02,1,180,1.28791213035583,bottle,bottle,0,0180_ske_s02_0_bottle_00_bottle-0243-sketch-44.png
subject-02,1,181,0.531931161880493,clock,clock,0,0181_ske_s02_0_clock_00_clock-0074-sketch-29.png
subject-02,1,182,0.673761129379272,oven,oven,0,0182_ske_s02_0_oven_00_oven-0029-sketch-34.png
subject-02,1,183,0.709495067596436,airplane,airplane,0,0183_ske_s02_0_airplane_00_airplane-0009-sketch-16.png
subject-02,1,184,0.655369997024536,clock,clock,0,0184_ske_s02_0_clock_00_clock-0150-sketch-6.png
subject-02,1,185,0.687254905700684,bicycle,bicycle,0,0185_ske_s02_0_bicycle_00_bicycle-0016-sketch-22.png
subject-02,1,186,0.65890908241272,bird,bird,0,0186_ske_s02_0_bird_00_bird-0479-sketch-26.png
subject-02,1,187,0.728560924530029,bottle,bottle,0,0187_ske_s02_0_bottle_00_bottle-0292-sketch-42.png
subject-02,1,188,0.740513801574707,truck,truck,0,0188_ske_s02_0_truck_00_truck-0386-sketch-34.png
subject-02,1,189,0.838740110397339,dog,dog,0,0189_ske_s02_0_dog_00_dog-4709-sketch-4.png
subject-02,1,190,0.578815937042236,chair,chair,0,0190_ske_s02_0_chair_00_chair-0051-sketch-9.png
subject-02,1,191,0.649979114532471,oven,oven,0,0191_ske_s02_0_oven_00_oven-0050-sketch-8.png
subject-02,1,192,1.05594086647034,dog,dog,0,0192_ske_s02_0_dog_00_dog-1797-sketch-26.png
subject-02,1,193,0.741627931594849,bird,bird,0,0193_ske_s02_0_bird_00_bird-0047-sketch-50.png
subject-02,1,194,0.655440092086792,car,car,0,0194_ske_s02_0_car_00_car-0112-sketch-17.png
subject-02,1,195,0.517138004302979,clock,clock,0,0195_ske_s02_0_clock_00_clock-0022-sketch-28.png
subject-02,1,196,1.25709986686707,bear,bear,0,0196_ske_s02_0_bear_00_bear-0195-sketch-47.png
subject-02,1,197,0.750923871994019,bicycle,bicycle,0,0197_ske_s02_0_bicycle_00_bicycle-0084-sketch-38.png
subject-02,1,198,0.914740085601807,elephant,elephant,0,0198_ske_s02_0_elephant_00_elephant-0076-sketch-30.png
subject-02,1,199,0.668720006942749,truck,truck,0,0199_ske_s02_0_truck_00_truck-0034-sketch-39.png
subject-02,1,200,0.698294878005981,chair,chair,0,0200_ske_s02_0_chair_00_chair-0168-sketch-22.png
subject-02,1,201,0.898118019104004,bottle,bottle,0,0201_ske_s02_0_bottle_00_bottle-0165-sketch-2.png
subject-02,1,202,0.694154977798462,bird,bird,0,0202_ske_s02_0_bird_00_bird-1740-sketch-17.png
subject-02,1,203,0.552151918411255,oven,oven,0,0203_ske_s02_0_oven_00_oven-0007-sketch-14.png
subject-02,1,204,0.871587038040161,bottle,bottle,0,0204_ske_s02_0_bottle_00_bottle-0207-sketch-11.png
subject-02,1,205,0.577275991439819,bicycle,bicycle,0,0205_ske_s02_0_bicycle_00_bicycle-0083-sketch-37.png
subject-02,1,206,0.707118034362793,truck,truck,0,0206_ske_s02_0_truck_00_truck-0342-sketch-40.png
subject-02,1,207,0.88299298286438,truck,truck,0,0207_ske_s02_0_truck_00_truck-0192-sketch-43.png
subject-02,1,208,0.65878701210022,bottle,bottle,0,0208_ske_s02_0_bottle_00_bottle-0050-sketch-9.png
subject-02,1,209,0.692968130111694,airplane,airplane,0,0209_ske_s02_0_airplane_00_airplane-0047-sketch-50.png
subject-02,1,210,0.78220796585083,oven,oven,0,0210_ske_s02_0_oven_00_oven-0032-sketch-37.png
subject-02,1,211,0.644733190536499,cat,cat,0,0211_ske_s02_0_cat_00_cat-0128-sketch-32.png
subject-02,1,212,0.635938167572021,chair,chair,0,0212_ske_s02_0_chair_00_chair-0200-sketch-6.png
subject-02,1,213,0.669960975646973,car,truck,0,0213_ske_s02_0_truck_00_truck-0255-sketch-9.png
subject-02,1,214,0.657710075378418,bottle,bottle,0,0214_ske_s02_0_bottle_00_bottle-0268-sketch-20.png
subject-02,1,215,0.837622880935669,cat,cat,0,0215_ske_s02_0_cat_00_cat-0260-sketch-13.png
subject-02,1,216,0.765375137329102,truck,truck,0,0216_ske_s02_0_truck_00_truck-0029-sketch-34.png
subject-02,1,217,0.783355951309204,dog,dog,0,0217_ske_s02_0_dog_00_dog-3338-sketch-40.png
subject-02,1,218,0.794885873794556,oven,oven,0,0218_ske_s02_0_oven_00_oven-0023-sketch-29.png
subject-02,1,219,0.951176166534424,bird,bird,0,0219_ske_s02_0_bird_00_bird-0491-sketch-37.png
subject-02,1,220,0.726671934127808,bottle,bottle,0,0220_ske_s02_0_bottle_00_bottle-0321-sketch-22.png
subject-02,1,221,1.36433386802673,oven,oven,0,0221_ske_s02_0_oven_00_oven-0013-sketch-2.png
subject-02,1,222,1.49229311943054,dog,dog,0,0222_ske_s02_0_dog_00_dog-1460-sketch-44.png
subject-02,1,223,0.772427082061768,car,truck,0,0223_ske_s02_0_truck_00_truck-0302-sketch-50.png
subject-02,1,224,0.743830919265747,bottle,bottle,0,0224_ske_s02_0_bottle_00_bottle-0133-sketch-37.png
subject-02,1,225,0.709772825241089,bird,bird,0,0225_ske_s02_0_bird_00_bird-1702-sketch-29.png
subject-02,1,226,0.705543041229248,knife,knife,0,0226_ske_s02_0_knife_00_knife-0038-sketch-42.png
subject-02,1,227,0.611106157302856,bird,bird,0,0227_ske_s02_0_bird_00_bird-0325-sketch-25.png
subject-02,1,228,0.710950136184692,boat,boat,0,0228_ske_s02_0_boat_00_boat-0108-sketch-13.png
subject-02,1,229,0.696878910064697,elephant,elephant,0,0229_ske_s02_0_elephant_00_elephant-0071-sketch-26.png
subject-02,1,230,0.767009019851685,elephant,elephant,0,0230_ske_s02_0_elephant_00_elephant-0015-sketch-21.png
subject-02,1,231,0.672477006912231,bottle,bottle,0,0231_ske_s02_0_bottle_00_bottle-0184-sketch-37.png
subject-02,1,232,0.878434896469116,cat,cat,0,0232_ske_s02_0_cat_00_cat-0241-sketch-42.png
subject-02,1,233,0.718194007873535,keyboard,keyboard,0,0233_ske_s02_0_keyboard_00_keyboard-0068-sketch-23.png
subject-02,1,234,0.694078207015991,knife,knife,0,0234_ske_s02_0_knife_00_knife-0006-sketch-13.png
subject-02,1,235,0.79978609085083,dog,dog,0,0235_ske_s02_0_dog_00_dog-2454-sketch-21.png
subject-02,1,236,0.607656002044678,clock,clock,0,0236_ske_s02_0_clock_00_clock-0046-sketch-5.png
subject-02,1,237,0.895695924758911,knife,knife,0,0237_ske_s02_0_knife_00_knife-0020-sketch-26.png
subject-02,1,238,0.686990976333618,keyboard,keyboard,0,0238_ske_s02_0_keyboard_00_keyboard-0014-sketch-20.png
subject-02,1,239,0.621367931365967,car,car,0,0239_ske_s02_0_car_00_car-0117-sketch-21.png
subject-02,1,240,0.664629220962524,oven,oven,0,0240_ske_s02_0_oven_00_oven-0039-sketch-43.png
subject-02,1,241,0.948593854904175,elephant,elephant,0,0241_ske_s02_0_elephant_00_elephant-0020-sketch-26.png
subject-02,1,242,0.59654688835144,keyboard,keyboard,0,0242_ske_s02_0_keyboard_00_keyboard-0023-sketch-29.png
subject-02,1,243,0.628271102905273,knife,knife,0,0243_ske_s02_0_knife_00_knife-0022-sketch-28.png
subject-02,1,244,0.530184984207153,bird,bird,0,0244_ske_s02_0_bird_00_bird-1860-sketch-33.png
subject-02,1,245,0.568084955215454,clock,clock,0,0245_ske_s02_0_clock_00_clock-0087-sketch-40.png
subject-02,1,246,0.587722063064575,bear,bear,0,0246_ske_s02_0_bear_00_bear-0017-sketch-23.png
subject-02,1,247,0.695394039154053,car,car,0,0247_ske_s02_0_car_00_car-0055-sketch-11.png
subject-02,1,248,0.577618837356567,clock,clock,0,0248_ske_s02_0_clock_00_clock-0070-sketch-25.png
subject-02,1,249,0.617086172103882,bird,bird,0,0249_ske_s02_0_bird_00_bird-0030-sketch-35.png
subject-02,1,250,0.769126176834106,cat,cat,0,0250_ske_s02_0_cat_00_cat-0251-sketch-6.png
subject-02,1,251,0.72296404838562,knife,knife,0,0251_ske_s02_0_knife_00_knife-0030-sketch-35.png
subject-02,1,252,0.616929054260254,bear,bear,0,0252_ske_s02_0_bear_00_bear-0136-sketch-4.png
subject-02,1,253,0.644260168075562,bottle,bottle,0,0253_ske_s02_0_bottle_00_bottle-0330-sketch-30.png
subject-02,1,254,0.604361057281494,bear,bear,0,0254_ske_s02_0_bear_00_bear-0039-sketch-43.png
subject-02,1,255,0.756417989730835,elephant,elephant,0,0255_ske_s02_0_elephant_00_elephant-0065-sketch-20.png
subject-02,1,256,0.572052001953125,cat,cat,0,0256_ske_s02_0_cat_00_cat-0152-sketch-9.png
subject-02,1,257,0.693898916244507,airplane,airplane,0,0257_ske_s02_0_airplane_00_airplane-0038-sketch-42.png
subject-02,1,258,0.813849925994873,knife,knife,0,0258_ske_s02_0_knife_00_knife-0017-sketch-23.png
subject-02,1,259,0.671403169631958,car,car,0,0259_ske_s02_0_car_00_car-0139-sketch-41.png
subject-02,1,260,0.597027063369751,keyboard,keyboard,0,0260_ske_s02_0_keyboard_00_keyboard-0008-sketch-15.png
subject-02,1,261,0.498822927474976,clock,clock,0,0261_ske_s02_0_clock_00_clock-0085-sketch-39.png
subject-02,1,262,0.600657939910889,car,car,0,0262_ske_s02_0_car_00_car-0022-sketch-28.png
subject-02,1,263,0.866382122039795,dog,dog,0,0263_ske_s02_0_dog_00_dog-3417-sketch-2.png
subject-02,1,264,0.752755880355835,chair,boat,0,0264_ske_s02_0_boat_00_boat-0085-sketch-39.png
subject-02,1,265,0.578027963638306,oven,oven,0,0265_ske_s02_0_oven_00_oven-0027-sketch-32.png
subject-02,1,266,0.969791889190674,bird,bird,0,0266_ske_s02_0_bird_00_bird-0274-sketch-25.png
subject-02,1,267,0.693801879882812,elephant,elephant,0,0267_ske_s02_0_elephant_00_elephant-0030-sketch-35.png
subject-02,1,268,NaN,na,truck,0,0268_ske_s02_0_truck_00_truck-0348-sketch-46.png
subject-02,1,269,0.639965057373047,boat,boat,0,0269_ske_s02_0_boat_00_boat-0166-sketch-2.png
subject-02,1,270,0.751260995864868,dog,dog,0,0270_ske_s02_0_dog_00_dog-2150-sketch-22.png
subject-02,1,271,0.582988977432251,boat,boat,0,0271_ske_s02_0_boat_00_boat-0124-sketch-28.png
subject-02,1,272,0.606840133666992,car,car,0,0272_ske_s02_0_car_00_car-0124-sketch-28.png
subject-02,1,273,0.469092130661011,boat,boat,0,0273_ske_s02_0_boat_00_boat-0197-sketch-48.png
subject-02,1,274,0.636330842971802,elephant,elephant,0,0274_ske_s02_0_elephant_00_elephant-0001-sketch-0.png
subject-02,1,275,0.644199848175049,chair,chair,0,0275_ske_s02_0_chair_00_chair-0017-sketch-23.png
subject-02,1,276,0.436210155487061,clock,clock,0,0276_ske_s02_0_clock_00_clock-0077-sketch-31.png
subject-02,1,277,0.500184059143066,cat,cat,0,0277_ske_s02_0_cat_00_cat-0042-sketch-46.png
subject-02,1,278,0.639587879180908,bear,bear,0,0278_ske_s02_0_bear_00_bear-0073-sketch-29.png
subject-02,1,279,0.659463882446289,car,car,0,0279_ske_s02_0_car_00_car-0153-sketch-9.png
subject-02,1,280,0.689428091049194,bear,bear,0,0280_ske_s02_0_bear_00_bear-0148-sketch-50.png
subject-02,1,281,0.775061130523682,dog,dog,0,0281_ske_s02_0_dog_00_dog-4499-sketch-33.png
subject-02,1,282,1.03900408744812,keyboard,keyboard,0,0282_ske_s02_0_keyboard_00_keyboard-0071-sketch-26.png
subject-02,1,283,0.696742057800293,car,truck,0,0283_ske_s02_0_truck_00_truck-0286-sketch-36.png
subject-02,1,284,0.606406927108765,knife,knife,0,0284_ske_s02_0_knife_00_knife-0005-sketch-12.png
subject-02,1,285,0.494240999221802,boat,boat,0,0285_ske_s02_0_boat_00_boat-0029-sketch-34.png
subject-02,1,286,0.632402896881104,bottle,bottle,0,0286_ske_s02_0_bottle_00_bottle-0002-sketch-1.png
subject-02,1,287,0.674094915390015,knife,knife,0,0287_ske_s02_0_knife_00_knife-0019-sketch-25.png
subject-02,1,288,1.08593702316284,cat,cat,0,0288_ske_s02_0_cat_00_cat-0295-sketch-45.png
subject-02,1,289,0.709656000137329,knife,knife,0,0289_ske_s02_0_knife_00_knife-0041-sketch-45.png
subject-02,1,290,0.52958607673645,cat,cat,0,0290_ske_s02_0_cat_00_cat-0245-sketch-46.png
subject-02,1,291,0.697250127792358,dog,dog,0,0291_ske_s02_0_dog_00_dog-3646-sketch-42.png
subject-02,1,292,0.649121999740601,bird,bird,0,0292_ske_s02_0_bird_00_bird-2010-sketch-30.png
subject-02,1,293,1.16883087158203,airplane,airplane,0,0293_ske_s02_0_airplane_00_airplane-0017-sketch-23.png
subject-02,1,294,0.574703931808472,bear,bear,0,0294_ske_s02_0_bear_00_bear-0187-sketch-4.png
subject-02,1,295,0.558435201644897,bicycle,bicycle,0,0295_ske_s02_0_bicycle_00_bicycle-0060-sketch-16.png
subject-02,1,296,1.08031392097473,knife,knife,0,0296_ske_s02_0_knife_00_knife-0049-sketch-7.png
subject-02,1,297,0.498303890228271,clock,clock,0,0297_ske_s02_0_clock_00_clock-0076-sketch-30.png
subject-02,1,298,0.812047004699707,elephant,elephant,0,0298_ske_s02_0_elephant_00_elephant-0066-sketch-21.png
subject-02,1,299,0.799829006195068,bottle,bottle,0,0299_ske_s02_0_bottle_00_bottle-0143-sketch-46.png
subject-02,1,300,0.68148398399353,elephant,elephant,0,0300_ske_s02_0_elephant_00_elephant-0006-sketch-13.png
subject-02,1,301,0.711923837661743,bicycle,bicycle,0,0301_ske_s02_0_bicycle_00_bicycle-0070-sketch-25.png
subject-02,1,302,1.02721810340881,boat,boat,0,0302_ske_s02_0_boat_00_boat-0052-sketch-0.png
subject-02,1,303,0.791283130645752,truck,truck,0,0303_ske_s02_0_truck_00_truck-0336-sketch-35.png
subject-02,1,304,0.816812992095947,bird,bird,0,0304_ske_s02_0_bird_00_bird-2262-sketch-28.png
subject-02,1,305,0.657163143157959,bird,bird,0,0305_ske_s02_0_bird_00_bird-1201-sketch-34.png
subject-02,1,306,0.62844705581665,car,truck,0,0306_ske_s02_0_truck_00_truck-0132-sketch-35.png
subject-02,1,307,0.588451147079468,keyboard,keyboard,0,0307_ske_s02_0_keyboard_00_keyboard-0010-sketch-17.png
subject-02,1,308,0.498037099838257,bird,bird,0,0308_ske_s02_0_bird_00_bird-0748-sketch-39.png
subject-02,1,309,0.68178391456604,keyboard,keyboard,0,0309_ske_s02_0_keyboard_00_keyboard-0085-sketch-39.png
subject-02,1,310,0.539549827575684,boat,boat,0,0310_ske_s02_0_boat_00_boat-0001-sketch-0.png
subject-02,1,311,0.541604042053223,oven,oven,0,0311_ske_s02_0_oven_00_oven-0014-sketch-20.png
subject-02,1,312,0.687458038330078,chair,chair,0,0312_ske_s02_0_chair_00_chair-0129-sketch-33.png
subject-02,1,313,0.839179992675781,chair,chair,0,0313_ske_s02_0_chair_00_chair-0063-sketch-19.png
subject-02,1,314,0.709077119827271,bear,bear,0,0314_ske_s02_0_bear_00_bear-0048-sketch-7.png
subject-02,1,315,0.886568784713745,bicycle,bicycle,0,0315_ske_s02_0_bicycle_00_bicycle-0080-sketch-34.png
subject-02,1,316,0.658348083496094,bird,bird,0,0316_ske_s02_0_bird_00_bird-0072-sketch-27.png
subject-02,1,317,0.698226928710938,bird,bird,0,0317_ske_s02_0_bird_00_bird-1721-sketch-46.png
subject-02,1,318,0.946104049682617,elephant,elephant,0,0318_ske_s02_0_elephant_00_elephant-0016-sketch-22.png
subject-02,1,319,0.738061189651489,chair,chair,0,0319_ske_s02_0_chair_00_chair-0067-sketch-22.png
subject-02,1,320,0.715826988220215,car,car,0,0320_ske_s02_0_car_00_car-0064-sketch-2.png
subject-02,1,321,0.776608943939209,bicycle,bicycle,0,0321_ske_s02_0_bicycle_00_bicycle-0066-sketch-21.png
subject-02,1,322,0.564512968063354,car,car,0,0322_ske_s02_0_car_00_car-0100-sketch-7.png
subject-02,1,323,0.612189054489136,knife,knife,0,0323_ske_s02_0_knife_00_knife-0018-sketch-24.png
subject-02,1,324,0.732084035873413,bird,bird,0,0324_ske_s02_0_bird_00_bird-0357-sketch-9.png
subject-02,1,325,0.902055978775024,cat,truck,0,0325_ske_s02_0_truck_00_truck-0368-sketch-18.png
subject-02,1,326,1.10223293304443,dog,dog,0,0326_ske_s02_0_dog_00_dog-1035-sketch-27.png
subject-02,1,327,1.41784119606018,car,car,0,0327_ske_s02_0_car_00_car-0018-sketch-24.png
subject-02,1,328,0.771516799926758,oven,dog,0,0328_ske_s02_0_dog_00_dog-1973-sketch-47.png
subject-02,1,329,0.699392795562744,keyboard,keyboard,0,0329_ske_s02_0_keyboard_00_keyboard-0088-sketch-41.png
subject-02,1,330,0.715427160263062,car,truck,0,0330_ske_s02_0_truck_00_truck-0289-sketch-39.png
subject-02,1,331,0.738616943359375,bottle,bottle,0,0331_ske_s02_0_bottle_00_bottle-0031-sketch-36.png
subject-02,1,332,0.730499982833862,cat,cat,0,0332_ske_s02_0_cat_00_cat-0124-sketch-29.png
subject-02,1,333,0.928359031677246,dog,dog,0,0333_ske_s02_0_dog_00_dog-0215-sketch-19.png
subject-02,1,334,0.674159049987793,boat,boat,0,0334_ske_s02_0_boat_00_boat-0152-sketch-8.png
subject-02,1,335,0.702028036117554,boat,boat,0,0335_ske_s02_0_boat_00_boat-0051-sketch-9.png
subject-02,1,336,0.715939998626709,bear,bear,0,0336_ske_s02_0_bear_00_bear-0161-sketch-16.png
subject-02,1,337,0.789645910263062,elephant,elephant,0,0337_ske_s02_0_elephant_00_elephant-0033-sketch-38.png
subject-02,1,338,0.84343409538269,cat,bear,0,0338_ske_s02_0_bear_00_bear-0027-sketch-32.png
subject-02,1,339,0.817476987838745,car,car,0,0339_ske_s02_0_car_00_car-0052-sketch-0.png
subject-02,1,340,0.585285902023315,boat,boat,0,0340_ske_s02_0_boat_00_boat-0212-sketch-15.png
subject-02,1,341,0.944983959197998,boat,bottle,0,0341_ske_s02_0_bottle_00_bottle-0294-sketch-44.png
subject-02,1,342,0.611129999160767,clock,clock,0,0342_ske_s02_0_clock_00_clock-0044-sketch-48.png
subject-02,1,343,0.694383859634399,clock,clock,0,0343_ske_s02_0_clock_00_clock-0112-sketch-17.png
subject-02,1,344,1.170166015625,car,car,0,0344_ske_s02_0_car_00_car-0025-sketch-30.png
subject-02,1,345,0.876018047332764,bicycle,bicycle,0,0345_ske_s02_0_bicycle_00_bicycle-0031-sketch-36.png
subject-02,1,346,0.707876920700073,airplane,airplane,0,0346_ske_s02_0_airplane_00_airplane-0044-sketch-48.png
subject-02,1,347,0.585869073867798,clock,clock,0,0347_ske_s02_0_clock_00_clock-0118-sketch-22.png
subject-02,1,348,0.6441969871521,keyboard,keyboard,0,0348_ske_s02_0_keyboard_00_keyboard-0091-sketch-44.png
subject-02,1,349,1.01143312454224,oven,oven,0,0349_ske_s02_0_oven_00_oven-0018-sketch-24.png
subject-02,1,350,0.537220001220703,clock,clock,0,0350_ske_s02_0_clock_00_clock-0005-sketch-12.png
subject-02,1,351,0.727518081665039,keyboard,keyboard,0,0351_ske_s02_0_keyboard_00_keyboard-0084-sketch-38.png
subject-02,1,352,0.606673002243042,cat,cat,0,0352_ske_s02_0_cat_00_cat-0289-sketch-4.png
subject-02,1,353,0.726900815963745,elephant,elephant,0,0353_ske_s02_0_elephant_00_elephant-0062-sketch-18.png
subject-02,1,354,0.710438013076782,chair,chair,0,0354_ske_s02_0_chair_00_chair-0013-sketch-2.png
subject-02,1,355,0.566189050674438,clock,clock,0,0355_ske_s02_0_clock_00_clock-0143-sketch-45.png
subject-02,1,356,0.647968053817749,chair,chair,0,0356_ske_s02_0_chair_00_chair-0014-sketch-20.png
subject-02,1,357,0.796261072158813,elephant,elephant,0,0357_ske_s02_0_elephant_00_elephant-0094-sketch-47.png
subject-02,1,358,0.587675094604492,bicycle,bicycle,0,0358_ske_s02_0_bicycle_00_bicycle-0045-sketch-49.png
subject-02,1,359,0.743329048156738,airplane,airplane,0,0359_ske_s02_0_airplane_00_airplane-0022-sketch-28.png
subject-02,1,360,1.27328586578369,dog,dog,0,0360_ske_s02_0_dog_00_dog-4475-sketch-11.png
subject-02,1,361,0.581083059310913,chair,chair,0,0361_ske_s02_0_chair_00_chair-0163-sketch-18.png
subject-02,1,362,0.648998022079468,cat,cat,0,0362_ske_s02_0_cat_00_cat-0043-sketch-47.png
subject-02,1,363,0.752978086471558,bear,bear,0,0363_ske_s02_0_bear_00_bear-0045-sketch-49.png
subject-02,1,364,0.726774930953979,car,car,0,0364_ske_s02_0_car_00_car-0030-sketch-35.png
subject-02,1,365,0.648593902587891,bear,bear,0,0365_ske_s02_0_bear_00_bear-0171-sketch-25.png
subject-02,1,366,0.842460870742798,airplane,airplane,0,0366_ske_s02_0_airplane_00_airplane-0001-sketch-0.png
subject-02,1,367,1.02809810638428,airplane,airplane,0,0367_ske_s02_0_airplane_00_airplane-0046-sketch-5.png
subject-02,1,368,0.927834033966064,dog,dog,0,0368_ske_s02_0_dog_00_dog-2291-sketch-12.png
subject-02,1,369,0.683777093887329,bottle,bottle,0,0369_ske_s02_0_bottle_00_bottle-0090-sketch-44.png
subject-02,1,370,0.655823945999146,bird,bird,0,0370_ske_s02_0_bird_00_bird-0415-sketch-14.png
subject-02,1,371,0.769773006439209,car,truck,0,0371_ske_s02_0_truck_00_truck-0249-sketch-49.png
subject-02,1,372,0.609020948410034,bicycle,bicycle,0,0372_ske_s02_0_bicycle_00_bicycle-0053-sketch-1.png
subject-02,1,373,0.738785028457642,bird,bird,0,0373_ske_s02_0_bird_00_bird-0646-sketch-39.png
subject-02,1,374,0.627070903778076,bird,bird,0,0374_ske_s02_0_bird_00_bird-1749-sketch-25.png
subject-02,1,375,0.832592010498047,keyboard,keyboard,0,0375_ske_s02_0_keyboard_00_keyboard-0064-sketch-2.png
subject-02,1,376,1.00881814956665,oven,oven,0,0376_ske_s02_0_oven_00_oven-0042-sketch-46.png
subject-02,1,377,0.620314121246338,chair,chair,0,0377_ske_s02_0_chair_00_chair-0176-sketch-3.png
subject-02,1,378,0.788201808929443,car,car,0,0378_ske_s02_0_car_00_car-0096-sketch-49.png
subject-02,1,379,0.919750928878784,knife,knife,0,0379_ske_s02_0_knife_00_knife-0007-sketch-14.png
subject-02,1,380,1.03962802886963,truck,truck,0,0380_ske_s02_0_truck_00_truck-0244-sketch-44.png
subject-02,1,381,0.933602094650269,truck,truck,0,0381_ske_s02_0_truck_00_truck-0007-sketch-14.png
subject-02,1,382,0.795087814331055,elephant,elephant,0,0382_ske_s02_0_elephant_00_elephant-0022-sketch-28.png
subject-02,1,383,0.631052017211914,boat,boat,0,0383_ske_s02_0_boat_00_boat-0088-sketch-41.png
subject-02,1,384,0.770910978317261,oven,oven,0,0384_ske_s02_0_oven_00_oven-0021-sketch-27.png
subject-02,1,385,0.780755996704102,elephant,elephant,0,0385_ske_s02_0_elephant_00_elephant-0090-sketch-43.png
subject-02,1,386,0.684487104415894,truck,truck,0,0386_ske_s02_0_truck_00_truck-0308-sketch-1.png
subject-02,1,387,0.938282012939453,dog,dog,0,0387_ske_s02_0_dog_00_dog-4909-sketch-37.png
subject-02,1,388,0.582090139389038,clock,clock,0,0388_ske_s02_0_clock_00_clock-0144-sketch-46.png
subject-02,1,389,0.631998062133789,chair,chair,0,0389_ske_s02_0_chair_00_chair-0052-sketch-0.png
subject-02,1,390,0.722136974334717,keyboard,keyboard,0,0390_ske_s02_0_keyboard_00_keyboard-0002-sketch-1.png
subject-02,1,391,0.501529932022095,clock,clock,0,0391_ske_s02_0_clock_00_clock-0123-sketch-27.png
subject-02,1,392,0.599398136138916,cat,cat,0,0392_ske_s02_0_cat_00_cat-0048-sketch-7.png
subject-02,1,393,0.801037073135376,knife,knife,0,0393_ske_s02_0_knife_00_knife-0043-sketch-47.png
subject-02,1,394,0.792943954467773,keyboard,keyboard,0,0394_ske_s02_0_keyboard_00_keyboard-0047-sketch-50.png
subject-02,1,395,0.612684011459351,cat,cat,0,0395_ske_s02_0_cat_00_cat-0134-sketch-38.png
subject-02,1,396,1.23446297645569,truck,car,0,0396_ske_s02_0_car_00_car-0005-sketch-12.png
subject-02,1,397,0.692259073257446,bird,bird,0,0397_ske_s02_0_bird_00_bird-2312-sketch-27.png
subject-02,1,398,0.648546934127808,bird,bird,0,0398_ske_s02_0_bird_00_bird-1081-sketch-18.png
subject-02,1,399,0.68610692024231,car,car,0,0399_ske_s02_0_car_00_car-0116-sketch-20.png
subject-02,1,400,0.989850044250488,truck,truck,0,0400_ske_s02_0_truck_00_truck-0135-sketch-38.png
subject-02,1,401,0.781988143920898,clock,clock,0,0401_ske_s02_0_clock_00_clock-0073-sketch-28.png
subject-02,1,402,0.9638831615448,boat,boat,0,0402_ske_s02_0_boat_00_boat-0099-sketch-6.png
subject-02,1,403,0.501385927200317,clock,clock,0,0403_ske_s02_0_clock_00_clock-0028-sketch-33.png
subject-02,1,404,0.82495903968811,truck,truck,0,0404_ske_s02_0_truck_00_truck-0112-sketch-17.png
subject-02,1,405,0.518935918807983,clock,clock,0,0405_ske_s02_0_clock_00_clock-0035-sketch-4.png
subject-02,1,406,0.546566963195801,clock,clock,0,0406_ske_s02_0_clock_00_clock-0132-sketch-35.png
subject-02,1,407,0.532379865646362,cat,cat,0,0407_ske_s02_0_cat_00_cat-0150-sketch-7.png
subject-02,1,408,1.06016397476196,truck,truck,0,0408_ske_s02_0_truck_00_truck-0221-sketch-23.png
subject-02,1,409,0.730055093765259,boat,boat,0,0409_ske_s02_0_boat_00_boat-0146-sketch-48.png
subject-02,1,410,1.12995004653931,dog,dog,0,0410_ske_s02_0_dog_00_dog-1393-sketch-3.png
subject-02,1,411,0.741657018661499,keyboard,keyboard,0,0411_ske_s02_0_keyboard_00_keyboard-0061-sketch-17.png
subject-02,1,412,0.715534925460815,chair,chair,0,0412_ske_s02_0_chair_00_chair-0175-sketch-29.png
subject-02,1,413,0.705305099487305,cat,cat,0,0413_ske_s02_0_cat_00_cat-0059-sketch-16.png
subject-02,1,414,0.739045143127441,airplane,airplane,0,0414_ske_s02_0_airplane_00_airplane-0033-sketch-38.png
subject-02,1,415,0.896986961364746,boat,car,0,0415_ske_s02_0_car_00_car-0079-sketch-33.png
subject-02,1,416,0.660677909851074,bear,bear,0,0416_ske_s02_0_bear_00_bear-0053-sketch-10.png
subject-02,1,417,0.694559097290039,bicycle,bicycle,0,0417_ske_s02_0_bicycle_00_bicycle-0078-sketch-32.png
subject-02,1,418,0.988264083862305,airplane,airplane,0,0418_ske_s02_0_airplane_00_airplane-0034-sketch-39.png
subject-02,1,419,0.850229024887085,elephant,elephant,0,0419_ske_s02_0_elephant_00_elephant-0013-sketch-2.png
subject-02,1,420,0.638151884078979,boat,boat,0,0420_ske_s02_0_boat_00_boat-0059-sketch-15.png
subject-02,1,421,0.758229970932007,elephant,elephant,0,0421_ske_s02_0_elephant_00_elephant-0047-sketch-50.png
subject-02,1,422,0.621867179870605,keyboard,keyboard,0,0422_ske_s02_0_keyboard_00_keyboard-0003-sketch-10.png
subject-02,1,423,0.67591118812561,elephant,elephant,0,0423_ske_s02_0_elephant_00_elephant-0101-sketch-8.png
subject-02,1,424,0.701359033584595,chair,chair,0,0424_ske_s02_0_chair_00_chair-0167-sketch-21.png
subject-02,1,425,0.589302062988281,bicycle,bicycle,0,0425_ske_s02_0_bicycle_00_bicycle-0081-sketch-35.png
subject-02,1,426,0.655279874801636,bottle,bottle,0,0426_ske_s02_0_bottle_00_bottle-0086-sketch-40.png
subject-02,1,427,0.744891881942749,elephant,elephant,0,0427_ske_s02_0_elephant_00_elephant-0019-sketch-25.png
subject-02,1,428,0.688762903213501,keyboard,keyboard,0,0428_ske_s02_0_keyboard_00_keyboard-0037-sketch-41.png
subject-02,1,429,0.730826139450073,elephant,elephant,0,0429_ske_s02_0_elephant_00_elephant-0021-sketch-27.png
subject-02,1,430,0.632814884185791,keyboard,keyboard,0,0430_ske_s02_0_keyboard_00_keyboard-0059-sketch-15.png
subject-02,1,431,0.662073135375977,bottle,bottle,0,0431_ske_s02_0_bottle_00_bottle-0301-sketch-50.png
subject-02,1,432,0.690110206604004,chair,chair,0,0432_ske_s02_0_chair_00_chair-0011-sketch-18.png
subject-02,1,433,0.727663040161133,bottle,bottle,0,0433_ske_s02_0_bottle_00_bottle-0162-sketch-17.png
subject-02,1,434,0.571588039398193,boat,boat,0,0434_ske_s02_0_boat_00_boat-0115-sketch-2.png
subject-02,1,435,0.65522289276123,bear,bear,0,0435_ske_s02_0_bear_00_bear-0110-sketch-16.png
subject-02,1,436,0.587040901184082,oven,oven,0,0436_ske_s02_0_oven_00_oven-0043-sketch-47.png
subject-02,1,437,0.635020017623901,chair,chair,0,0437_ske_s02_0_chair_00_chair-0118-sketch-23.png
subject-02,1,438,0.91075611114502,dog,dog,0,0438_ske_s02_0_dog_00_dog-1617-sketch-48.png
subject-02,1,439,0.768572092056274,cat,cat,0,0439_ske_s02_0_cat_00_cat-0207-sketch-11.png
subject-02,1,440,0.606452941894531,knife,knife,0,0440_ske_s02_0_knife_00_knife-0013-sketch-2.png
subject-02,1,441,0.628139019012451,knife,knife,0,0441_ske_s02_0_knife_00_knife-0050-sketch-8.png
subject-02,1,442,0.586076974868774,chair,chair,0,0442_ske_s02_0_chair_00_chair-0125-sketch-3.png
subject-02,1,443,0.662188053131104,bear,bear,0,0443_ske_s02_0_bear_00_bear-0041-sketch-45.png
subject-02,1,444,0.587877035140991,cat,cat,0,0444_ske_s02_0_cat_00_cat-0233-sketch-35.png
subject-02,1,445,0.72137713432312,keyboard,keyboard,0,0445_ske_s02_0_keyboard_00_keyboard-0006-sketch-13.png
subject-02,1,446,0.543402194976807,airplane,airplane,0,0446_ske_s02_0_airplane_00_airplane-0021-sketch-27.png
subject-02,1,447,0.613085031509399,knife,knife,0,0447_ske_s02_0_knife_00_knife-0039-sketch-43.png
subject-02,1,448,0.668742179870605,airplane,airplane,0,0448_ske_s02_0_airplane_00_airplane-0031-sketch-36.png
subject-02,1,449,1.11850309371948,bottle,bottle,0,0449_ske_s02_0_bottle_00_bottle-0237-sketch-39.png
subject-02,1,450,1.13058090209961,keyboard,keyboard,0,0450_ske_s02_0_keyboard_00_keyboard-0043-sketch-47.png
subject-02,1,451,0.662401914596558,chair,chair,0,0451_ske_s02_0_chair_00_chair-0135-sketch-39.png
subject-02,1,452,0.619952917098999,bicycle,bicycle,0,0452_ske_s02_0_bicycle_00_bicycle-0087-sketch-40.png
subject-02,1,453,0.731897115707397,elephant,elephant,0,0453_ske_s02_0_elephant_00_elephant-0039-sketch-43.png
subject-02,1,454,0.703841924667358,oven,oven,0,0454_ske_s02_0_oven_00_oven-0045-sketch-49.png
subject-02,1,455,1.12557601928711,cat,cat,0,0455_ske_s02_0_cat_00_cat-0011-sketch-18.png
subject-02,1,456,0.639409065246582,bicycle,bicycle,0,0456_ske_s02_0_bicycle_00_bicycle-0059-sketch-15.png
subject-02,1,457,0.675177812576294,oven,oven,0,0457_ske_s02_0_oven_00_oven-0044-sketch-48.png
subject-02,1,458,0.624933958053589,keyboard,keyboard,0,0458_ske_s02_0_keyboard_00_keyboard-0087-sketch-40.png
subject-02,1,459,0.572648048400879,airplane,airplane,0,0459_ske_s02_0_airplane_00_airplane-0011-sketch-18.png
subject-02,1,460,0.60844087600708,oven,oven,0,0460_ske_s02_0_oven_00_oven-0033-sketch-38.png
subject-02,1,461,0.772300004959106,knife,knife,0,0461_ske_s02_0_knife_00_knife-0009-sketch-16.png
subject-02,1,462,0.680227994918823,clock,clock,0,0462_ske_s02_0_clock_00_clock-0110-sketch-15.png
subject-02,1,463,0.774218082427979,knife,knife,0,0463_ske_s02_0_knife_00_knife-0037-sketch-41.png
subject-02,1,464,0.766329050064087,bottle,bottle,0,0464_ske_s02_0_bottle_00_bottle-0296-sketch-46.png
subject-02,1,465,0.595890998840332,oven,oven,0,0465_ske_s02_0_oven_00_oven-0038-sketch-42.png
subject-02,1,466,0.619381904602051,bear,bear,0,0466_ske_s02_0_bear_00_bear-0022-sketch-28.png
subject-02,1,467,0.653181076049805,oven,oven,0,0467_ske_s02_0_oven_00_oven-0040-sketch-44.png
subject-02,1,468,0.713159084320068,knife,knife,0,0468_ske_s02_0_knife_00_knife-0014-sketch-20.png
subject-02,1,469,0.599378824234009,boat,boat,0,0469_ske_s02_0_boat_00_boat-0113-sketch-18.png
subject-02,1,470,0.706767797470093,cat,cat,0,0470_ske_s02_0_cat_00_cat-0052-sketch-1.png
subject-02,1,471,0.862398147583008,oven,oven,0,0471_ske_s02_0_oven_00_oven-0026-sketch-31.png
subject-02,1,472,0.530438184738159,airplane,airplane,0,0472_ske_s02_0_airplane_00_airplane-0035-sketch-4.png
subject-02,1,473,0.678098917007446,keyboard,keyboard,0,0473_ske_s02_0_keyboard_00_keyboard-0007-sketch-14.png
subject-02,1,474,0.965821981430054,bird,bird,0,0474_ske_s02_0_bird_00_bird-1148-sketch-32.png
subject-02,1,475,0.79594898223877,knife,knife,0,0475_ske_s02_0_knife_00_knife-0048-sketch-6.png
subject-02,1,476,0.689454078674316,clock,clock,0,0476_ske_s02_0_clock_00_clock-0137-sketch-4.png
subject-02,1,477,0.639572858810425,chair,chair,0,0477_ske_s02_0_chair_00_chair-0055-sketch-11.png
subject-02,1,478,0.653244972229004,bottle,bottle,0,0478_ske_s02_0_bottle_00_bottle-0041-sketch-45.png
subject-02,1,479,0.685340881347656,knife,knife,0,0479_ske_s02_0_knife_00_knife-0004-sketch-11.png
subject-02,1,480,0.557241916656494,oven,oven,0,0480_ske_s02_0_oven_00_oven-0004-sketch-11.png
subject-02,1,481,1.01940202713013,chair,knife,0,0481_ske_s02_0_knife_00_knife-0033-sketch-38.png
subject-02,1,482,0.756948947906494,chair,chair,0,0482_ske_s02_0_chair_00_chair-0079-sketch-33.png
subject-02,1,483,0.616529941558838,cat,cat,0,0483_ske_s02_0_cat_00_cat-0067-sketch-23.png
subject-02,1,484,0.660332918167114,bear,bear,0,0484_ske_s02_0_bear_00_bear-0036-sketch-40.png
subject-02,1,485,0.636196851730347,bottle,bottle,0,0485_ske_s02_0_bottle_00_bottle-0215-sketch-19.png
subject-02,1,486,0.522458076477051,boat,boat,0,0486_ske_s02_0_boat_00_boat-0234-sketch-35.png
subject-02,1,487,0.769623041152954,knife,knife,0,0487_ske_s02_0_knife_00_knife-0008-sketch-15.png
subject-02,1,488,0.545494079589844,oven,oven,0,0488_ske_s02_0_oven_00_oven-0006-sketch-13.png
subject-02,1,489,0.559298038482666,oven,oven,0,0489_ske_s02_0_oven_00_oven-0016-sketch-22.png
subject-02,1,490,0.829087018966675,truck,truck,0,0490_ske_s02_0_truck_00_truck-0301-sketch-5.png
subject-02,1,491,0.82895302772522,cat,cat,0,0491_ske_s02_0_cat_00_cat-0264-sketch-17.png
subject-02,1,492,0.626682043075562,cat,cat,0,0492_ske_s02_0_cat_00_cat-0160-sketch-15.png
subject-02,1,493,0.606860876083374,bicycle,bicycle,0,0493_ske_s02_0_bicycle_00_bicycle-0101-sketch-8.png
subject-02,1,494,0.550482988357544,chair,chair,0,0494_ske_s02_0_chair_00_chair-0062-sketch-18.png
subject-02,1,495,0.530496120452881,boat,boat,0,0495_ske_s02_0_boat_00_boat-0065-sketch-20.png
subject-02,1,496,0.588112115859985,cat,cat,0,0496_ske_s02_0_cat_00_cat-0009-sketch-16.png
subject-02,1,497,0.677711009979248,cat,cat,0,0497_ske_s02_0_cat_00_cat-0265-sketch-18.png
subject-02,1,498,0.552145957946777,oven,oven,0,0498_ske_s02_0_oven_00_oven-0011-sketch-18.png
subject-02,1,499,0.725574970245361,bird,bird,0,0499_ske_s02_0_bird_00_bird-0880-sketch-2.png
subject-02,1,500,0.635741949081421,cat,cat,0,0500_ske_s02_0_cat_00_cat-0274-sketch-26.png
subject-02,1,501,0.649255037307739,bicycle,bicycle,0,0501_ske_s02_0_bicycle_00_bicycle-0046-sketch-5.png
subject-02,1,502,0.714834928512573,bear,bear,0,0502_ske_s02_0_bear_00_bear-0149-sketch-6.png
subject-02,1,503,0.609054803848267,clock,clock,0,0503_ske_s02_0_clock_00_clock-0049-sketch-7.png
subject-02,1,504,0.930682897567749,elephant,elephant,0,0504_ske_s02_0_elephant_00_elephant-0057-sketch-13.png
subject-02,1,505,0.852380990982056,car,truck,0,0505_ske_s02_0_truck_00_truck-0266-sketch-18.png
subject-02,1,506,0.600739002227783,bicycle,bicycle,0,0506_ske_s02_0_bicycle_00_bicycle-0071-sketch-26.png
subject-02,1,507,1.08010697364807,dog,dog,0,0507_ske_s02_0_dog_00_dog-3915-sketch-0.png
subject-02,1,508,0.873785972595215,dog,dog,0,0508_ske_s02_0_dog_00_dog-2615-sketch-3.png
subject-02,1,509,0.479598045349121,clock,clock,0,0509_ske_s02_0_clock_00_clock-0015-sketch-21.png
subject-02,1,510,0.649303913116455,chair,chair,0,0510_ske_s02_0_chair_00_chair-0040-sketch-44.png
subject-02,1,511,0.485785961151123,boat,boat,0,0511_ske_s02_0_boat_00_boat-0070-sketch-25.png
subject-02,1,512,0.735147953033447,elephant,elephant,0,0512_ske_s02_0_elephant_00_elephant-0046-sketch-5.png
subject-02,1,513,0.562855005264282,boat,boat,0,0513_ske_s02_0_boat_00_boat-0253-sketch-7.png
subject-02,1,514,0.738586187362671,bird,bird,0,0514_ske_s02_0_bird_00_bird-2169-sketch-36.png
subject-02,1,515,0.622848987579346,keyboard,keyboard,0,0515_ske_s02_0_keyboard_00_keyboard-0042-sketch-46.png
subject-02,1,516,0.684226989746094,cat,cat,0,0516_ske_s02_0_cat_00_cat-0002-sketch-1.png
subject-02,1,517,0.626192092895508,bottle,bottle,0,0517_ske_s02_0_bottle_00_bottle-0054-sketch-11.png
subject-02,1,518,0.777796030044556,bird,bird,0,0518_ske_s02_0_bird_00_bird-1342-sketch-24.png
subject-02,1,519,0.641674995422363,keyboard,keyboard,0,0519_ske_s02_0_keyboard_00_keyboard-0031-sketch-36.png
subject-02,1,520,0.85163402557373,boat,boat,0,0520_ske_s02_0_boat_00_boat-0165-sketch-19.png
subject-02,1,521,0.769404172897339,elephant,elephant,0,0521_ske_s02_0_elephant_00_elephant-0044-sketch-48.png
subject-02,1,522,0.865295886993408,bear,bear,0,0522_ske_s02_0_bear_00_bear-0026-sketch-31.png
subject-02,1,523,0.820884943008423,elephant,elephant,0,0523_ske_s02_0_elephant_00_elephant-0002-sketch-1.png
subject-02,1,524,0.722738027572632,elephant,elephant,0,0524_ske_s02_0_elephant_00_elephant-0028-sketch-33.png
subject-02,1,525,0.652556896209717,bicycle,bicycle,0,0525_ske_s02_0_bicycle_00_bicycle-0003-sketch-10.png
subject-02,1,526,0.504570007324219,clock,clock,0,0526_ske_s02_0_clock_00_clock-0095-sketch-48.png
subject-02,1,527,0.658638000488281,airplane,airplane,0,0527_ske_s02_0_airplane_00_airplane-0008-sketch-15.png
subject-02,1,528,0.638004064559937,knife,knife,0,0528_ske_s02_0_knife_00_knife-0032-sketch-37.png
subject-02,1,529,0.683938980102539,elephant,elephant,0,0529_ske_s02_0_elephant_00_elephant-0011-sketch-18.png
subject-02,1,530,0.69378399848938,keyboard,keyboard,0,0530_ske_s02_0_keyboard_00_keyboard-0035-sketch-4.png
subject-02,1,531,0.937514066696167,bear,bear,0,0531_ske_s02_0_bear_00_bear-0188-sketch-40.png
subject-02,1,532,0.541372060775757,chair,chair,0,0532_ske_s02_0_chair_00_chair-0088-sketch-41.png
subject-02,1,533,0.787173986434937,knife,knife,0,0533_ske_s02_0_knife_00_knife-0024-sketch-3.png
subject-02,1,534,0.615401983261108,bottle,bottle,0,0534_ske_s02_0_bottle_00_bottle-0126-sketch-30.png
subject-02,1,535,0.742840051651001,dog,dog,0,0535_ske_s02_0_dog_00_dog-4202-sketch-4.png
subject-02,1,536,0.644408941268921,elephant,elephant,0,0536_ske_s02_0_elephant_00_elephant-0037-sketch-41.png
subject-02,1,537,0.638872146606445,keyboard,keyboard,0,0537_ske_s02_0_keyboard_00_keyboard-0049-sketch-7.png
subject-02,1,538,0.67005181312561,chair,chair,0,0538_ske_s02_0_chair_00_chair-0105-sketch-11.png
subject-02,1,539,0.45429801940918,clock,clock,0,0539_ske_s02_0_clock_00_clock-0007-sketch-14.png
subject-02,1,540,0.544022083282471,airplane,airplane,0,0540_ske_s02_0_airplane_00_airplane-0007-sketch-14.png
subject-02,1,541,0.655947208404541,bird,bird,0,0541_ske_s02_0_bird_00_bird-1033-sketch-20.png
subject-02,1,542,0.721265077590942,bird,bird,0,0542_ske_s02_0_bird_00_bird-0228-sketch-3.png
subject-02,1,543,0.655335903167725,car,car,0,0543_ske_s02_0_car_00_car-0092-sketch-45.png
subject-02,1,544,0.726940870285034,knife,knife,0,0544_ske_s02_0_knife_00_knife-0031-sketch-36.png
subject-02,1,545,0.618787050247192,car,car,0,0545_ske_s02_0_car_00_car-0024-sketch-3.png
subject-02,1,546,0.811249017715454,elephant,elephant,0,0546_ske_s02_0_elephant_00_elephant-0043-sketch-47.png
subject-02,1,547,0.504456996917725,boat,boat,0,0547_ske_s02_0_boat_00_boat-0239-sketch-4.png
subject-02,1,548,0.798313140869141,dog,dog,0,0548_ske_s02_0_dog_00_dog-5084-sketch-11.png
subject-02,1,549,0.636411905288696,chair,chair,0,0549_ske_s02_0_chair_00_chair-0006-sketch-13.png
subject-02,1,550,0.63982105255127,bicycle,bicycle,0,0550_ske_s02_0_bicycle_00_bicycle-0022-sketch-28.png
subject-02,1,551,0.837599039077759,bear,bear,0,0551_ske_s02_0_bear_00_bear-0179-sketch-32.png
subject-02,1,552,0.723565101623535,boat,boat,0,0552_ske_s02_0_boat_00_boat-0034-sketch-39.png
subject-02,1,553,0.707315921783447,elephant,elephant,0,0553_ske_s02_0_elephant_00_elephant-0086-sketch-4.png
subject-02,1,554,0.675264835357666,bottle,bottle,0,0554_ske_s02_0_bottle_00_bottle-0082-sketch-37.png
subject-02,1,555,0.636972904205322,chair,chair,0,0555_ske_s02_0_chair_00_chair-0002-sketch-1.png
subject-02,1,556,0.628848791122437,bicycle,bicycle,0,0556_ske_s02_0_bicycle_00_bicycle-0098-sketch-50.png
subject-02,1,557,0.796594858169556,bear,bear,0,0557_ske_s02_0_bear_00_bear-0030-sketch-35.png
subject-02,1,558,0.752350091934204,elephant,elephant,0,0558_ske_s02_0_elephant_00_elephant-0098-sketch-50.png
subject-02,1,559,0.840200901031494,dog,dog,0,0559_ske_s02_0_dog_00_dog-1657-sketch-38.png
subject-02,1,560,0.631948947906494,bird,bird,0,0560_ske_s02_0_bird_00_bird-0474-sketch-21.png
subject-02,1,561,0.543737888336182,airplane,airplane,0,0561_ske_s02_0_airplane_00_airplane-0048-sketch-6.png
subject-02,1,562,0.599550008773804,boat,boat,0,0562_ske_s02_0_boat_00_boat-0110-sketch-15.png
subject-02,1,563,1.03945708274841,bear,bear,0,0563_ske_s02_0_bear_00_bear-0038-sketch-42.png
subject-02,1,564,0.803629159927368,car,car,0,0564_ske_s02_0_car_00_car-0114-sketch-19.png
subject-02,1,565,0.70911717414856,elephant,elephant,0,0565_ske_s02_0_elephant_00_elephant-0050-sketch-8.png
subject-02,1,566,0.694746971130371,boat,truck,0,0566_ske_s02_0_truck_00_truck-0079-sketch-33.png
subject-02,1,567,0.615020036697388,knife,knife,0,0567_ske_s02_0_knife_00_knife-0047-sketch-50.png
subject-02,1,568,0.602735996246338,airplane,airplane,0,0568_ske_s02_0_airplane_00_airplane-0030-sketch-35.png
subject-02,1,569,0.586435079574585,car,car,0,0569_ske_s02_0_car_00_car-0098-sketch-50.png
subject-02,1,570,0.692852020263672,bear,bear,0,0570_ske_s02_0_bear_00_bear-0087-sketch-41.png
subject-02,1,571,0.652117967605591,keyboard,keyboard,0,0571_ske_s02_0_keyboard_00_keyboard-0063-sketch-19.png
subject-02,1,572,0.639662981033325,cat,cat,0,0572_ske_s02_0_cat_00_cat-0027-sketch-32.png
subject-02,1,573,0.687609910964966,knife,knife,0,0573_ske_s02_0_knife_00_knife-0036-sketch-40.png
subject-02,1,574,0.539339065551758,oven,oven,0,0574_ske_s02_0_oven_00_oven-0008-sketch-15.png
subject-02,1,575,0.563138961791992,bicycle,bicycle,0,0575_ske_s02_0_bicycle_00_bicycle-0102-sketch-9.png
subject-02,1,576,0.706912994384766,bottle,bottle,0,0576_ske_s02_0_bottle_00_bottle-0071-sketch-27.png
subject-02,1,577,0.808799982070923,dog,dog,0,0577_ske_s02_0_dog_00_dog-1292-sketch-3.png
subject-02,1,578,0.72502613067627,car,car,0,0578_ske_s02_0_car_00_car-0045-sketch-49.png
subject-02,1,579,0.676491975784302,car,car,0,0579_ske_s02_0_car_00_car-0145-sketch-47.png
subject-02,1,580,0.492671012878418,oven,oven,0,0580_ske_s02_0_oven_00_oven-0020-sketch-26.png
subject-02,1,581,0.5380699634552,bicycle,bicycle,0,0581_ske_s02_0_bicycle_00_bicycle-0090-sketch-43.png
subject-02,1,582,0.587877988815308,bicycle,bicycle,0,0582_ske_s02_0_bicycle_00_bicycle-0020-sketch-26.png
subject-02,1,583,0.611850023269653,keyboard,keyboard,0,0583_ske_s02_0_keyboard_00_keyboard-0098-sketch-50.png
subject-02,1,584,0.913587093353271,truck,truck,0,0584_ske_s02_0_truck_00_truck-0075-sketch-3.png
subject-02,1,585,0.519661903381348,oven,oven,0,0585_ske_s02_0_oven_00_oven-0025-sketch-30.png
subject-02,1,586,0.657367944717407,car,car,0,0586_ske_s02_0_car_00_car-0138-sketch-40.png
subject-02,1,587,1.03677606582642,truck,truck,0,0587_ske_s02_0_truck_00_truck-0303-sketch-6.png
subject-02,1,588,0.580873012542725,airplane,airplane,0,0588_ske_s02_0_airplane_00_airplane-0002-sketch-1.png
subject-02,1,589,0.745012998580933,dog,dog,0,0589_ske_s02_0_dog_00_dog-3303-sketch-0.png
subject-02,1,590,0.970458030700684,truck,truck,0,0590_ske_s02_0_truck_00_truck-0307-sketch-0.png
subject-02,1,591,0.818240880966187,knife,knife,0,0591_ske_s02_0_knife_00_knife-0016-sketch-22.png
subject-02,1,592,0.722227096557617,boat,boat,0,0592_ske_s02_0_boat_00_boat-0130-sketch-33.png
subject-02,1,593,0.655809879302979,boat,boat,0,0593_ske_s02_0_boat_00_boat-0079-sketch-33.png
subject-02,1,594,0.865780115127563,airplane,airplane,0,0594_ske_s02_0_airplane_00_airplane-0027-sketch-32.png
subject-02,1,595,0.775652885437012,truck,truck,0,0595_ske_s02_0_truck_00_truck-0355-sketch-7.png
subject-02,1,596,0.607534170150757,oven,oven,0,0596_ske_s02_0_oven_00_oven-0047-sketch-50.png
subject-02,1,597,0.699453115463257,bicycle,bicycle,0,0597_ske_s02_0_bicycle_00_bicycle-0048-sketch-6.png
subject-02,1,598,0.842874050140381,dog,dog,0,0598_ske_s02_0_dog_00_dog-4208-sketch-45.png
subject-02,1,599,0.940587043762207,elephant,elephant,0,0599_ske_s02_0_elephant_00_elephant-0080-sketch-34.png
subject-02,1,600,0.838549137115479,cat,cat,0,0600_ske_s02_0_cat_00_cat-0016-sketch-22.png
subject-02,1,601,0.590344905853271,knife,knife,0,0601_ske_s02_0_knife_00_knife-0028-sketch-33.png
subject-02,1,602,0.750126123428345,bicycle,bicycle,0,0602_ske_s02_0_bicycle_00_bicycle-0068-sketch-23.png
subject-02,1,603,0.799961090087891,oven,truck,0,0603_ske_s02_0_truck_00_truck-0196-sketch-47.png
subject-02,1,604,0.620265960693359,knife,knife,0,0604_ske_s02_0_knife_00_knife-0012-sketch-19.png
subject-02,1,605,0.825491905212402,car,car,0,0605_ske_s02_0_car_00_car-0136-sketch-39.png
subject-02,1,606,0.723549842834473,car,car,0,0606_ske_s02_0_car_00_car-0125-sketch-29.png
subject-02,1,607,0.831571102142334,dog,dog,0,0607_ske_s02_0_dog_00_dog-0476-sketch-26.png
subject-02,1,608,0.63087797164917,oven,oven,0,0608_ske_s02_0_oven_00_oven-0003-sketch-10.png
subject-02,1,609,0.531244993209839,clock,clock,0,0609_ske_s02_0_clock_00_clock-0081-sketch-35.png
subject-02,1,610,0.870657920837402,bear,bear,0,0610_ske_s02_0_bear_00_bear-0085-sketch-4.png
subject-02,1,611,0.838608980178833,bird,bird,0,0611_ske_s02_0_bird_00_bird-1756-sketch-31.png
subject-02,1,612,0.590708017349243,oven,oven,0,0612_ske_s02_0_oven_00_oven-0009-sketch-16.png
subject-02,1,613,0.664528131484985,chair,chair,0,0613_ske_s02_0_chair_00_chair-0155-sketch-10.png
subject-02,1,614,1.13627791404724,boat,boat,0,0614_ske_s02_0_boat_00_boat-0074-sketch-29.png
subject-02,1,615,0.711719989776611,truck,car,0,0615_ske_s02_0_car_00_car-0050-sketch-8.png
subject-02,1,616,0.555503845214844,chair,chair,0,0616_ske_s02_0_chair_00_chair-0127-sketch-31.png
subject-02,1,617,0.581187009811401,oven,oven,0,0617_ske_s02_0_oven_00_oven-0024-sketch-3.png
subject-02,1,618,0.8193678855896,knife,knife,0,0618_ske_s02_0_knife_00_knife-0010-sketch-17.png
subject-02,1,619,0.632862091064453,bicycle,bicycle,0,0619_ske_s02_0_bicycle_00_bicycle-0095-sketch-48.png
subject-02,1,620,0.568607091903687,bottle,bottle,0,0620_ske_s02_0_bottle_00_bottle-0130-sketch-34.png
subject-02,1,621,0.720468997955322,boat,boat,0,0621_ske_s02_0_boat_00_boat-0194-sketch-45.png
subject-02,1,622,0.592489957809448,boat,boat,0,0622_ske_s02_0_boat_00_boat-0080-sketch-34.png
subject-02,1,623,0.638187885284424,knife,knife,0,0623_ske_s02_0_knife_00_knife-0034-sketch-39.png
subject-02,1,624,0.708096981048584,truck,truck,0,0624_ske_s02_0_truck_00_truck-0012-sketch-19.png
subject-02,1,625,0.622447967529297,bird,bird,0,0625_ske_s02_0_bird_00_bird-2372-sketch-36.png
subject-02,1,626,0.639638900756836,elephant,elephant,0,0626_ske_s02_0_elephant_00_elephant-0075-sketch-3.png
subject-02,1,627,0.679489850997925,bird,bird,0,0627_ske_s02_0_bird_00_bird-1510-sketch-39.png
subject-02,1,628,0.695304155349731,airplane,airplane,0,0628_ske_s02_0_airplane_00_airplane-0025-sketch-30.png
subject-02,1,629,0.631168842315674,bear,bear,0,0629_ske_s02_0_bear_00_bear-0033-sketch-38.png
subject-02,1,630,0.66483211517334,elephant,elephant,0,0630_ske_s02_0_elephant_00_elephant-0040-sketch-44.png
subject-02,1,631,0.706677198410034,knife,knife,0,0631_ske_s02_0_knife_00_knife-0002-sketch-1.png
subject-02,1,632,0.694537878036499,elephant,elephant,0,0632_ske_s02_0_elephant_00_elephant-0054-sketch-10.png
subject-02,1,633,0.894260883331299,car,car,0,0633_ske_s02_0_car_00_car-0034-sketch-39.png
subject-02,1,634,1.50010895729065,bear,bear,0,0634_ske_s02_0_bear_00_bear-0198-sketch-5.png
subject-02,1,635,1.04199409484863,truck,truck,0,0635_ske_s02_0_truck_00_truck-0045-sketch-49.png
subject-02,1,636,0.543812036514282,bicycle,bicycle,0,0636_ske_s02_0_bicycle_00_bicycle-0047-sketch-50.png
subject-02,1,637,0.609534978866577,chair,chair,0,0637_ske_s02_0_chair_00_chair-0131-sketch-35.png
subject-02,1,638,0.715517997741699,dog,dog,0,0638_ske_s02_0_dog_00_dog-4325-sketch-13.png
subject-02,1,639,0.619205951690674,keyboard,keyboard,0,0639_ske_s02_0_keyboard_00_keyboard-0034-sketch-39.png
subject-02,1,640,0.610883951187134,bird,bird,0,0640_ske_s02_0_bird_00_bird-0292-sketch-41.png
subject-02,1,641,0.668401956558228,bicycle,bicycle,0,0641_ske_s02_0_bicycle_00_bicycle-0094-sketch-47.png
subject-02,1,642,0.618319034576416,bird,bird,0,0642_ske_s02_0_bird_00_bird-1562-sketch-40.png
subject-02,1,643,0.504086017608643,boat,boat,0,0643_ske_s02_0_boat_00_boat-0036-sketch-40.png
subject-02,1,644,0.735806941986084,chair,chair,0,0644_ske_s02_0_chair_00_chair-0034-sketch-39.png
subject-02,1,645,0.831562995910645,airplane,airplane,0,0645_ske_s02_0_airplane_00_airplane-0003-sketch-10.png
subject-02,1,646,0.705613851547241,knife,knife,0,0646_ske_s02_0_knife_00_knife-0044-sketch-48.png
subject-02,1,647,0.637204170227051,chair,chair,0,0647_ske_s02_0_chair_00_chair-0130-sketch-34.png
subject-02,1,648,0.549159049987793,clock,clock,0,0648_ske_s02_0_clock_00_clock-0030-sketch-35.png
subject-02,1,649,0.676726102828979,knife,knife,0,0649_ske_s02_0_knife_00_knife-0051-sketch-9.png
subject-02,1,650,0.596698045730591,cat,cat,0,0650_ske_s02_0_cat_00_cat-0293-sketch-43.png
subject-02,1,651,0.590530157089233,keyboard,keyboard,0,0651_ske_s02_0_keyboard_00_keyboard-0041-sketch-45.png
subject-02,1,652,0.582488059997559,airplane,airplane,0,0652_ske_s02_0_airplane_00_airplane-0024-sketch-3.png
subject-02,1,653,0.562126874923706,clock,clock,0,0653_ske_s02_0_clock_00_clock-0099-sketch-6.png
subject-02,1,654,0.693873882293701,airplane,airplane,0,0654_ske_s02_0_airplane_00_airplane-0018-sketch-24.png
subject-02,1,655,1.14968800544739,dog,dog,0,0655_ske_s02_0_dog_00_dog-5354-sketch-25.png
subject-02,1,656,0.609500885009766,chair,chair,0,0656_ske_s02_0_chair_00_chair-0060-sketch-16.png
subject-02,1,657,0.735359907150269,truck,truck,0,0657_ske_s02_0_truck_00_truck-0076-sketch-30.png
subject-02,1,658,0.687195062637329,airplane,airplane,0,0658_ske_s02_0_airplane_00_airplane-0042-sketch-46.png
subject-02,1,659,0.778995990753174,bear,bear,0,0659_ske_s02_0_bear_00_bear-0135-sketch-39.png
subject-02,1,660,0.736985206604004,bicycle,bicycle,0,0660_ske_s02_0_bicycle_00_bicycle-0038-sketch-42.png
subject-02,1,661,0.89246392250061,truck,truck,0,0661_ske_s02_0_truck_00_truck-0136-sketch-39.png
subject-02,1,662,0.672398090362549,elephant,elephant,0,0662_ske_s02_0_elephant_00_elephant-0032-sketch-37.png
subject-02,1,663,0.580171823501587,cat,cat,0,0663_ske_s02_0_cat_00_cat-0140-sketch-43.png
subject-02,1,664,0.677969932556152,knife,knife,0,0664_ske_s02_0_knife_00_knife-0027-sketch-32.png
subject-02,1,665,0.792273998260498,dog,dog,0,0665_ske_s02_0_dog_00_dog-3251-sketch-9.png
subject-02,1,666,0.637576103210449,bottle,bottle,0,0666_ske_s02_0_bottle_00_bottle-0245-sketch-46.png
subject-02,1,667,0.76957893371582,car,truck,0,0667_ske_s02_0_truck_00_truck-0232-sketch-33.png
subject-02,1,668,0.837401151657104,bird,bird,0,0668_ske_s02_0_bird_00_bird-1937-sketch-10.png
subject-02,1,669,0.675058126449585,car,car,0,0669_ske_s02_0_car_00_car-0120-sketch-24.png
subject-02,1,670,0.618904829025269,chair,chair,0,0670_ske_s02_0_chair_00_chair-0178-sketch-31.png
subject-02,1,671,0.664657831192017,bicycle,bicycle,0,0671_ske_s02_0_bicycle_00_bicycle-0025-sketch-30.png
subject-02,1,672,1.19850587844849,bottle,boat,0,0672_ske_s02_0_boat_00_boat-0016-sketch-22.png
subject-02,1,673,0.532397985458374,bear,bear,0,0673_ske_s02_0_bear_00_bear-0199-sketch-50.png
subject-02,1,674,0.662317037582397,bear,bear,0,0674_ske_s02_0_bear_00_bear-0107-sketch-13.png
subject-02,1,675,0.689908981323242,bird,bird,0,0675_ske_s02_0_bird_00_bird-0640-sketch-33.png
subject-02,1,676,0.756263971328735,knife,knife,0,0676_ske_s02_0_knife_00_knife-0026-sketch-31.png
subject-02,1,677,0.773530960083008,bear,bear,0,0677_ske_s02_0_bear_00_bear-0081-sketch-36.png
subject-02,1,678,0.615648031234741,boat,boat,0,0678_ske_s02_0_boat_00_boat-0180-sketch-32.png
subject-02,1,679,1.02528810501099,bottle,bottle,0,0679_ske_s02_0_bottle_00_bottle-0114-sketch-2.png
subject-02,1,680,0.92707896232605,airplane,airplane,0,0680_ske_s02_0_airplane_00_airplane-0049-sketch-7.png
subject-02,1,681,0.626762866973877,airplane,airplane,0,0681_ske_s02_0_airplane_00_airplane-0020-sketch-26.png
subject-02,1,682,0.772669076919556,boat,boat,0,0682_ske_s02_0_boat_00_boat-0132-sketch-35.png
subject-02,1,683,0.610323905944824,car,car,0,0683_ske_s02_0_car_00_car-0021-sketch-27.png
subject-02,1,684,0.790442943572998,car,truck,0,0684_ske_s02_0_truck_00_truck-0131-sketch-34.png
subject-02,1,685,0.664379119873047,cat,cat,0,0685_ske_s02_0_cat_00_cat-0021-sketch-27.png
subject-02,1,686,0.780265092849731,bottle,bottle,0,0686_ske_s02_0_bottle_00_bottle-0217-sketch-20.png
subject-02,1,687,0.645853996276855,bicycle,bicycle,0,0687_ske_s02_0_bicycle_00_bicycle-0037-sketch-41.png
subject-02,1,688,0.785887956619263,keyboard,keyboard,0,0688_ske_s02_0_keyboard_00_keyboard-0009-sketch-16.png
subject-02,1,689,0.5953049659729,cat,cat,0,0689_ske_s02_0_cat_00_cat-0085-sketch-4.png
subject-02,1,690,0.705399036407471,car,truck,0,0690_ske_s02_0_truck_00_truck-0275-sketch-26.png
subject-02,1,691,0.683297872543335,oven,oven,0,0691_ske_s02_0_oven_00_oven-0030-sketch-35.png
subject-02,1,692,0.592769145965576,car,car,0,0692_ske_s02_0_car_00_car-0076-sketch-30.png
subject-02,1,693,0.642494916915894,keyboard,keyboard,0,0693_ske_s02_0_keyboard_00_keyboard-0076-sketch-30.png
subject-02,1,694,0.858480930328369,truck,truck,0,0694_ske_s02_0_truck_00_truck-0115-sketch-2.png
subject-02,1,695,0.832324981689453,truck,truck,0,0695_ske_s02_0_truck_00_truck-0088-sketch-41.png
subject-02,1,696,1.03787088394165,boat,bird,0,0696_ske_s02_0_bird_00_bird-1565-sketch-43.png
subject-02,1,697,0.837881088256836,keyboard,keyboard,0,0697_ske_s02_0_keyboard_00_keyboard-0045-sketch-49.png
subject-02,1,698,0.659722089767456,airplane,airplane,0,0698_ske_s02_0_airplane_00_airplane-0013-sketch-2.png
subject-02,1,699,0.923906803131104,dog,dog,0,0699_ske_s02_0_dog_00_dog-1711-sketch-40.png
subject-02,1,700,0.693647146224976,bottle,bottle,0,0700_ske_s02_0_bottle_00_bottle-0039-sketch-43.png
subject-02,1,701,0.727128982543945,airplane,airplane,0,0701_ske_s02_0_airplane_00_airplane-0005-sketch-12.png
subject-02,1,702,0.796881914138794,clock,clock,0,0702_ske_s02_0_clock_00_clock-0136-sketch-39.png
subject-02,1,703,0.74085807800293,cat,cat,0,0703_ske_s02_0_cat_00_cat-0158-sketch-13.png
subject-02,1,704,0.648554801940918,keyboard,keyboard,0,0704_ske_s02_0_keyboard_00_keyboard-0026-sketch-31.png
subject-02,1,705,0.550336837768555,bicycle,bicycle,0,0705_ske_s02_0_bicycle_00_bicycle-0011-sketch-18.png
subject-02,1,706,0.626104831695557,bottle,bottle,0,0706_ske_s02_0_bottle_00_bottle-0202-sketch-8.png
subject-02,1,707,0.815932035446167,elephant,elephant,0,0707_ske_s02_0_elephant_00_elephant-0058-sketch-14.png
subject-02,1,708,0.957844972610474,truck,car,0,0708_ske_s02_0_car_00_car-0002-sketch-1.png
subject-02,1,709,0.841441869735718,truck,truck,0,0709_ske_s02_0_truck_00_truck-0134-sketch-37.png
subject-02,1,710,0.523283958435059,oven,oven,0,0710_ske_s02_0_oven_00_oven-0010-sketch-17.png
subject-02,1,711,0.695308923721313,keyboard,keyboard,0,0711_ske_s02_0_keyboard_00_keyboard-0052-sketch-0.png
subject-02,1,712,0.639380216598511,bicycle,bicycle,0,0712_ske_s02_0_bicycle_00_bicycle-0026-sketch-31.png
subject-02,1,713,0.595005035400391,keyboard,keyboard,0,0713_ske_s02_0_keyboard_00_keyboard-0038-sketch-42.png
subject-02,1,714,0.628607034683228,airplane,airplane,0,0714_ske_s02_0_airplane_00_airplane-0043-sketch-47.png
subject-02,1,715,0.546449899673462,cat,cat,0,0715_ske_s02_0_cat_00_cat-0302-sketch-6.png
subject-02,1,716,0.564155101776123,chair,chair,0,0716_ske_s02_0_chair_00_chair-0166-sketch-20.png
subject-02,1,717,0.826054096221924,truck,truck,0,0717_ske_s02_0_truck_00_truck-0154-sketch-0.png
subject-02,1,718,0.673763036727905,chair,chair,0,0718_ske_s02_0_chair_00_chair-0083-sketch-37.png
subject-02,1,719,1.00762605667114,car,dog,0,0719_ske_s02_0_dog_00_dog-3153-sketch-11.png
subject-02,1,720,0.759558200836182,bicycle,bicycle,0,0720_ske_s02_0_bicycle_00_bicycle-0056-sketch-12.png
subject-02,1,721,0.57923698425293,oven,oven,0,0721_ske_s02_0_oven_00_oven-0015-sketch-21.png
subject-02,1,722,0.504967927932739,oven,oven,0,0722_ske_s02_0_oven_00_oven-0019-sketch-25.png
subject-02,1,723,0.64893913269043,boat,boat,0,0723_ske_s02_0_boat_00_boat-0094-sketch-47.png
subject-02,1,724,0.818701982498169,keyboard,keyboard,0,0724_ske_s02_0_keyboard_00_keyboard-0086-sketch-4.png
subject-02,1,725,0.71269416809082,bottle,bottle,0,0725_ske_s02_0_bottle_00_bottle-0038-sketch-42.png
subject-02,1,726,0.992530822753906,elephant,elephant,0,0726_ske_s02_0_elephant_00_elephant-0029-sketch-34.png
subject-02,1,727,0.694206953048706,knife,knife,0,0727_ske_s02_0_knife_00_knife-0023-sketch-29.png
subject-02,1,728,0.712396144866943,cat,cat,0,0728_ske_s02_0_cat_00_cat-0269-sketch-21.png
subject-02,1,729,0.797955989837646,chair,chair,0,0729_ske_s02_0_chair_00_chair-0144-sketch-47.png
subject-02,1,730,0.709687948226929,oven,oven,0,0730_ske_s02_0_oven_00_oven-0022-sketch-28.png
subject-02,1,731,0.904051065444946,dog,dog,0,0731_ske_s02_0_dog_00_dog-3573-sketch-22.png
subject-02,1,732,0.62973690032959,bear,bear,0,0732_ske_s02_0_bear_00_bear-0068-sketch-24.png
subject-02,1,733,0.823082208633423,clock,clock,0,0733_ske_s02_0_clock_00_clock-0133-sketch-36.png
subject-02,1,734,0.680718898773193,oven,oven,0,0734_ske_s02_0_oven_00_oven-0049-sketch-7.png
subject-02,1,735,0.677120923995972,dog,dog,0,0735_ske_s02_0_dog_00_dog-0607-sketch-8.png
subject-02,1,736,0.468364953994751,clock,clock,0,0736_ske_s02_0_clock_00_clock-0092-sketch-45.png
subject-02,1,737,0.762734889984131,elephant,elephant,0,0737_ske_s02_0_elephant_00_elephant-0061-sketch-17.png
subject-02,1,738,0.710036993026733,bicycle,bicycle,0,0738_ske_s02_0_bicycle_00_bicycle-0008-sketch-15.png
subject-02,1,739,0.688458919525146,chair,chair,0,0739_ske_s02_0_chair_00_chair-0066-sketch-21.png
subject-02,1,740,0.543760061264038,cat,cat,0,0740_ske_s02_0_cat_00_cat-0082-sketch-37.png
subject-02,1,741,0.733748912811279,oven,oven,0,0741_ske_s02_0_oven_00_oven-0002-sketch-1.png
subject-02,1,742,0.533414125442505,boat,boat,0,0742_ske_s02_0_boat_00_boat-0064-sketch-2.png
subject-02,1,743,0.843316793441772,dog,dog,0,0743_ske_s02_0_dog_00_dog-2506-sketch-23.png
subject-02,1,744,0.634968996047974,chair,chair,0,0744_ske_s02_0_chair_00_chair-0124-sketch-29.png
subject-02,1,745,0.680850028991699,bottle,bottle,0,0745_ske_s02_0_bottle_00_bottle-0097-sketch-50.png
subject-02,1,746,0.822813034057617,knife,knife,0,0746_ske_s02_0_knife_00_knife-0040-sketch-44.png
subject-02,1,747,0.540266990661621,oven,oven,0,0747_ske_s02_0_oven_00_oven-0005-sketch-12.png
subject-02,1,748,0.770101070404053,cat,cat,0,0748_ske_s02_0_cat_00_cat-0104-sketch-10.png
subject-02,1,749,0.667937994003296,car,car,0,0749_ske_s02_0_car_00_car-0069-sketch-24.png
subject-02,1,750,0.701726913452148,elephant,elephant,0,0750_ske_s02_0_elephant_00_elephant-0048-sketch-6.png
subject-02,1,751,0.72963809967041,car,truck,0,0751_ske_s02_0_truck_00_truck-0243-sketch-43.png
subject-02,1,752,1.11933994293213,airplane,boat,0,0752_ske_s02_0_boat_00_boat-0178-sketch-30.png
subject-02,1,753,0.613223791122437,keyboard,keyboard,0,0753_ske_s02_0_keyboard_00_keyboard-0029-sketch-34.png
subject-02,1,754,0.623086214065552,airplane,airplane,0,0754_ske_s02_0_airplane_00_airplane-0051-sketch-9.png
subject-02,1,755,0.64477801322937,bottle,bottle,0,0755_ske_s02_0_bottle_00_bottle-0030-sketch-35.png
subject-02,1,756,0.624672889709473,oven,oven,0,0756_ske_s02_0_oven_00_oven-0036-sketch-40.png
subject-02,1,757,0.87049412727356,dog,dog,0,0757_ske_s02_0_dog_00_dog-5028-sketch-8.png
subject-02,1,758,0.726330041885376,elephant,elephant,0,0758_ske_s02_0_elephant_00_elephant-0082-sketch-36.png
subject-02,1,759,0.870043039321899,airplane,airplane,0,0759_ske_s02_0_airplane_00_airplane-0012-sketch-19.png
subject-02,1,760,0.997916221618652,cat,cat,0,0760_ske_s02_0_cat_00_cat-0062-sketch-19.png
subject-02,1,761,0.913731098175049,clock,clock,0,0761_ske_s02_0_clock_00_clock-0027-sketch-32.png
subject-02,1,762,0.675472974777222,clock,clock,0,0762_ske_s02_0_clock_00_clock-0127-sketch-30.png
subject-02,1,763,0.755368947982788,clock,clock,0,0763_ske_s02_0_clock_00_clock-0021-sketch-27.png
subject-02,1,764,0.721094131469727,bicycle,bicycle,0,0764_ske_s02_0_bicycle_00_bicycle-0058-sketch-14.png
subject-02,1,765,0.566942930221558,oven,oven,0,0765_ske_s02_0_oven_00_oven-0046-sketch-5.png
subject-02,1,766,1.06292295455933,bear,bear,0,0766_ske_s02_0_bear_00_bear-0166-sketch-20.png
subject-02,1,767,0.642771005630493,clock,clock,0,0767_ske_s02_0_clock_00_clock-0093-sketch-46.png
subject-02,1,768,0.654510021209717,car,car,0,0768_ske_s02_0_car_00_car-0014-sketch-20.png
subject-02,1,769,0.544135093688965,cat,cat,0,0769_ske_s02_0_cat_00_cat-0015-sketch-21.png
subject-02,1,770,0.782057046890259,bear,bear,0,0770_ske_s02_0_bear_00_bear-0049-sketch-8.png
subject-02,1,771,0.619945049285889,oven,oven,0,0771_ske_s02_0_oven_00_oven-0028-sketch-33.png
subject-02,1,772,0.811734914779663,dog,dog,0,0772_ske_s02_0_dog_00_dog-1759-sketch-38.png
subject-02,1,773,0.551913022994995,clock,clock,0,0773_ske_s02_0_clock_00_clock-0069-sketch-24.png
subject-02,1,774,0.673275947570801,car,car,0,0774_ske_s02_0_car_00_car-0132-sketch-35.png
subject-02,1,775,0.723026990890503,knife,knife,0,0775_ske_s02_0_knife_00_knife-0046-sketch-5.png
subject-02,1,776,0.761468887329102,oven,oven,0,0776_ske_s02_0_oven_00_oven-0034-sketch-39.png
subject-02,1,777,0.61491584777832,bear,bear,0,0777_ske_s02_0_bear_00_bear-0086-sketch-40.png
subject-02,1,778,0.644536972045898,keyboard,keyboard,0,0778_ske_s02_0_keyboard_00_keyboard-0039-sketch-43.png
subject-02,1,779,0.742295980453491,car,car,0,0779_ske_s02_0_car_00_car-0040-sketch-44.png
subject-02,1,780,0.752362966537476,knife,knife,0,0780_ske_s02_0_knife_00_knife-0001-sketch-0.png
subject-02,1,781,0.62406587600708,bicycle,bicycle,0,0781_ske_s02_0_bicycle_00_bicycle-0057-sketch-13.png
subject-02,1,782,0.736125946044922,oven,oven,0,0782_ske_s02_0_oven_00_oven-0051-sketch-9.png
subject-02,1,783,0.609823942184448,keyboard,keyboard,0,0783_ske_s02_0_keyboard_00_keyboard-0074-sketch-29.png
subject-02,1,784,0.691463947296143,car,car,0,0784_ske_s02_0_car_00_car-0009-sketch-16.png
subject-02,1,785,0.479168891906738,clock,clock,0,0785_ske_s02_0_clock_00_clock-0138-sketch-40.png
subject-02,1,786,0.693013906478882,car,car,0,0786_ske_s02_0_car_00_car-0122-sketch-26.png
subject-02,1,787,0.755002021789551,boat,boat,0,0787_ske_s02_0_boat_00_boat-0107-sketch-12.png
subject-02,1,788,0.582641124725342,bicycle,bicycle,0,0788_ske_s02_0_bicycle_00_bicycle-0013-sketch-2.png
subject-02,1,789,0.648636102676392,knife,knife,0,0789_ske_s02_0_knife_00_knife-0011-sketch-18.png
subject-02,1,790,0.560356140136719,bicycle,bicycle,0,0790_ske_s02_0_bicycle_00_bicycle-0075-sketch-3.png
subject-02,1,791,0.626312971115112,bear,bear,0,0791_ske_s02_0_bear_00_bear-0005-sketch-12.png
subject-02,1,792,0.744045972824097,dog,dog,0,0792_ske_s02_0_dog_00_dog-3503-sketch-6.png
subject-02,1,793,0.63766884803772,chair,chair,0,0793_ske_s02_0_chair_00_chair-0122-sketch-27.png
subject-02,1,794,0.793647050857544,bird,bird,0,0794_ske_s02_0_bird_00_bird-1948-sketch-20.png
subject-02,1,795,1.14143586158752,cat,cat,0,0795_ske_s02_0_cat_00_cat-0149-sketch-6.png
subject-02,1,796,0.72918701171875,truck,truck,0,0796_ske_s02_0_truck_00_truck-0384-sketch-32.png
subject-02,1,797,0.529259920120239,bottle,bottle,0,0797_ske_s02_0_bottle_00_bottle-0003-sketch-10.png
subject-02,1,798,1.00096607208252,dog,dog,0,0798_ske_s02_0_dog_00_dog-2323-sketch-41.png
subject-02,1,799,0.668729066848755,truck,truck,0,0799_ske_s02_0_truck_00_truck-0312-sketch-13.png
subject-02,1,800,0.616712093353271,car,car,0,0800_ske_s02_0_car_00_car-0129-sketch-32.png
