subj,session,trial,rt,object_response,category,condition,imagename
subject-01,1,1,0.586625099182129,boat,boat,0,0001_ske_s01_0_boat_00_boat-0068-sketch-23.png
subject-01,1,2,0.706346035003662,dog,dog,0,0002_ske_s01_0_dog_00_dog-4581-sketch-16.png
subject-01,1,3,0.716404914855957,airplane,airplane,0,0003_ske_s01_0_airplane_00_airplane-0018-sketch-24.png
subject-01,1,4,1.1105329990387,bird,cat,0,0004_ske_s01_0_cat_00_cat-0251-sketch-6.png
subject-01,1,5,0.87578010559082,keyboard,keyboard,0,0005_ske_s01_0_keyboard_00_keyboard-0002-sketch-1.png
subject-01,1,6,0.659713983535767,elephant,elephant,0,0006_ske_s01_0_elephant_00_elephant-0021-sketch-27.png
subject-01,1,7,0.771556854248047,oven,oven,0,0007_ske_s01_0_oven_00_oven-0004-sketch-11.png
subject-01,1,8,0.609380960464478,oven,oven,0,0008_ske_s01_0_oven_00_oven-0002-sketch-1.png
subject-01,1,9,0.720973968505859,knife,knife,0,0009_ske_s01_0_knife_00_knife-0044-sketch-48.png
subject-01,1,10,1.30277895927429,keyboard,keyboard,0,0010_ske_s01_0_keyboard_00_keyboard-0052-sketch-0.png
subject-01,1,11,0.46082592010498,oven,oven,0,0011_ske_s01_0_oven_00_oven-0015-sketch-21.png
subject-01,1,12,0.752594947814941,bicycle,bicycle,0,0012_ske_s01_0_bicycle_00_bicycle-0039-sketch-43.png
subject-01,1,13,0.792433977127075,elephant,elephant,0,0013_ske_s01_0_elephant_00_elephant-0065-sketch-20.png
subject-01,1,14,0.764175176620483,airplane,airplane,0,0014_ske_s01_0_airplane_00_airplane-0045-sketch-49.png
subject-01,1,15,0.812115907669067,bird,bird,0,0015_ske_s01_0_bird_00_bird-0749-sketch-4.png
subject-01,1,16,0.821708917617798,airplane,airplane,0,0016_ske_s01_0_airplane_00_airplane-0038-sketch-42.png
subject-01,1,17,0.965553998947144,truck,truck,0,0017_ske_s01_0_truck_00_truck-0029-sketch-34.png
subject-01,1,18,1.02355599403381,oven,oven,0,0018_ske_s01_0_oven_00_oven-0047-sketch-50.png
subject-01,1,19,0.681785106658936,keyboard,keyboard,0,0019_ske_s01_0_keyboard_00_keyboard-0043-sketch-47.png
subject-01,1,20,1.15126895904541,bicycle,bicycle,0,0020_ske_s01_0_bicycle_00_bicycle-0047-sketch-50.png
subject-01,1,21,0.950965166091919,bird,bird,0,0021_ske_s01_0_bird_00_bird-2262-sketch-28.png
subject-01,1,22,0.584779977798462,bear,bear,0,0022_ske_s01_0_bear_00_bear-0030-sketch-35.png
subject-01,1,23,0.860413074493408,bicycle,bicycle,0,0023_ske_s01_0_bicycle_00_bicycle-0040-sketch-44.png
subject-01,1,24,0.668322801589966,boat,boat,0,0024_ske_s01_0_boat_00_boat-0233-sketch-34.png
subject-01,1,25,1.12427806854248,knife,knife,0,0025_ske_s01_0_knife_00_knife-0037-sketch-41.png
subject-01,1,26,0.671607971191406,truck,truck,0,0026_ske_s01_0_truck_00_truck-0112-sketch-17.png
subject-01,1,27,0.665903091430664,bird,bird,0,0027_ske_s01_0_bird_00_bird-0479-sketch-26.png
subject-01,1,28,0.912215948104858,airplane,airplane,0,0028_ske_s01_0_airplane_00_airplane-0012-sketch-19.png
subject-01,1,29,0.827598094940186,chair,chair,0,0029_ske_s01_0_chair_00_chair-0083-sketch-37.png
subject-01,1,30,0.727412939071655,dog,dog,0,0030_ske_s01_0_dog_00_dog-4909-sketch-37.png
subject-01,1,31,0.949219942092896,chair,chair,0,0031_ske_s01_0_chair_00_chair-0135-sketch-39.png
subject-01,1,32,0.64490008354187,clock,clock,0,0032_ske_s01_0_clock_00_clock-0021-sketch-27.png
subject-01,1,33,0.608633041381836,airplane,airplane,0,0033_ske_s01_0_airplane_00_airplane-0024-sketch-3.png
subject-01,1,34,0.69701099395752,bear,bear,0,0034_ske_s01_0_bear_00_bear-0026-sketch-31.png
subject-01,1,35,0.713838815689087,car,car,0,0035_ske_s01_0_car_00_car-0151-sketch-7.png
subject-01,1,36,0.748553991317749,bicycle,bicycle,0,0036_ske_s01_0_bicycle_00_bicycle-0099-sketch-6.png
subject-01,1,37,0.969815969467163,elephant,elephant,0,0037_ske_s01_0_elephant_00_elephant-0101-sketch-8.png
subject-01,1,38,0.533783197402954,boat,boat,0,0038_ske_s01_0_boat_00_boat-0010-sketch-17.png
subject-01,1,39,0.997997999191284,dog,dog,0,0039_ske_s01_0_dog_00_dog-0607-sketch-8.png
subject-01,1,40,0.803601026535034,dog,cat,0,0040_ske_s01_0_cat_00_cat-0233-sketch-35.png
subject-01,1,41,0.77295994758606,dog,dog,0,0041_ske_s01_0_dog_00_dog-2454-sketch-21.png
subject-01,1,42,0.846967935562134,knife,knife,0,0042_ske_s01_0_knife_00_knife-0030-sketch-35.png
subject-01,1,43,0.550930023193359,clock,clock,0,0043_ske_s01_0_clock_00_clock-0137-sketch-4.png
subject-01,1,44,1.00850391387939,car,car,0,0044_ske_s01_0_car_00_car-0030-sketch-35.png
subject-01,1,45,0.696192979812622,bottle,bottle,0,0045_ske_s01_0_bottle_00_bottle-0019-sketch-25.png
subject-01,1,46,0.800153017044067,chair,chair,0,0046_ske_s01_0_chair_00_chair-0014-sketch-20.png
subject-01,1,47,0.71805214881897,clock,clock,0,0047_ske_s01_0_clock_00_clock-0073-sketch-28.png
subject-01,1,48,0.742405891418457,boat,boat,0,0048_ske_s01_0_boat_00_boat-0128-sketch-31.png
subject-01,1,49,0.705662965774536,car,truck,0,0049_ske_s01_0_truck_00_truck-0135-sketch-38.png
subject-01,1,50,0.585545063018799,car,car,0,0050_ske_s01_0_car_00_car-0112-sketch-17.png
subject-01,1,51,0.665243864059448,boat,boat,0,0051_ske_s01_0_boat_00_boat-0197-sketch-48.png
subject-01,1,52,0.707170009613037,knife,knife,0,0052_ske_s01_0_knife_00_knife-0039-sketch-43.png
subject-01,1,53,1.04506802558899,clock,clock,0,0053_ske_s01_0_clock_00_clock-0150-sketch-6.png
subject-01,1,54,0.648714780807495,car,car,0,0054_ske_s01_0_car_00_car-0145-sketch-47.png
subject-01,1,55,0.744996070861816,boat,boat,0,0055_ske_s01_0_boat_00_boat-0034-sketch-39.png
subject-01,1,56,1.07441186904907,truck,car,0,0056_ske_s01_0_car_00_car-0005-sketch-12.png
subject-01,1,57,0.630210876464844,cat,cat,0,0057_ske_s01_0_cat_00_cat-0082-sketch-37.png
subject-01,1,58,0.695940017700195,keyboard,keyboard,0,0058_ske_s01_0_keyboard_00_keyboard-0061-sketch-17.png
subject-01,1,59,0.721916913986206,clock,clock,0,0059_ske_s01_0_clock_00_clock-0074-sketch-29.png
subject-01,1,60,0.817600011825562,chair,chair,0,0060_ske_s01_0_chair_00_chair-0175-sketch-29.png
subject-01,1,61,0.65554404258728,cat,cat,0,0061_ske_s01_0_cat_00_cat-0011-sketch-18.png
subject-01,1,62,1.04989504814148,chair,bicycle,0,0062_ske_s01_0_bicycle_00_bicycle-0034-sketch-39.png
subject-01,1,63,0.683457136154175,bird,bird,0,0063_ske_s01_0_bird_00_bird-1860-sketch-33.png
subject-01,1,64,0.732635021209717,bicycle,bicycle,0,0064_ske_s01_0_bicycle_00_bicycle-0011-sketch-18.png
subject-01,1,65,0.772697925567627,dog,dog,0,0065_ske_s01_0_dog_00_dog-2541-sketch-0.png
subject-01,1,66,0.830219984054565,bicycle,bicycle,0,0066_ske_s01_0_bicycle_00_bicycle-0095-sketch-48.png
subject-01,1,67,1.09027814865112,cat,bird,0,0067_ske_s01_0_bird_00_bird-1702-sketch-29.png
subject-01,1,68,0.702239036560059,bird,bird,0,0068_ske_s01_0_bird_00_bird-0357-sketch-9.png
subject-01,1,69,0.812474012374878,chair,chair,0,0069_ske_s01_0_chair_00_chair-0064-sketch-2.png
subject-01,1,70,0.587124109268188,oven,oven,0,0070_ske_s01_0_oven_00_oven-0023-sketch-29.png
subject-01,1,71,0.519640922546387,oven,oven,0,0071_ske_s01_0_oven_00_oven-0012-sketch-19.png
subject-01,1,72,0.787512063980103,truck,truck,0,0072_ske_s01_0_truck_00_truck-0025-sketch-30.png
subject-01,1,73,0.805156946182251,truck,car,0,0073_ske_s01_0_car_00_car-0017-sketch-23.png
subject-01,1,74,0.884936809539795,elephant,elephant,0,0074_ske_s01_0_elephant_00_elephant-0029-sketch-34.png
subject-01,1,75,0.534799098968506,oven,oven,0,0075_ske_s01_0_oven_00_oven-0044-sketch-48.png
subject-01,1,76,0.638475179672241,dog,dog,0,0076_ske_s01_0_dog_00_dog-1393-sketch-3.png
subject-01,1,77,0.594531059265137,oven,oven,0,0077_ske_s01_0_oven_00_oven-0045-sketch-49.png
subject-01,1,78,0.628002882003784,keyboard,keyboard,0,0078_ske_s01_0_keyboard_00_keyboard-0031-sketch-36.png
subject-01,1,79,1.06797218322754,oven,dog,0,0079_ske_s01_0_dog_00_dog-3153-sketch-11.png
subject-01,1,80,0.804149150848389,bear,bear,0,0080_ske_s01_0_bear_00_bear-0017-sketch-23.png
subject-01,1,81,0.861462831497192,chair,chair,0,0081_ske_s01_0_chair_00_chair-0079-sketch-33.png
subject-01,1,82,0.683453798294067,dog,dog,0,0082_ske_s01_0_dog_00_dog-3303-sketch-0.png
subject-01,1,83,1.23964095115662,cat,cat,0,0083_ske_s01_0_cat_00_cat-0304-sketch-8.png
subject-01,1,84,0.663238048553467,dog,dog,0,0084_ske_s01_0_dog_00_dog-5325-sketch-45.png
subject-01,1,85,1.15110206604004,car,truck,0,0085_ske_s01_0_truck_00_truck-0308-sketch-1.png
subject-01,1,86,0.628837823867798,car,car,0,0086_ske_s01_0_car_00_car-0043-sketch-47.png
subject-01,1,87,1.1009418964386,boat,boat,0,0087_ske_s01_0_boat_00_boat-0130-sketch-33.png
subject-01,1,88,1.14847683906555,elephant,elephant,0,0088_ske_s01_0_elephant_00_elephant-0094-sketch-47.png
subject-01,1,89,0.712134838104248,car,truck,0,0089_ske_s01_0_truck_00_truck-0286-sketch-36.png
subject-01,1,90,0.707819938659668,boat,boat,0,0090_ske_s01_0_boat_00_boat-0016-sketch-22.png
subject-01,1,91,0.513630151748657,boat,boat,0,0091_ske_s01_0_boat_00_boat-0126-sketch-3.png
subject-01,1,92,0.969754934310913,bottle,bottle,0,0092_ske_s01_0_bottle_00_bottle-0296-sketch-46.png
subject-01,1,93,0.799432039260864,elephant,elephant,0,0093_ske_s01_0_elephant_00_elephant-0028-sketch-33.png
subject-01,1,94,1.30164790153503,dog,cat,0,0094_ske_s01_0_cat_00_cat-0134-sketch-38.png
subject-01,1,95,0.803063869476318,dog,dog,0,0095_ske_s01_0_dog_00_dog-0476-sketch-26.png
subject-01,1,96,0.874696969985962,airplane,airplane,0,0096_ske_s01_0_airplane_00_airplane-0031-sketch-36.png
subject-01,1,97,0.836548089981079,bear,bear,0,0097_ske_s01_0_bear_00_bear-0171-sketch-25.png
subject-01,1,98,0.816370010375977,truck,truck,0,0098_ske_s01_0_truck_00_truck-0134-sketch-37.png
subject-01,1,99,0.77238392829895,chair,chair,0,0099_ske_s01_0_chair_00_chair-0066-sketch-21.png
subject-01,1,100,0.772059917449951,truck,truck,0,0100_ske_s01_0_truck_00_truck-0249-sketch-49.png
subject-01,1,101,0.695936918258667,keyboard,keyboard,0,0101_ske_s01_0_keyboard_00_keyboard-0009-sketch-16.png
subject-01,1,102,0.800183057785034,knife,knife,0,0102_ske_s01_0_knife_00_knife-0036-sketch-40.png
subject-01,1,103,0.61554217338562,bottle,bottle,0,0103_ske_s01_0_bottle_00_bottle-0090-sketch-44.png
subject-01,1,104,0.881468057632446,elephant,elephant,0,0104_ske_s01_0_elephant_00_elephant-0090-sketch-43.png
subject-01,1,105,0.704985857009888,car,car,0,0105_ske_s01_0_car_00_car-0009-sketch-16.png
subject-01,1,106,0.785067081451416,truck,truck,0,0106_ske_s01_0_truck_00_truck-0355-sketch-7.png
subject-01,1,107,0.730820894241333,airplane,airplane,0,0107_ske_s01_0_airplane_00_airplane-0014-sketch-20.png
subject-01,1,108,0.576482057571411,clock,clock,0,0108_ske_s01_0_clock_00_clock-0070-sketch-25.png
subject-01,1,109,1.04897499084473,cat,cat,0,0109_ske_s01_0_cat_00_cat-0229-sketch-31.png
subject-01,1,110,0.652246952056885,cat,cat,0,0110_ske_s01_0_cat_00_cat-0104-sketch-10.png
subject-01,1,111,0.661669969558716,car,truck,0,0111_ske_s01_0_truck_00_truck-0275-sketch-26.png
subject-01,1,112,0.717987060546875,cat,cat,0,0112_ske_s01_0_cat_00_cat-0207-sketch-11.png
subject-01,1,113,1.25963401794434,car,truck,0,0113_ske_s01_0_truck_00_truck-0301-sketch-5.png
subject-01,1,114,0.722127914428711,truck,car,0,0114_ske_s01_0_car_00_car-0002-sketch-1.png
subject-01,1,115,0.739329099655151,bear,bear,0,0115_ske_s01_0_bear_00_bear-0036-sketch-40.png
subject-01,1,116,0.615094900131226,keyboard,keyboard,0,0116_ske_s01_0_keyboard_00_keyboard-0034-sketch-39.png
subject-01,1,117,0.758885860443115,bear,dog,0,0117_ske_s01_0_dog_00_dog-3915-sketch-0.png
subject-01,1,118,0.727909088134766,chair,chair,0,0118_ske_s01_0_chair_00_chair-0055-sketch-11.png
subject-01,1,119,0.715008020401001,bear,bear,0,0119_ske_s01_0_bear_00_bear-0068-sketch-24.png
subject-01,1,120,0.546338796615601,clock,clock,0,0120_ske_s01_0_clock_00_clock-0007-sketch-14.png
subject-01,1,121,1.48616003990173,dog,cat,0,0121_ske_s01_0_cat_00_cat-0245-sketch-46.png
subject-01,1,122,0.735937833786011,knife,knife,0,0122_ske_s01_0_knife_00_knife-0046-sketch-5.png
subject-01,1,123,0.471810102462769,oven,oven,0,0123_ske_s01_0_oven_00_oven-0003-sketch-10.png
subject-01,1,124,0.959551095962524,bicycle,bicycle,0,0124_ske_s01_0_bicycle_00_bicycle-0083-sketch-37.png
subject-01,1,125,0.453179121017456,oven,oven,0,0125_ske_s01_0_oven_00_oven-0041-sketch-45.png
subject-01,1,126,0.697355031967163,boat,boat,0,0126_ske_s01_0_boat_00_boat-0166-sketch-2.png
subject-01,1,127,0.543030977249146,bottle,bottle,0,0127_ske_s01_0_bottle_00_bottle-0313-sketch-15.png
subject-01,1,128,0.606967926025391,bear,bear,0,0128_ske_s01_0_bear_00_bear-0033-sketch-38.png
subject-01,1,129,0.898734092712402,dog,dog,0,0129_ske_s01_0_dog_00_dog-1797-sketch-26.png
subject-01,1,130,0.524444818496704,boat,boat,0,0130_ske_s01_0_boat_00_boat-0194-sketch-45.png
subject-01,1,131,0.918248891830444,car,truck,0,0131_ske_s01_0_truck_00_truck-0131-sketch-34.png
subject-01,1,132,0.686245918273926,cat,cat,0,0132_ske_s01_0_cat_00_cat-0067-sketch-23.png
subject-01,1,133,0.561832189559937,oven,oven,0,0133_ske_s01_0_oven_00_oven-0030-sketch-35.png
subject-01,1,134,0.68169903755188,chair,chair,0,0134_ske_s01_0_chair_00_chair-0131-sketch-35.png
subject-01,1,135,0.597630977630615,car,car,0,0135_ske_s01_0_car_00_car-0096-sketch-49.png
subject-01,1,136,0.473765134811401,clock,clock,0,0136_ske_s01_0_clock_00_clock-0005-sketch-12.png
subject-01,1,137,0.641124963760376,car,truck,0,0137_ske_s01_0_truck_00_truck-0232-sketch-33.png
subject-01,1,138,0.97114086151123,knife,knife,0,0138_ske_s01_0_knife_00_knife-0022-sketch-28.png
subject-01,1,139,0.566915035247803,clock,clock,0,0139_ske_s01_0_clock_00_clock-0144-sketch-46.png
subject-01,1,140,0.935997009277344,airplane,airplane,0,0140_ske_s01_0_airplane_00_airplane-0006-sketch-13.png
subject-01,1,141,0.758734941482544,boat,boat,0,0141_ske_s01_0_boat_00_boat-0123-sketch-27.png
subject-01,1,142,0.776585102081299,boat,boat,0,0142_ske_s01_0_boat_00_boat-0228-sketch-3.png
subject-01,1,143,1.0678699016571,truck,truck,0,0143_ske_s01_0_truck_00_truck-0076-sketch-30.png
subject-01,1,144,0.693773984909058,bear,bear,0,0144_ske_s01_0_bear_00_bear-0166-sketch-20.png
subject-01,1,145,0.539695978164673,boat,car,0,0145_ske_s01_0_car_00_car-0079-sketch-33.png
subject-01,1,146,0.549360990524292,knife,knife,0,0146_ske_s01_0_knife_00_knife-0023-sketch-29.png
subject-01,1,147,0.597441911697388,bottle,bottle,0,0147_ske_s01_0_bottle_00_bottle-0130-sketch-34.png
subject-01,1,148,0.937281131744385,truck,truck,0,0148_ske_s01_0_truck_00_truck-0307-sketch-0.png
subject-01,1,149,0.765238046646118,dog,dog,0,0149_ske_s01_0_dog_00_dog-3000-sketch-11.png
subject-01,1,150,0.63516902923584,truck,truck,0,0150_ske_s01_0_truck_00_truck-0050-sketch-8.png
subject-01,1,151,0.762845039367676,car,car,0,0151_ske_s01_0_car_00_car-0014-sketch-20.png
subject-01,1,152,0.888242959976196,elephant,elephant,0,0152_ske_s01_0_elephant_00_elephant-0022-sketch-28.png
subject-01,1,153,0.67223596572876,bird,bird,0,0153_ske_s01_0_bird_00_bird-0325-sketch-25.png
subject-01,1,154,0.588393926620483,keyboard,keyboard,0,0154_ske_s01_0_keyboard_00_keyboard-0084-sketch-38.png
subject-01,1,155,0.737981081008911,dog,dog,0,0155_ske_s01_0_dog_00_dog-2948-sketch-10.png
subject-01,1,156,0.707681894302368,bird,bird,0,0156_ske_s01_0_bird_00_bird-0491-sketch-37.png
subject-01,1,157,0.561465978622437,cat,cat,0,0157_ske_s01_0_cat_00_cat-0027-sketch-32.png
subject-01,1,158,0.697250127792358,knife,knife,0,0158_ske_s01_0_knife_00_knife-0040-sketch-44.png
subject-01,1,159,0.84700608253479,bear,bear,0,0159_ske_s01_0_bear_00_bear-0048-sketch-7.png
subject-01,1,160,0.755038976669312,bottle,bottle,0,0160_ske_s01_0_bottle_00_bottle-0039-sketch-43.png
subject-01,1,161,0.633195877075195,bear,bear,0,0161_ske_s01_0_bear_00_bear-0199-sketch-50.png
subject-01,1,162,0.516207933425903,boat,boat,0,0162_ske_s01_0_boat_00_boat-0253-sketch-7.png
subject-01,1,163,0.566762924194336,oven,oven,0,0163_ske_s01_0_oven_00_oven-0043-sketch-47.png
subject-01,1,164,0.489934921264648,clock,clock,0,0164_ske_s01_0_clock_00_clock-0015-sketch-21.png
subject-01,1,165,0.820435047149658,airplane,airplane,0,0165_ske_s01_0_airplane_00_airplane-0001-sketch-0.png
subject-01,1,166,0.6579430103302,airplane,airplane,0,0166_ske_s01_0_airplane_00_airplane-0011-sketch-18.png
subject-01,1,167,0.753512144088745,keyboard,keyboard,0,0167_ske_s01_0_keyboard_00_keyboard-0005-sketch-12.png
subject-01,1,168,0.599874019622803,bear,bear,0,0168_ske_s01_0_bear_00_bear-0188-sketch-40.png
subject-01,1,169,0.864986896514893,elephant,elephant,0,0169_ske_s01_0_elephant_00_elephant-0058-sketch-14.png
subject-01,1,170,0.522788047790527,oven,oven,0,0170_ske_s01_0_oven_00_oven-0040-sketch-44.png
subject-01,1,171,0.524734973907471,boat,boat,0,0171_ske_s01_0_boat_00_boat-0212-sketch-15.png
subject-01,1,172,0.620408058166504,bottle,bottle,0,0172_ske_s01_0_bottle_00_bottle-0002-sketch-1.png
subject-01,1,173,0.732142925262451,bottle,bottle,0,0173_ske_s01_0_bottle_00_bottle-0268-sketch-20.png
subject-01,1,174,0.562196016311646,boat,boat,0,0174_ske_s01_0_boat_00_boat-0237-sketch-38.png
subject-01,1,175,0.969338893890381,keyboard,keyboard,0,0175_ske_s01_0_keyboard_00_keyboard-0037-sketch-41.png
subject-01,1,176,0.745963096618652,bear,bear,0,0176_ske_s01_0_bear_00_bear-0037-sketch-41.png
subject-01,1,177,0.951594829559326,knife,knife,0,0177_ske_s01_0_knife_00_knife-0049-sketch-7.png
subject-01,1,178,0.516035795211792,clock,clock,0,0178_ske_s01_0_clock_00_clock-0071-sketch-26.png
subject-01,1,179,1.16533303260803,car,car,0,0179_ske_s01_0_car_00_car-0143-sketch-45.png
subject-01,1,180,0.713106155395508,dog,dog,0,0180_ske_s01_0_dog_00_dog-3695-sketch-40.png
subject-01,1,181,0.63700795173645,bear,bear,0,0181_ske_s01_0_bear_00_bear-0187-sketch-4.png
subject-01,1,182,0.56914210319519,oven,oven,0,0182_ske_s01_0_oven_00_oven-0019-sketch-25.png
subject-01,1,183,0.775091886520386,dog,dog,0,0183_ske_s01_0_dog_00_dog-1617-sketch-48.png
subject-01,1,184,0.540258884429932,bear,bear,0,0184_ske_s01_0_bear_00_bear-0053-sketch-10.png
subject-01,1,185,0.776123046875,boat,truck,0,0185_ske_s01_0_truck_00_truck-0161-sketch-15.png
subject-01,1,186,0.927860975265503,elephant,elephant,0,0186_ske_s01_0_elephant_00_elephant-0047-sketch-50.png
subject-01,1,187,0.663780927658081,dog,dog,0,0187_ske_s01_0_dog_00_dog-0630-sketch-28.png
subject-01,1,188,0.812934160232544,chair,chair,0,0188_ske_s01_0_chair_00_chair-0118-sketch-23.png
subject-01,1,189,0.893368005752563,cat,cat,0,0189_ske_s01_0_cat_00_cat-0295-sketch-45.png
subject-01,1,190,1.04304099082947,car,truck,0,0190_ske_s01_0_truck_00_truck-0213-sketch-16.png
subject-01,1,191,0.677043914794922,bicycle,bicycle,0,0191_ske_s01_0_bicycle_00_bicycle-0046-sketch-5.png
subject-01,1,192,0.81307315826416,truck,truck,0,0192_ske_s01_0_truck_00_truck-0167-sketch-20.png
subject-01,1,193,0.50855016708374,boat,boat,0,0193_ske_s01_0_boat_00_boat-0110-sketch-15.png
subject-01,1,194,1.01850390434265,chair,chair,0,0194_ske_s01_0_chair_00_chair-0153-sketch-0.png
subject-01,1,195,0.67682409286499,airplane,airplane,0,0195_ske_s01_0_airplane_00_airplane-0025-sketch-30.png
subject-01,1,196,1.01440906524658,elephant,elephant,0,0196_ske_s01_0_elephant_00_elephant-0046-sketch-5.png
subject-01,1,197,0.577887058258057,elephant,elephant,0,0197_ske_s01_0_elephant_00_elephant-0019-sketch-25.png
subject-01,1,198,0.609929084777832,knife,knife,0,0198_ske_s01_0_knife_00_knife-0034-sketch-39.png
subject-01,1,199,0.722234010696411,keyboard,keyboard,0,0199_ske_s01_0_keyboard_00_keyboard-0074-sketch-29.png
subject-01,1,200,0.801542043685913,truck,truck,0,0200_ske_s01_0_truck_00_truck-0336-sketch-35.png
subject-01,1,201,0.701272964477539,cat,cat,0,0201_ske_s01_0_cat_00_cat-0149-sketch-6.png
subject-01,1,202,0.772716999053955,bicycle,bicycle,0,0202_ske_s01_0_bicycle_00_bicycle-0075-sketch-3.png
subject-01,1,203,0.704854011535645,cat,cat,0,0203_ske_s01_0_cat_00_cat-0289-sketch-4.png
subject-01,1,204,0.637063980102539,bird,bird,0,0204_ske_s01_0_bird_00_bird-0274-sketch-25.png
subject-01,1,205,0.724498987197876,bird,bird,0,0205_ske_s01_0_bird_00_bird-1033-sketch-20.png
subject-01,1,206,0.67824912071228,bicycle,bicycle,0,0206_ske_s01_0_bicycle_00_bicycle-0098-sketch-50.png
subject-01,1,207,0.704159021377563,boat,boat,0,0207_ske_s01_0_boat_00_boat-0064-sketch-2.png
subject-01,1,208,0.689768075942993,knife,knife,0,0208_ske_s01_0_knife_00_knife-0005-sketch-12.png
subject-01,1,209,0.761343955993652,clock,clock,0,0209_ske_s01_0_clock_00_clock-0112-sketch-17.png
subject-01,1,210,0.645489931106567,bottle,bottle,0,0210_ske_s01_0_bottle_00_bottle-0330-sketch-30.png
subject-01,1,211,0.561095952987671,cat,cat,0,0211_ske_s01_0_cat_00_cat-0150-sketch-7.png
subject-01,1,212,0.665058135986328,bicycle,bicycle,0,0212_ske_s01_0_bicycle_00_bicycle-0084-sketch-38.png
subject-01,1,213,0.613115787506104,clock,clock,0,0213_ske_s01_0_clock_00_clock-0077-sketch-31.png
subject-01,1,214,0.607073068618774,cat,cat,0,0214_ske_s01_0_cat_00_cat-0140-sketch-43.png
subject-01,1,215,0.600868940353394,oven,oven,0,0215_ske_s01_0_oven_00_oven-0024-sketch-3.png
subject-01,1,216,0.758320093154907,bird,bird,0,0216_ske_s01_0_bird_00_bird-0415-sketch-14.png
subject-01,1,217,0.784148931503296,knife,knife,0,0217_ske_s01_0_knife_00_knife-0026-sketch-31.png
subject-01,1,218,0.785859107971191,car,car,0,0218_ske_s01_0_car_00_car-0116-sketch-20.png
subject-01,1,219,0.731951951980591,cat,cat,0,0219_ske_s01_0_cat_00_cat-0085-sketch-4.png
subject-01,1,220,0.577517032623291,oven,oven,0,0220_ske_s01_0_oven_00_oven-0031-sketch-36.png
subject-01,1,221,0.719468832015991,knife,knife,0,0221_ske_s01_0_knife_00_knife-0002-sketch-1.png
subject-01,1,222,1.1212899684906,airplane,airplane,0,0222_ske_s01_0_airplane_00_airplane-0027-sketch-32.png
subject-01,1,223,0.535245895385742,oven,oven,0,0223_ske_s01_0_oven_00_oven-0011-sketch-18.png
subject-01,1,224,0.810935974121094,dog,dog,0,0224_ske_s01_0_dog_00_dog-1035-sketch-27.png
subject-01,1,225,0.632824897766113,clock,clock,0,0225_ske_s01_0_clock_00_clock-0085-sketch-39.png
subject-01,1,226,0.596480131149292,clock,clock,0,0226_ske_s01_0_clock_00_clock-0028-sketch-33.png
subject-01,1,227,0.862478971481323,bear,bear,0,0227_ske_s01_0_bear_00_bear-0148-sketch-50.png
subject-01,1,228,0.928077936172485,chair,chair,0,0228_ske_s01_0_chair_00_chair-0006-sketch-13.png
subject-01,1,229,0.655947923660278,knife,knife,0,0229_ske_s01_0_knife_00_knife-0024-sketch-3.png
subject-01,1,230,0.703946113586426,bicycle,bicycle,0,0230_ske_s01_0_bicycle_00_bicycle-0037-sketch-41.png
subject-01,1,231,0.611770868301392,bottle,bottle,0,0231_ske_s01_0_bottle_00_bottle-0280-sketch-31.png
subject-01,1,232,0.653510808944702,boat,boat,0,0232_ske_s01_0_boat_00_boat-0146-sketch-48.png
subject-01,1,233,0.553234100341797,chair,chair,0,0233_ske_s01_0_chair_00_chair-0067-sketch-22.png
subject-01,1,234,0.587260007858276,keyboard,keyboard,0,0234_ske_s01_0_keyboard_00_keyboard-0045-sketch-49.png
subject-01,1,235,0.860872983932495,bird,bird,0,0235_ske_s01_0_bird_00_bird-0474-sketch-21.png
subject-01,1,236,0.730893135070801,bear,bear,0,0236_ske_s01_0_bear_00_bear-0161-sketch-16.png
subject-01,1,237,0.560981035232544,bottle,bottle,0,0237_ske_s01_0_bottle_00_bottle-0031-sketch-36.png
subject-01,1,238,0.616359949111938,bottle,bottle,0,0238_ske_s01_0_bottle_00_bottle-0050-sketch-9.png
subject-01,1,239,0.766031980514526,keyboard,keyboard,0,0239_ske_s01_0_keyboard_00_keyboard-0087-sketch-40.png
subject-01,1,240,0.760416984558105,car,car,0,0240_ske_s01_0_car_00_car-0124-sketch-28.png
subject-01,1,241,0.667620182037354,chair,chair,0,0241_ske_s01_0_chair_00_chair-0178-sketch-31.png
subject-01,1,242,0.723658084869385,keyboard,keyboard,0,0242_ske_s01_0_keyboard_00_keyboard-0068-sketch-23.png
subject-01,1,243,0.561846971511841,clock,clock,0,0243_ske_s01_0_clock_00_clock-0049-sketch-7.png
subject-01,1,244,0.587077140808105,cat,cat,0,0244_ske_s01_0_cat_00_cat-0175-sketch-29.png
subject-01,1,245,0.671762943267822,car,car,0,0245_ske_s01_0_car_00_car-0136-sketch-39.png
subject-01,1,246,0.572424173355103,bottle,bottle,0,0246_ske_s01_0_bottle_00_bottle-0038-sketch-42.png
subject-01,1,247,0.762511014938354,knife,knife,0,0247_ske_s01_0_knife_00_knife-0001-sketch-0.png
subject-01,1,248,0.678599119186401,truck,truck,0,0248_ske_s01_0_truck_00_truck-0384-sketch-32.png
subject-01,1,249,0.774203062057495,chair,chair,0,0249_ske_s01_0_chair_00_chair-0060-sketch-16.png
subject-01,1,250,0.494035959243774,clock,clock,0,0250_ske_s01_0_clock_00_clock-0138-sketch-40.png
subject-01,1,251,0.690576791763306,elephant,elephant,0,0251_ske_s01_0_elephant_00_elephant-0079-sketch-33.png
subject-01,1,252,0.747665882110596,keyboard,keyboard,0,0252_ske_s01_0_keyboard_00_keyboard-0029-sketch-34.png
subject-01,1,253,0.811383962631226,car,car,0,0253_ske_s01_0_car_00_car-0114-sketch-19.png
subject-01,1,254,0.71140193939209,cat,cat,0,0254_ske_s01_0_cat_00_cat-0021-sketch-27.png
subject-01,1,255,0.5728440284729,bicycle,bicycle,0,0255_ske_s01_0_bicycle_00_bicycle-0078-sketch-32.png
subject-01,1,256,0.895092964172363,bird,bird,0,0256_ske_s01_0_bird_00_bird-1081-sketch-18.png
subject-01,1,257,0.468333005905151,airplane,airplane,0,0257_ske_s01_0_airplane_00_airplane-0042-sketch-46.png
subject-01,1,258,0.462188959121704,boat,boat,0,0258_ske_s01_0_boat_00_boat-0065-sketch-20.png
subject-01,1,259,0.557843923568726,car,car,0,0259_ske_s01_0_car_00_car-0045-sketch-49.png
subject-01,1,260,0.63775897026062,keyboard,keyboard,0,0260_ske_s01_0_keyboard_00_keyboard-0053-sketch-1.png
subject-01,1,261,0.631432056427002,cat,cat,0,0261_ske_s01_0_cat_00_cat-0009-sketch-16.png
subject-01,1,262,0.991528034210205,truck,truck,0,0262_ske_s01_0_truck_00_truck-0012-sketch-19.png
subject-01,1,263,0.705197811126709,car,car,0,0263_ske_s01_0_car_00_car-0004-sketch-11.png
subject-01,1,264,0.806987047195435,dog,dog,0,0264_ske_s01_0_dog_00_dog-4475-sketch-11.png
subject-01,1,265,0.558672904968262,keyboard,keyboard,0,0265_ske_s01_0_keyboard_00_keyboard-0086-sketch-4.png
subject-01,1,266,0.614614009857178,bottle,bottle,0,0266_ske_s01_0_bottle_00_bottle-0030-sketch-35.png
subject-01,1,267,0.624200820922852,bicycle,bicycle,0,0267_ske_s01_0_bicycle_00_bicycle-0094-sketch-47.png
subject-01,1,268,0.601959943771362,bicycle,bicycle,0,0268_ske_s01_0_bicycle_00_bicycle-0023-sketch-29.png
subject-01,1,269,0.612167835235596,clock,clock,0,0269_ske_s01_0_clock_00_clock-0069-sketch-24.png
subject-01,1,270,0.949531078338623,chair,chair,0,0270_ske_s01_0_chair_00_chair-0017-sketch-23.png
subject-01,1,271,0.763837099075317,chair,chair,0,0271_ske_s01_0_chair_00_chair-0166-sketch-20.png
subject-01,1,272,1.34354901313782,oven,bottle,0,0272_ske_s01_0_bottle_00_bottle-0145-sketch-48.png
subject-01,1,273,0.595002889633179,keyboard,keyboard,0,0273_ske_s01_0_keyboard_00_keyboard-0063-sketch-19.png
subject-01,1,274,0.597142934799194,chair,chair,0,0274_ske_s01_0_chair_00_chair-0124-sketch-29.png
subject-01,1,275,0.440867900848389,oven,oven,0,0275_ske_s01_0_oven_00_oven-0016-sketch-22.png
subject-01,1,276,0.896209955215454,knife,knife,0,0276_ske_s01_0_knife_00_knife-0007-sketch-14.png
subject-01,1,277,0.898590087890625,elephant,elephant,0,0277_ske_s01_0_elephant_00_elephant-0016-sketch-22.png
subject-01,1,278,0.508456230163574,chair,chair,0,0278_ske_s01_0_chair_00_chair-0130-sketch-34.png
subject-01,1,279,0.494266986846924,chair,chair,0,0279_ske_s01_0_chair_00_chair-0197-sketch-49.png
subject-01,1,280,1.23848009109497,airplane,boat,0,0280_ske_s01_0_boat_00_boat-0165-sketch-19.png
subject-01,1,281,0.599897861480713,airplane,airplane,0,0281_ske_s01_0_airplane_00_airplane-0032-sketch-37.png
subject-01,1,282,0.765789985656738,truck,car,0,0282_ske_s01_0_car_00_car-0050-sketch-8.png
subject-01,1,283,0.671262979507446,bear,bear,0,0283_ske_s01_0_bear_00_bear-0027-sketch-32.png
subject-01,1,284,0.595060110092163,knife,knife,0,0284_ske_s01_0_knife_00_knife-0016-sketch-22.png
subject-01,1,285,0.707046031951904,clock,clock,0,0285_ske_s01_0_clock_00_clock-0136-sketch-39.png
subject-01,1,286,0.598758935928345,boat,boat,0,0286_ske_s01_0_boat_00_boat-0125-sketch-29.png
subject-01,1,287,0.757111072540283,cat,cat,0,0287_ske_s01_0_cat_00_cat-0160-sketch-15.png
subject-01,1,288,0.610561847686768,bicycle,bicycle,0,0288_ske_s01_0_bicycle_00_bicycle-0057-sketch-13.png
subject-01,1,289,0.706660032272339,oven,oven,0,0289_ske_s01_0_oven_00_oven-0051-sketch-9.png
subject-01,1,290,0.582134008407593,airplane,airplane,0,0290_ske_s01_0_airplane_00_airplane-0013-sketch-2.png
subject-01,1,291,0.559908866882324,dog,dog,0,0291_ske_s01_0_dog_00_dog-0243-sketch-44.png
subject-01,1,292,0.623669862747192,truck,truck,0,0292_ske_s01_0_truck_00_truck-0088-sketch-41.png
subject-01,1,293,0.477550029754639,boat,boat,0,0293_ske_s01_0_boat_00_boat-0051-sketch-9.png
subject-01,1,294,0.743551015853882,elephant,elephant,0,0294_ske_s01_0_elephant_00_elephant-0006-sketch-13.png
subject-01,1,295,1.35564398765564,bear,bear,0,0295_ske_s01_0_bear_00_bear-0117-sketch-22.png
subject-01,1,296,0.95099401473999,car,car,0,0296_ske_s01_0_car_00_car-0138-sketch-40.png
subject-01,1,297,0.418527841567993,oven,oven,0,0297_ske_s01_0_oven_00_oven-0009-sketch-16.png
subject-01,1,298,0.670531988143921,bicycle,bicycle,0,0298_ske_s01_0_bicycle_00_bicycle-0054-sketch-10.png
subject-01,1,299,0.610277891159058,chair,chair,0,0299_ske_s01_0_chair_00_chair-0076-sketch-30.png
subject-01,1,300,0.596240043640137,airplane,airplane,0,0300_ske_s01_0_airplane_00_airplane-0040-sketch-44.png
subject-01,1,301,0.888118028640747,elephant,elephant,0,0301_ske_s01_0_elephant_00_elephant-0075-sketch-3.png
subject-01,1,302,0.474125146865845,clock,clock,0,0302_ske_s01_0_clock_00_clock-0095-sketch-48.png
subject-01,1,303,0.655656099319458,cat,cat,0,0303_ske_s01_0_cat_00_cat-0052-sketch-1.png
subject-01,1,304,0.851896047592163,truck,truck,0,0304_ske_s01_0_truck_00_truck-0348-sketch-46.png
subject-01,1,305,1.25320601463318,car,car,0,0305_ske_s01_0_car_00_car-0025-sketch-30.png
subject-01,1,306,0.470949172973633,cat,cat,0,0306_ske_s01_0_cat_00_cat-0042-sketch-46.png
subject-01,1,307,0.542785882949829,chair,chair,0,0307_ske_s01_0_chair_00_chair-0145-sketch-48.png
subject-01,1,308,0.553169012069702,oven,oven,0,0308_ske_s01_0_oven_00_oven-0007-sketch-14.png
subject-01,1,309,0.562596082687378,bicycle,bicycle,0,0309_ske_s01_0_bicycle_00_bicycle-0080-sketch-34.png
subject-01,1,310,0.651049852371216,bicycle,bicycle,0,0310_ske_s01_0_bicycle_00_bicycle-0022-sketch-28.png
subject-01,1,311,0.66624903678894,keyboard,keyboard,0,0311_ske_s01_0_keyboard_00_keyboard-0076-sketch-30.png
subject-01,1,312,0.745898008346558,elephant,elephant,0,0312_ske_s01_0_elephant_00_elephant-0066-sketch-21.png
subject-01,1,313,0.685775995254517,airplane,airplane,0,0313_ske_s01_0_airplane_00_airplane-0046-sketch-5.png
subject-01,1,314,0.521856069564819,oven,oven,0,0314_ske_s01_0_oven_00_oven-0022-sketch-28.png
subject-01,1,315,0.743536949157715,car,car,0,0315_ske_s01_0_car_00_car-0092-sketch-45.png
subject-01,1,316,1.04109311103821,car,truck,0,0316_ske_s01_0_truck_00_truck-0244-sketch-44.png
subject-01,1,317,0.59713888168335,bicycle,bicycle,0,0317_ske_s01_0_bicycle_00_bicycle-0066-sketch-21.png
subject-01,1,318,0.964323997497559,knife,knife,0,0318_ske_s01_0_knife_00_knife-0014-sketch-20.png
subject-01,1,319,0.560904979705811,cat,cat,0,0319_ske_s01_0_cat_00_cat-0124-sketch-29.png
subject-01,1,320,0.702559947967529,knife,knife,0,0320_ske_s01_0_knife_00_knife-0004-sketch-11.png
subject-01,1,321,0.524118900299072,boat,boat,0,0321_ske_s01_0_boat_00_boat-0152-sketch-8.png
subject-01,1,322,0.674598932266235,elephant,elephant,0,0322_ske_s01_0_elephant_00_elephant-0044-sketch-48.png
subject-01,1,323,0.824049949645996,keyboard,keyboard,0,0323_ske_s01_0_keyboard_00_keyboard-0062-sketch-18.png
subject-01,1,324,0.637678861618042,bear,bear,0,0324_ske_s01_0_bear_00_bear-0022-sketch-28.png
subject-01,1,325,0.591546058654785,knife,knife,0,0325_ske_s01_0_knife_00_knife-0020-sketch-26.png
subject-01,1,326,0.945398092269897,boat,boat,0,0326_ske_s01_0_boat_00_boat-0108-sketch-13.png
subject-01,1,327,0.571069002151489,bottle,bottle,0,0327_ske_s01_0_bottle_00_bottle-0126-sketch-30.png
subject-01,1,328,1.35490798950195,bottle,bottle,0,0328_ske_s01_0_bottle_00_bottle-0292-sketch-42.png
subject-01,1,329,0.698678970336914,dog,dog,0,0329_ske_s01_0_dog_00_dog-3251-sketch-9.png
subject-01,1,330,0.56865382194519,airplane,airplane,0,0330_ske_s01_0_airplane_00_airplane-0034-sketch-39.png
subject-01,1,331,0.662420988082886,dog,dog,0,0331_ske_s01_0_dog_00_dog-2150-sketch-22.png
subject-01,1,332,0.774157047271729,knife,knife,0,0332_ske_s01_0_knife_00_knife-0011-sketch-18.png
subject-01,1,333,0.673789978027344,chair,chair,0,0333_ske_s01_0_chair_00_chair-0094-sketch-47.png
subject-01,1,334,0.636365175247192,dog,dog,0,0334_ske_s01_0_dog_00_dog-2506-sketch-23.png
subject-01,1,335,0.543596982955933,bottle,bottle,0,0335_ske_s01_0_bottle_00_bottle-0162-sketch-17.png
subject-01,1,336,1.00789499282837,bottle,bottle,0,0336_ske_s01_0_bottle_00_bottle-0237-sketch-39.png
subject-01,1,337,0.461071014404297,oven,oven,0,0337_ske_s01_0_oven_00_oven-0048-sketch-6.png
subject-01,1,338,0.713150024414062,bear,bear,0,0338_ske_s01_0_bear_00_bear-0039-sketch-43.png
subject-01,1,339,0.707166910171509,keyboard,keyboard,0,0339_ske_s01_0_keyboard_00_keyboard-0010-sketch-17.png
subject-01,1,340,0.770816087722778,bear,bear,0,0340_ske_s01_0_bear_00_bear-0110-sketch-16.png
subject-01,1,341,0.842657089233398,airplane,airplane,0,0341_ske_s01_0_airplane_00_airplane-0021-sketch-27.png
subject-01,1,342,0.624490976333618,bear,bear,0,0342_ske_s01_0_bear_00_bear-0136-sketch-4.png
subject-01,1,343,0.720486879348755,knife,knife,0,0343_ske_s01_0_knife_00_knife-0018-sketch-24.png
subject-01,1,344,0.814162015914917,boat,bottle,0,0344_ske_s01_0_bottle_00_bottle-0294-sketch-44.png
subject-01,1,345,0.520071029663086,knife,knife,0,0345_ske_s01_0_knife_00_knife-0008-sketch-15.png
subject-01,1,346,0.597550868988037,airplane,airplane,0,0346_ske_s01_0_airplane_00_airplane-0041-sketch-45.png
subject-01,1,347,0.804003000259399,knife,knife,0,0347_ske_s01_0_knife_00_knife-0042-sketch-46.png
subject-01,1,348,0.671437978744507,elephant,elephant,0,0348_ske_s01_0_elephant_00_elephant-0071-sketch-26.png
subject-01,1,349,0.68087100982666,boat,boat,0,0349_ske_s01_0_boat_00_boat-0079-sketch-33.png
subject-01,1,350,0.728656053543091,bicycle,bicycle,0,0350_ske_s01_0_bicycle_00_bicycle-0025-sketch-30.png
subject-01,1,351,0.574661016464233,oven,oven,0,0351_ske_s01_0_oven_00_oven-0005-sketch-12.png
subject-01,1,352,1.06100606918335,bird,bird,0,0352_ske_s01_0_bird_00_bird-2312-sketch-27.png
subject-01,1,353,0.616495132446289,keyboard,keyboard,0,0353_ske_s01_0_keyboard_00_keyboard-0038-sketch-42.png
subject-01,1,354,0.712210178375244,bicycle,bicycle,0,0354_ske_s01_0_bicycle_00_bicycle-0087-sketch-40.png
subject-01,1,355,0.518232107162476,oven,oven,0,0355_ske_s01_0_oven_00_oven-0042-sketch-46.png
subject-01,1,356,0.613637924194336,bicycle,bicycle,0,0356_ske_s01_0_bicycle_00_bicycle-0070-sketch-25.png
subject-01,1,357,0.653623819351196,knife,knife,0,0357_ske_s01_0_knife_00_knife-0015-sketch-21.png
subject-01,1,358,0.717187881469727,chair,chair,0,0358_ske_s01_0_chair_00_chair-0071-sketch-26.png
subject-01,1,359,0.608963012695312,chair,chair,0,0359_ske_s01_0_chair_00_chair-0051-sketch-9.png
subject-01,1,360,0.876918792724609,elephant,elephant,0,0360_ske_s01_0_elephant_00_elephant-0030-sketch-35.png
subject-01,1,361,0.626971960067749,bird,bird,0,0361_ske_s01_0_bird_00_bird-0954-sketch-40.png
subject-01,1,362,0.636634111404419,elephant,elephant,0,0362_ske_s01_0_elephant_00_elephant-0025-sketch-30.png
subject-01,1,363,0.496618986129761,clock,clock,0,0363_ske_s01_0_clock_00_clock-0093-sketch-46.png
subject-01,1,364,0.568190097808838,knife,knife,0,0364_ske_s01_0_knife_00_knife-0031-sketch-36.png
subject-01,1,365,0.6162109375,bottle,bottle,0,0365_ske_s01_0_bottle_00_bottle-0107-sketch-13.png
subject-01,1,366,1.42426300048828,bottle,bottle,0,0366_ske_s01_0_bottle_00_bottle-0086-sketch-40.png
subject-01,1,367,0.636091947555542,dog,dog,0,0367_ske_s01_0_dog_00_dog-0011-sketch-18.png
subject-01,1,368,0.473439931869507,boat,boat,0,0368_ske_s01_0_boat_00_boat-0088-sketch-41.png
subject-01,1,369,0.717737913131714,clock,clock,0,0369_ske_s01_0_clock_00_clock-0017-sketch-23.png
subject-01,1,370,0.631197929382324,bicycle,bicycle,0,0370_ske_s01_0_bicycle_00_bicycle-0068-sketch-23.png
subject-01,1,371,0.726711988449097,chair,chair,0,0371_ske_s01_0_chair_00_chair-0005-sketch-12.png
subject-01,1,372,0.564873933792114,bear,bear,0,0372_ske_s01_0_bear_00_bear-0073-sketch-29.png
subject-01,1,373,0.862617969512939,bicycle,bicycle,0,0373_ske_s01_0_bicycle_00_bicycle-0026-sketch-31.png
subject-01,1,374,0.480342149734497,bicycle,bicycle,0,0374_ske_s01_0_bicycle_00_bicycle-0044-sketch-48.png
subject-01,1,375,0.474072933197021,oven,oven,0,0375_ske_s01_0_oven_00_oven-0028-sketch-33.png
subject-01,1,376,0.811922073364258,knife,knife,0,0376_ske_s01_0_knife_00_knife-0050-sketch-8.png
subject-01,1,377,0.665772914886475,dog,dog,0,0377_ske_s01_0_dog_00_dog-3503-sketch-6.png
subject-01,1,378,1.09765100479126,bird,bird,0,0378_ske_s01_0_bird_00_bird-0030-sketch-35.png
subject-01,1,379,0.613443851470947,bird,bird,0,0379_ske_s01_0_bird_00_bird-0834-sketch-24.png
subject-01,1,380,0.607603073120117,oven,oven,0,0380_ske_s01_0_oven_00_oven-0035-sketch-4.png
subject-01,1,381,0.64725399017334,car,car,0,0381_ske_s01_0_car_00_car-0132-sketch-35.png
subject-01,1,382,0.672806978225708,bird,bird,0,0382_ske_s01_0_bird_00_bird-1749-sketch-25.png
subject-01,1,383,0.580693960189819,oven,oven,0,0383_ske_s01_0_oven_00_oven-0010-sketch-17.png
subject-01,1,384,0.878449201583862,elephant,elephant,0,0384_ske_s01_0_elephant_00_elephant-0013-sketch-2.png
subject-01,1,385,0.566354990005493,knife,knife,0,0385_ske_s01_0_knife_00_knife-0051-sketch-9.png
subject-01,1,386,0.88841986656189,truck,truck,0,0386_ske_s01_0_truck_00_truck-0196-sketch-47.png
subject-01,1,387,0.913782835006714,chair,chair,0,0387_ske_s01_0_chair_00_chair-0125-sketch-3.png
subject-01,1,388,1.25976705551147,oven,chair,0,0388_ske_s01_0_chair_00_chair-0062-sketch-18.png
subject-01,1,389,0.78352689743042,clock,clock,0,0389_ske_s01_0_clock_00_clock-0127-sketch-30.png
subject-01,1,390,0.737268924713135,bottle,bottle,0,0390_ske_s01_0_bottle_00_bottle-0301-sketch-50.png
subject-01,1,391,0.629593849182129,cat,cat,0,0391_ske_s01_0_cat_00_cat-0059-sketch-16.png
subject-01,1,392,0.482935905456543,clock,clock,0,0392_ske_s01_0_clock_00_clock-0123-sketch-27.png
subject-01,1,393,0.670855045318604,bird,bird,0,0393_ske_s01_0_bird_00_bird-2169-sketch-36.png
subject-01,1,394,0.696593999862671,car,car,0,0394_ske_s01_0_car_00_car-0047-sketch-50.png
subject-01,1,395,1.13658499717712,cat,cat,0,0395_ske_s01_0_cat_00_cat-0293-sketch-43.png
subject-01,1,396,0.840096950531006,dog,dog,0,0396_ske_s01_0_dog_00_dog-3417-sketch-2.png
subject-01,1,397,0.512192964553833,boat,boat,0,0397_ske_s01_0_boat_00_boat-0070-sketch-25.png
subject-01,1,398,0.631727933883667,airplane,airplane,0,0398_ske_s01_0_airplane_00_airplane-0005-sketch-12.png
subject-01,1,399,0.860092878341675,car,car,0,0399_ske_s01_0_car_00_car-0055-sketch-11.png
subject-01,1,400,0.79144287109375,bottle,bottle,0,0400_ske_s01_0_bottle_00_bottle-0045-sketch-49.png
subject-01,1,401,0.729251861572266,chair,chair,0,0401_ske_s01_0_chair_00_chair-0122-sketch-27.png
subject-01,1,402,0.511029958724976,clock,clock,0,0402_ske_s01_0_clock_00_clock-0067-sketch-22.png
subject-01,1,403,0.442988157272339,clock,clock,0,0403_ske_s01_0_clock_00_clock-0046-sketch-5.png
subject-01,1,404,0.732903003692627,elephant,elephant,0,0404_ske_s01_0_elephant_00_elephant-0032-sketch-37.png
subject-01,1,405,0.554446935653687,boat,boat,0,0405_ske_s01_0_boat_00_boat-0239-sketch-4.png
subject-01,1,406,0.540502071380615,car,car,0,0406_ske_s01_0_car_00_car-0024-sketch-3.png
subject-01,1,407,0.636254072189331,car,car,0,0407_ske_s01_0_car_00_car-0122-sketch-26.png
subject-01,1,408,0.6461501121521,keyboard,keyboard,0,0408_ske_s01_0_keyboard_00_keyboard-0003-sketch-10.png
subject-01,1,409,0.661770105361938,elephant,elephant,0,0409_ske_s01_0_elephant_00_elephant-0011-sketch-18.png
subject-01,1,410,0.70147705078125,bear,bear,0,0410_ske_s01_0_bear_00_bear-0081-sketch-36.png
subject-01,1,411,0.571422815322876,bear,bear,0,0411_ske_s01_0_bear_00_bear-0090-sketch-44.png
subject-01,1,412,0.753262042999268,elephant,elephant,0,0412_ske_s01_0_elephant_00_elephant-0020-sketch-26.png
subject-01,1,413,0.737226009368896,truck,truck,0,0413_ske_s01_0_truck_00_truck-0007-sketch-14.png
subject-01,1,414,0.864886999130249,knife,knife,0,0414_ske_s01_0_knife_00_knife-0033-sketch-38.png
subject-01,1,415,0.740514993667603,cat,cat,0,0415_ske_s01_0_cat_00_cat-0258-sketch-11.png
subject-01,1,416,0.890589952468872,car,car,0,0416_ske_s01_0_car_00_car-0120-sketch-24.png
subject-01,1,417,0.610304832458496,bear,bear,0,0417_ske_s01_0_bear_00_bear-0049-sketch-8.png
subject-01,1,418,0.45423412322998,clock,clock,0,0418_ske_s01_0_clock_00_clock-0018-sketch-24.png
subject-01,1,419,1.47999310493469,cat,cat,0,0419_ske_s01_0_cat_00_cat-0250-sketch-50.png
subject-01,1,420,0.638336896896362,truck,truck,0,0420_ske_s01_0_truck_00_truck-0312-sketch-13.png
subject-01,1,421,0.857412815093994,bear,bear,0,0421_ske_s01_0_bear_00_bear-0079-sketch-34.png
subject-01,1,422,0.561190128326416,bicycle,bicycle,0,0422_ske_s01_0_bicycle_00_bicycle-0053-sketch-1.png
subject-01,1,423,0.531317949295044,bicycle,bicycle,0,0423_ske_s01_0_bicycle_00_bicycle-0058-sketch-14.png
subject-01,1,424,0.577043056488037,car,car,0,0424_ske_s01_0_car_00_car-0129-sketch-32.png
subject-01,1,425,0.766808986663818,chair,chair,0,0425_ske_s01_0_chair_00_chair-0176-sketch-3.png
subject-01,1,426,0.760544061660767,boat,boat,0,0426_ske_s01_0_boat_00_boat-0067-sketch-22.png
subject-01,1,427,0.698635101318359,elephant,elephant,0,0427_ske_s01_0_elephant_00_elephant-0001-sketch-0.png
subject-01,1,428,0.614448070526123,bottle,bottle,0,0428_ske_s01_0_bottle_00_bottle-0185-sketch-38.png
subject-01,1,429,0.693984985351562,bicycle,bicycle,0,0429_ske_s01_0_bicycle_00_bicycle-0062-sketch-18.png
subject-01,1,430,1.13983178138733,dog,dog,0,0430_ske_s01_0_dog_00_dog-4709-sketch-4.png
subject-01,1,431,0.695626020431519,keyboard,keyboard,0,0431_ske_s01_0_keyboard_00_keyboard-0071-sketch-26.png
subject-01,1,432,0.627867937088013,cat,cat,0,0432_ske_s01_0_cat_00_cat-0062-sketch-19.png
subject-01,1,433,0.519144058227539,cat,cat,0,0433_ske_s01_0_cat_00_cat-0002-sketch-1.png
subject-01,1,434,0.833096981048584,car,car,0,0434_ske_s01_0_car_00_car-0139-sketch-41.png
subject-01,1,435,0.545060157775879,bird,bird,0,0435_ske_s01_0_bird_00_bird-1740-sketch-17.png
subject-01,1,436,0.670883178710938,keyboard,keyboard,0,0436_ske_s01_0_keyboard_00_keyboard-0044-sketch-48.png
subject-01,1,437,0.578290939331055,boat,boat,0,0437_ske_s01_0_boat_00_boat-0059-sketch-15.png
subject-01,1,438,0.634526014328003,chair,chair,0,0438_ske_s01_0_chair_00_chair-0168-sketch-22.png
subject-01,1,439,0.698285102844238,dog,dog,0,0439_ske_s01_0_dog_00_dog-5084-sketch-11.png
subject-01,1,440,0.855900049209595,keyboard,keyboard,0,0440_ske_s01_0_keyboard_00_keyboard-0019-sketch-25.png
subject-01,1,441,0.756328821182251,oven,oven,0,0441_ske_s01_0_oven_00_oven-0032-sketch-37.png
subject-01,1,442,0.8419189453125,bear,bear,0,0442_ske_s01_0_bear_00_bear-0059-sketch-16.png
subject-01,1,443,0.94555401802063,elephant,elephant,0,0443_ske_s01_0_elephant_00_elephant-0054-sketch-10.png
subject-01,1,444,0.681288957595825,knife,knife,0,0444_ske_s01_0_knife_00_knife-0043-sketch-47.png
subject-01,1,445,0.673007965087891,bottle,bottle,0,0445_ske_s01_0_bottle_00_bottle-0082-sketch-37.png
subject-01,1,446,0.801254034042358,dog,dog,0,0446_ske_s01_0_dog_00_dog-5223-sketch-45.png
subject-01,1,447,0.746660947799683,bottle,bottle,0,0447_ske_s01_0_bottle_00_bottle-0338-sketch-38.png
subject-01,1,448,0.638670921325684,elephant,elephant,0,0448_ske_s01_0_elephant_00_elephant-0012-sketch-19.png
subject-01,1,449,0.936336994171143,airplane,airplane,0,0449_ske_s01_0_airplane_00_airplane-0049-sketch-7.png
subject-01,1,450,NaN,na,boat,0,0450_ske_s01_0_boat_00_boat-0180-sketch-32.png
subject-01,1,451,1.12987589836121,airplane,airplane,0,0451_ske_s01_0_airplane_00_airplane-0036-sketch-40.png
subject-01,1,452,0.850066900253296,bottle,bottle,0,0452_ske_s01_0_bottle_00_bottle-0131-sketch-35.png
subject-01,1,453,0.803158044815063,boat,boat,0,0453_ske_s01_0_boat_00_boat-0107-sketch-12.png
subject-01,1,454,1.1252281665802,bicycle,bicycle,0,0454_ske_s01_0_bicycle_00_bicycle-0013-sketch-2.png
subject-01,1,455,0.571298837661743,airplane,airplane,0,0455_ske_s01_0_airplane_00_airplane-0016-sketch-22.png
subject-01,1,456,0.532980918884277,keyboard,keyboard,0,0456_ske_s01_0_keyboard_00_keyboard-0049-sketch-7.png
subject-01,1,457,0.526827096939087,keyboard,keyboard,0,0457_ske_s01_0_keyboard_00_keyboard-0039-sketch-43.png
subject-01,1,458,0.872709035873413,bear,bear,0,0458_ske_s01_0_bear_00_bear-0137-sketch-40.png
subject-01,1,459,0.600409984588623,airplane,airplane,0,0459_ske_s01_0_airplane_00_airplane-0033-sketch-38.png
subject-01,1,460,0.546393871307373,oven,oven,0,0460_ske_s01_0_oven_00_oven-0025-sketch-30.png
subject-01,1,461,0.626018047332764,bear,bear,0,0461_ske_s01_0_bear_00_bear-0038-sketch-42.png
subject-01,1,462,0.641807079315186,chair,chair,0,0462_ske_s01_0_chair_00_chair-0040-sketch-44.png
subject-01,1,463,0.603638172149658,chair,chair,0,0463_ske_s01_0_chair_00_chair-0029-sketch-34.png
subject-01,1,464,1.05135583877563,knife,knife,0,0464_ske_s01_0_knife_00_knife-0009-sketch-16.png
subject-01,1,465,1.16271281242371,oven,dog,0,0465_ske_s01_0_dog_00_dog-1973-sketch-47.png
subject-01,1,466,0.609032154083252,keyboard,keyboard,0,0466_ske_s01_0_keyboard_00_keyboard-0017-sketch-23.png
subject-01,1,467,0.624842882156372,bear,bear,0,0467_ske_s01_0_bear_00_bear-0045-sketch-49.png
subject-01,1,468,0.672682046890259,boat,boat,0,0468_ske_s01_0_boat_00_boat-0085-sketch-39.png
subject-01,1,469,0.642750978469849,bicycle,bicycle,0,0469_ske_s01_0_bicycle_00_bicycle-0016-sketch-22.png
subject-01,1,470,0.846275806427002,truck,truck,0,0470_ske_s01_0_truck_00_truck-0192-sketch-43.png
subject-01,1,471,0.450647830963135,clock,clock,0,0471_ske_s01_0_clock_00_clock-0033-sketch-38.png
subject-01,1,472,0.5518798828125,oven,oven,0,0472_ske_s01_0_oven_00_oven-0046-sketch-5.png
subject-01,1,473,0.677918195724487,truck,truck,0,0473_ske_s01_0_truck_00_truck-0034-sketch-39.png
subject-01,1,474,0.731539011001587,dog,dog,0,0474_ske_s01_0_dog_00_dog-1759-sketch-38.png
subject-01,1,475,0.718023061752319,bottle,bottle,0,0475_ske_s01_0_bottle_00_bottle-0202-sketch-8.png
subject-01,1,476,0.593281984329224,airplane,airplane,0,0476_ske_s01_0_airplane_00_airplane-0035-sketch-4.png
subject-01,1,477,1.25944900512695,bottle,clock,0,0477_ske_s01_0_clock_00_clock-0115-sketch-2.png
subject-01,1,478,0.610833168029785,bear,bear,0,0478_ske_s01_0_bear_00_bear-0179-sketch-32.png
subject-01,1,479,0.769015073776245,chair,chair,0,0479_ske_s01_0_chair_00_chair-0144-sketch-47.png
subject-01,1,480,0.776427030563354,car,truck,0,0480_ske_s01_0_truck_00_truck-0132-sketch-35.png
subject-01,1,481,0.786293983459473,airplane,airplane,0,0481_ske_s01_0_airplane_00_airplane-0003-sketch-10.png
subject-01,1,482,0.662402868270874,bear,bear,0,0482_ske_s01_0_bear_00_bear-0149-sketch-6.png
subject-01,1,483,0.583983182907104,keyboard,keyboard,0,0483_ske_s01_0_keyboard_00_keyboard-0016-sketch-22.png
subject-01,1,484,0.507867813110352,car,truck,0,0484_ske_s01_0_truck_00_truck-0243-sketch-43.png
subject-01,1,485,0.515431880950928,bicycle,bicycle,0,0485_ske_s01_0_bicycle_00_bicycle-0060-sketch-16.png
subject-01,1,486,0.767693996429443,truck,car,0,0486_ske_s01_0_car_00_car-0029-sketch-34.png
subject-01,1,487,0.605453968048096,boat,boat,0,0487_ske_s01_0_boat_00_boat-0002-sketch-1.png
subject-01,1,488,0.652948141098022,truck,truck,0,0488_ske_s01_0_truck_00_truck-0385-sketch-33.png
subject-01,1,489,0.778747081756592,airplane,airplane,0,0489_ske_s01_0_airplane_00_airplane-0009-sketch-16.png
subject-01,1,490,0.866678953170776,elephant,elephant,0,0490_ske_s01_0_elephant_00_elephant-0057-sketch-13.png
subject-01,1,491,0.624442100524902,keyboard,keyboard,0,0491_ske_s01_0_keyboard_00_keyboard-0007-sketch-14.png
subject-01,1,492,0.760384082794189,bottle,bottle,0,0492_ske_s01_0_bottle_00_bottle-0097-sketch-50.png
subject-01,1,493,1.01831793785095,elephant,elephant,0,0493_ske_s01_0_elephant_00_elephant-0098-sketch-50.png
subject-01,1,494,0.667713165283203,cat,cat,0,0494_ske_s01_0_cat_00_cat-0073-sketch-29.png
subject-01,1,495,0.755496025085449,bird,bird,0,0495_ske_s01_0_bird_00_bird-0748-sketch-39.png
subject-01,1,496,0.551512956619263,knife,knife,0,0496_ske_s01_0_knife_00_knife-0029-sketch-34.png
subject-01,1,497,0.905313968658447,bear,bear,0,0497_ske_s01_0_bear_00_bear-0087-sketch-41.png
subject-01,1,498,0.829373836517334,bird,bird,0,0498_ske_s01_0_bird_00_bird-0072-sketch-27.png
subject-01,1,499,0.540975093841553,oven,oven,0,0499_ske_s01_0_oven_00_oven-0039-sketch-43.png
subject-01,1,500,0.621289014816284,airplane,airplane,0,0500_ske_s01_0_airplane_00_airplane-0022-sketch-28.png
subject-01,1,501,0.526544094085693,chair,chair,0,0501_ske_s01_0_chair_00_chair-0088-sketch-41.png
subject-01,1,502,0.966214895248413,dog,dog,0,0502_ske_s01_0_dog_00_dog-3573-sketch-22.png
subject-01,1,503,0.560873031616211,boat,boat,0,0503_ske_s01_0_boat_00_boat-0173-sketch-26.png
subject-01,1,504,0.734028100967407,bear,bear,0,0504_ske_s01_0_bear_00_bear-0070-sketch-26.png
subject-01,1,505,0.563932180404663,bicycle,bicycle,0,0505_ske_s01_0_bicycle_00_bicycle-0020-sketch-26.png
subject-01,1,506,0.49356484413147,clock,clock,0,0506_ske_s01_0_clock_00_clock-0141-sketch-43.png
subject-01,1,507,0.643471956253052,cat,cat,0,0507_ske_s01_0_cat_00_cat-0241-sketch-42.png
subject-01,1,508,0.613379001617432,knife,knife,0,0508_ske_s01_0_knife_00_knife-0028-sketch-33.png
subject-01,1,509,0.561268091201782,dog,dog,0,0509_ske_s01_0_dog_00_dog-3646-sketch-42.png
subject-01,1,510,0.936796903610229,knife,knife,0,0510_ske_s01_0_knife_00_knife-0017-sketch-23.png
subject-01,1,511,0.828750133514404,airplane,airplane,0,0511_ske_s01_0_airplane_00_airplane-0004-sketch-11.png
subject-01,1,512,0.642484188079834,oven,oven,0,0512_ske_s01_0_oven_00_oven-0038-sketch-42.png
subject-01,1,513,0.567766904830933,clock,clock,0,0513_ske_s01_0_clock_00_clock-0099-sketch-6.png
subject-01,1,514,0.7412109375,car,truck,0,0514_ske_s01_0_truck_00_truck-0221-sketch-23.png
subject-01,1,515,0.639496088027954,car,car,0,0515_ske_s01_0_car_00_car-0052-sketch-0.png
subject-01,1,516,0.743091106414795,bird,bird,0,0516_ske_s01_0_bird_00_bird-0685-sketch-28.png
subject-01,1,517,0.500988960266113,oven,oven,0,0517_ske_s01_0_oven_00_oven-0049-sketch-7.png
subject-01,1,518,0.611636877059937,dog,dog,0,0518_ske_s01_0_dog_00_dog-5354-sketch-25.png
subject-01,1,519,0.550240993499756,bottle,bottle,0,0519_ske_s01_0_bottle_00_bottle-0003-sketch-10.png
subject-01,1,520,0.498317003250122,airplane,airplane,0,0520_ske_s01_0_airplane_00_airplane-0019-sketch-25.png
subject-01,1,521,0.740350008010864,knife,knife,0,0521_ske_s01_0_knife_00_knife-0032-sketch-37.png
subject-01,1,522,0.610406875610352,dog,dog,0,0522_ske_s01_0_dog_00_dog-1657-sketch-38.png
subject-01,1,523,0.623939990997314,clock,clock,0,0523_ske_s01_0_clock_00_clock-0078-sketch-32.png
subject-01,1,524,0.82746696472168,dog,bear,0,0524_ske_s01_0_bear_00_bear-0195-sketch-47.png
subject-01,1,525,0.571517944335938,bottle,bottle,0,0525_ske_s01_0_bottle_00_bottle-0054-sketch-11.png
subject-01,1,526,0.6649010181427,bird,bird,0,0526_ske_s01_0_bird_00_bird-1948-sketch-20.png
subject-01,1,527,1.18287205696106,chair,truck,0,0527_ske_s01_0_truck_00_truck-0368-sketch-18.png
subject-01,1,528,0.683362007141113,car,car,0,0528_ske_s01_0_car_00_car-0040-sketch-44.png
subject-01,1,529,0.472579956054688,clock,clock,0,0529_ske_s01_0_clock_00_clock-0133-sketch-36.png
subject-01,1,530,0.67026686668396,chair,chair,0,0530_ske_s01_0_chair_00_chair-0129-sketch-33.png
subject-01,1,531,0.686125993728638,bird,bird,0,0531_ske_s01_0_bird_00_bird-0939-sketch-27.png
subject-01,1,532,0.570184946060181,bird,bird,0,0532_ske_s01_0_bird_00_bird-1562-sketch-40.png
subject-01,1,533,0.515433073043823,chair,chair,0,0533_ske_s01_0_chair_00_chair-0167-sketch-21.png
subject-01,1,534,0.72013783454895,bird,bird,0,0534_ske_s01_0_bird_00_bird-0646-sketch-39.png
subject-01,1,535,0.667518854141235,bird,bird,0,0535_ske_s01_0_bird_00_bird-0640-sketch-33.png
subject-01,1,536,0.989114046096802,car,car,0,0536_ske_s01_0_car_00_car-0013-sketch-2.png
subject-01,1,537,0.661217927932739,cat,cat,0,0537_ske_s01_0_cat_00_cat-0152-sketch-9.png
subject-01,1,538,0.701107978820801,clock,clock,0,0538_ske_s01_0_clock_00_clock-0110-sketch-15.png
subject-01,1,539,0.501093864440918,boat,boat,0,0539_ske_s01_0_boat_00_boat-0115-sketch-2.png
subject-01,1,540,0.88477897644043,truck,truck,0,0540_ske_s01_0_truck_00_truck-0115-sketch-2.png
subject-01,1,541,0.712947845458984,bird,bird,0,0541_ske_s01_0_bird_00_bird-0316-sketch-17.png
subject-01,1,542,0.604199886322021,truck,truck,0,0542_ske_s01_0_truck_00_truck-0386-sketch-34.png
subject-01,1,543,0.622271060943604,bear,bear,0,0543_ske_s01_0_bear_00_bear-0112-sketch-18.png
subject-01,1,544,0.654024839401245,elephant,elephant,0,0544_ske_s01_0_elephant_00_elephant-0100-sketch-7.png
subject-01,1,545,0.779742002487183,bird,bird,0,0545_ske_s01_0_bird_00_bird-0292-sketch-41.png
subject-01,1,546,0.537290096282959,airplane,airplane,0,0546_ske_s01_0_airplane_00_airplane-0008-sketch-15.png
subject-01,1,547,0.493499994277954,airplane,airplane,0,0547_ske_s01_0_airplane_00_airplane-0023-sketch-29.png
subject-01,1,548,0.860888004302979,car,car,0,0548_ske_s01_0_car_00_car-0022-sketch-28.png
subject-01,1,549,0.596915006637573,elephant,elephant,0,0549_ske_s01_0_elephant_00_elephant-0062-sketch-18.png
subject-01,1,550,0.784869194030762,keyboard,keyboard,0,0550_ske_s01_0_keyboard_00_keyboard-0008-sketch-15.png
subject-01,1,551,0.716643810272217,chair,chair,0,0551_ske_s01_0_chair_00_chair-0013-sketch-2.png
subject-01,1,552,0.630437850952148,knife,knife,0,0552_ske_s01_0_knife_00_knife-0025-sketch-30.png
subject-01,1,553,0.546083927154541,boat,boat,0,0553_ske_s01_0_boat_00_boat-0132-sketch-35.png
subject-01,1,554,0.648342847824097,oven,oven,0,0554_ske_s01_0_oven_00_oven-0008-sketch-15.png
subject-01,1,555,1.12745904922485,bottle,bear,0,0555_ske_s01_0_bear_00_bear-0201-sketch-7.png
subject-01,1,556,1.16793513298035,cat,cat,0,0556_ske_s01_0_cat_00_cat-0264-sketch-17.png
subject-01,1,557,0.49550986289978,boat,boat,0,0557_ske_s01_0_boat_00_boat-0001-sketch-0.png
subject-01,1,558,0.793170928955078,bottle,bottle,0,0558_ske_s01_0_bottle_00_bottle-0143-sketch-46.png
subject-01,1,559,0.575460910797119,car,car,0,0559_ske_s01_0_car_00_car-0117-sketch-21.png
subject-01,1,560,0.57689905166626,bird,bird,0,0560_ske_s01_0_bird_00_bird-0228-sketch-3.png
subject-01,1,561,0.490434885025024,oven,oven,0,0561_ske_s01_0_oven_00_oven-0050-sketch-8.png
subject-01,1,562,0.532296895980835,clock,clock,0,0562_ske_s01_0_clock_00_clock-0059-sketch-15.png
subject-01,1,563,0.486701965332031,oven,oven,0,0563_ske_s01_0_oven_00_oven-0033-sketch-38.png
subject-01,1,564,0.70616602897644,bicycle,bicycle,0,0564_ske_s01_0_bicycle_00_bicycle-0048-sketch-6.png
subject-01,1,565,0.785683155059814,bottle,bottle,0,0565_ske_s01_0_bottle_00_bottle-0215-sketch-19.png
subject-01,1,566,0.623778820037842,bicycle,bicycle,0,0566_ske_s01_0_bicycle_00_bicycle-0008-sketch-15.png
subject-01,1,567,0.851542949676514,bicycle,bicycle,0,0567_ske_s01_0_bicycle_00_bicycle-0003-sketch-10.png
subject-01,1,568,0.756441116333008,cat,cat,0,0568_ske_s01_0_cat_00_cat-0048-sketch-7.png
subject-01,1,569,0.915503978729248,bird,bird,0,0569_ske_s01_0_bird_00_bird-0880-sketch-2.png
subject-01,1,570,0.925023078918457,car,car,0,0570_ske_s01_0_car_00_car-0034-sketch-39.png
subject-01,1,571,0.77672815322876,keyboard,keyboard,0,0571_ske_s01_0_keyboard_00_keyboard-0023-sketch-29.png
subject-01,1,572,0.630590915679932,bird,bird,0,0572_ske_s01_0_bird_00_bird-2010-sketch-30.png
subject-01,1,573,0.622490167617798,car,truck,0,0573_ske_s01_0_truck_00_truck-0302-sketch-50.png
subject-01,1,574,0.842449903488159,bottle,bottle,0,0574_ske_s01_0_bottle_00_bottle-0071-sketch-27.png
subject-01,1,575,1.14219403266907,bottle,bottle,0,0575_ske_s01_0_bottle_00_bottle-0217-sketch-20.png
subject-01,1,576,0.663704872131348,car,truck,0,0576_ske_s01_0_truck_00_truck-0266-sketch-18.png
subject-01,1,577,0.579391002655029,keyboard,keyboard,0,0577_ske_s01_0_keyboard_00_keyboard-0041-sketch-45.png
subject-01,1,578,0.542078971862793,oven,oven,0,0578_ske_s01_0_oven_00_oven-0018-sketch-24.png
subject-01,1,579,0.737241983413696,knife,knife,0,0579_ske_s01_0_knife_00_knife-0035-sketch-4.png
subject-01,1,580,1.02124309539795,bird,bird,0,0580_ske_s01_0_bird_00_bird-1565-sketch-43.png
subject-01,1,581,0.770648956298828,knife,knife,0,0581_ske_s01_0_knife_00_knife-0021-sketch-27.png
subject-01,1,582,0.560658931732178,oven,oven,0,0582_ske_s01_0_oven_00_oven-0034-sketch-39.png
subject-01,1,583,0.484429836273193,cat,cat,0,0583_ske_s01_0_cat_00_cat-0016-sketch-22.png
subject-01,1,584,0.712270021438599,boat,boat,0,0584_ske_s01_0_boat_00_boat-0178-sketch-30.png
subject-01,1,585,0.940103054046631,dog,dog,0,0585_ske_s01_0_dog_00_dog-4499-sketch-33.png
subject-01,1,586,0.708137035369873,bottle,bottle,0,0586_ske_s01_0_bottle_00_bottle-0184-sketch-37.png
subject-01,1,587,0.629887104034424,keyboard,keyboard,0,0587_ske_s01_0_keyboard_00_keyboard-0004-sketch-11.png
subject-01,1,588,0.833544015884399,boat,boat,0,0588_ske_s01_0_boat_00_boat-0094-sketch-47.png
subject-01,1,589,0.679427862167358,cat,cat,0,0589_ske_s01_0_cat_00_cat-0269-sketch-21.png
subject-01,1,590,0.703474044799805,chair,chair,0,0590_ske_s01_0_chair_00_chair-0155-sketch-10.png
subject-01,1,591,0.649830102920532,dog,dog,0,0591_ske_s01_0_dog_00_dog-4202-sketch-4.png
subject-01,1,592,0.619410037994385,bicycle,bicycle,0,0592_ske_s01_0_bicycle_00_bicycle-0045-sketch-49.png
subject-01,1,593,0.668749094009399,bottle,bottle,0,0593_ske_s01_0_bottle_00_bottle-0133-sketch-37.png
subject-01,1,594,0.504304170608521,oven,oven,0,0594_ske_s01_0_oven_00_oven-0037-sketch-41.png
subject-01,1,595,0.686408996582031,clock,clock,0,0595_ske_s01_0_clock_00_clock-0044-sketch-48.png
subject-01,1,596,0.93611216545105,dog,dog,0,0596_ske_s01_0_dog_00_dog-3338-sketch-40.png
subject-01,1,597,0.467808961868286,oven,oven,0,0597_ske_s01_0_oven_00_oven-0027-sketch-32.png
subject-01,1,598,0.571883916854858,car,truck,0,0598_ske_s01_0_truck_00_truck-0255-sketch-9.png
subject-01,1,599,0.619668006896973,airplane,airplane,0,0599_ske_s01_0_airplane_00_airplane-0044-sketch-48.png
subject-01,1,600,0.62138295173645,chair,chair,0,0600_ske_s01_0_chair_00_chair-0011-sketch-18.png
subject-01,1,601,0.535079002380371,clock,clock,0,0601_ske_s01_0_clock_00_clock-0143-sketch-45.png
subject-01,1,602,0.951405048370361,bottle,bottle,0,0602_ske_s01_0_bottle_00_bottle-0114-sketch-2.png
subject-01,1,603,0.614964962005615,elephant,elephant,0,0603_ske_s01_0_elephant_00_elephant-0077-sketch-31.png
subject-01,1,604,0.484488010406494,boat,boat,0,0604_ske_s01_0_boat_00_boat-0029-sketch-34.png
subject-01,1,605,0.672032833099365,knife,knife,0,0605_ske_s01_0_knife_00_knife-0006-sketch-13.png
subject-01,1,606,0.626127958297729,bottle,bottle,0,0606_ske_s01_0_bottle_00_bottle-0066-sketch-22.png
subject-01,1,607,0.542106866836548,clock,clock,0,0607_ske_s01_0_clock_00_clock-0081-sketch-35.png
subject-01,1,608,0.941684007644653,car,car,0,0608_ske_s01_0_car_00_car-0069-sketch-24.png
subject-01,1,609,0.661362886428833,airplane,airplane,0,0609_ske_s01_0_airplane_00_airplane-0043-sketch-47.png
subject-01,1,610,0.755362987518311,bear,bear,0,0610_ske_s01_0_bear_00_bear-0085-sketch-4.png
subject-01,1,611,0.867236852645874,dog,dog,0,0611_ske_s01_0_dog_00_dog-2615-sketch-3.png
subject-01,1,612,0.5072340965271,oven,oven,0,0612_ske_s01_0_oven_00_oven-0014-sketch-20.png
subject-01,1,613,0.578943967819214,airplane,airplane,0,0613_ske_s01_0_airplane_00_airplane-0010-sketch-17.png
subject-01,1,614,0.572695016860962,car,car,0,0614_ske_s01_0_car_00_car-0064-sketch-2.png
subject-01,1,615,0.792892932891846,oven,oven,0,0615_ske_s01_0_oven_00_oven-0021-sketch-27.png
subject-01,1,616,0.958223104476929,elephant,elephant,0,0616_ske_s01_0_elephant_00_elephant-0050-sketch-8.png
subject-01,1,617,0.544384956359863,chair,chair,0,0617_ske_s01_0_chair_00_chair-0063-sketch-19.png
subject-01,1,618,0.575875043869019,boat,boat,0,0618_ske_s01_0_boat_00_boat-0036-sketch-40.png
subject-01,1,619,0.738196134567261,elephant,elephant,0,0619_ske_s01_0_elephant_00_elephant-0048-sketch-6.png
subject-01,1,620,0.631891012191772,cat,cat,0,0620_ske_s01_0_cat_00_cat-0265-sketch-18.png
subject-01,1,621,0.765537023544312,airplane,airplane,0,0621_ske_s01_0_airplane_00_airplane-0039-sketch-43.png
subject-01,1,622,0.70321798324585,keyboard,keyboard,0,0622_ske_s01_0_keyboard_00_keyboard-0059-sketch-15.png
subject-01,1,623,0.484782934188843,bottle,bottle,0,0623_ske_s01_0_bottle_00_bottle-0189-sketch-41.png
subject-01,1,624,0.651048183441162,airplane,airplane,0,0624_ske_s01_0_airplane_00_airplane-0047-sketch-50.png
subject-01,1,625,0.66036581993103,boat,boat,0,0625_ske_s01_0_boat_00_boat-0099-sketch-6.png
subject-01,1,626,0.770439147949219,bottle,bottle,0,0626_ske_s01_0_bottle_00_bottle-0245-sketch-46.png
subject-01,1,627,0.858417987823486,cat,cat,0,0627_ske_s01_0_cat_00_cat-0043-sketch-47.png
subject-01,1,628,0.779896974563599,truck,truck,0,0628_ske_s01_0_truck_00_truck-0075-sketch-3.png
subject-01,1,629,0.688115835189819,car,car,0,0629_ske_s01_0_car_00_car-0021-sketch-27.png
subject-01,1,630,0.579519033432007,knife,knife,0,0630_ske_s01_0_knife_00_knife-0027-sketch-32.png
subject-01,1,631,0.587544918060303,car,car,0,0631_ske_s01_0_car_00_car-0018-sketch-24.png
subject-01,1,632,1.05715394020081,bicycle,bicycle,0,0632_ske_s01_0_bicycle_00_bicycle-0102-sketch-9.png
subject-01,1,633,0.559364080429077,bottle,bottle,0,0633_ske_s01_0_bottle_00_bottle-0305-sketch-9.png
subject-01,1,634,0.661088943481445,dog,dog,0,0634_ske_s01_0_dog_00_dog-4208-sketch-45.png
subject-01,1,635,0.528846979141235,clock,clock,0,0635_ske_s01_0_clock_00_clock-0022-sketch-28.png
subject-01,1,636,0.8592369556427,keyboard,keyboard,0,0636_ske_s01_0_keyboard_00_keyboard-0091-sketch-44.png
subject-01,1,637,0.664371967315674,bicycle,bicycle,0,0637_ske_s01_0_bicycle_00_bicycle-0090-sketch-43.png
subject-01,1,638,0.734231948852539,cat,cat,0,0638_ske_s01_0_cat_00_cat-0053-sketch-10.png
subject-01,1,639,0.658170938491821,oven,oven,0,0639_ske_s01_0_oven_00_oven-0013-sketch-2.png
subject-01,1,640,0.589895963668823,airplane,airplane,0,0640_ske_s01_0_airplane_00_airplane-0017-sketch-23.png
subject-01,1,641,0.989763021469116,keyboard,keyboard,0,0641_ske_s01_0_keyboard_00_keyboard-0088-sketch-41.png
subject-01,1,642,0.553822040557861,bear,bear,0,0642_ske_s01_0_bear_00_bear-0103-sketch-1.png
subject-01,1,643,0.623302936553955,oven,oven,0,0643_ske_s01_0_oven_00_oven-0020-sketch-26.png
subject-01,1,644,0.915503978729248,bird,bird,0,0644_ske_s01_0_bird_00_bird-0384-sketch-32.png
subject-01,1,645,0.634639024734497,bird,bird,0,0645_ske_s01_0_bird_00_bird-2313-sketch-28.png
subject-01,1,646,0.610805988311768,cat,cat,0,0646_ske_s01_0_cat_00_cat-0128-sketch-32.png
subject-01,1,647,0.903195142745972,knife,knife,0,0647_ske_s01_0_knife_00_knife-0019-sketch-25.png
subject-01,1,648,0.75444507598877,car,car,0,0648_ske_s01_0_car_00_car-0083-sketch-37.png
subject-01,1,649,0.70810604095459,elephant,elephant,0,0649_ske_s01_0_elephant_00_elephant-0015-sketch-21.png
subject-01,1,650,0.482298135757446,chair,chair,0,0650_ske_s01_0_chair_00_chair-0127-sketch-31.png
subject-01,1,651,0.607296943664551,bear,bear,0,0651_ske_s01_0_bear_00_bear-0041-sketch-45.png
subject-01,1,652,1.14186501502991,chair,chair,0,0652_ske_s01_0_chair_00_chair-0163-sketch-18.png
subject-01,1,653,0.838054895401001,bear,bear,0,0653_ske_s01_0_bear_00_bear-0198-sketch-5.png
subject-01,1,654,0.947239875793457,bird,bird,0,0654_ske_s01_0_bird_00_bird-1756-sketch-31.png
subject-01,1,655,0.589066028594971,keyboard,keyboard,0,0655_ske_s01_0_keyboard_00_keyboard-0026-sketch-31.png
subject-01,1,656,0.6907639503479,dog,dog,0,0656_ske_s01_0_dog_00_dog-2323-sketch-41.png
subject-01,1,657,0.66074800491333,elephant,elephant,0,0657_ske_s01_0_elephant_00_elephant-0033-sketch-38.png
subject-01,1,658,0.732430934906006,bird,bird,0,0658_ske_s01_0_bird_00_bird-2372-sketch-36.png
subject-01,1,659,0.780500888824463,car,car,0,0659_ske_s01_0_car_00_car-0044-sketch-48.png
subject-01,1,660,0.607937097549438,elephant,elephant,0,0660_ske_s01_0_elephant_00_elephant-0040-sketch-44.png
subject-01,1,661,0.547932863235474,elephant,elephant,0,0661_ske_s01_0_elephant_00_elephant-0039-sketch-43.png
subject-01,1,662,0.509809017181396,clock,clock,0,0662_ske_s01_0_clock_00_clock-0035-sketch-4.png
subject-01,1,663,0.681694984436035,bicycle,bicycle,0,0663_ske_s01_0_bicycle_00_bicycle-0059-sketch-15.png
subject-01,1,664,0.675571918487549,bear,bear,0,0664_ske_s01_0_bear_00_bear-0107-sketch-13.png
subject-01,1,665,0.534963846206665,clock,clock,0,0665_ske_s01_0_clock_00_clock-0057-sketch-13.png
subject-01,1,666,0.677170991897583,boat,boat,0,0666_ske_s01_0_boat_00_boat-0234-sketch-35.png
subject-01,1,667,0.896857976913452,cat,cat,0,0667_ske_s01_0_cat_00_cat-0260-sketch-13.png
subject-01,1,668,0.71891188621521,bird,bird,0,0668_ske_s01_0_bird_00_bird-1342-sketch-24.png
subject-01,1,669,0.718502044677734,bicycle,bicycle,0,0669_ske_s01_0_bicycle_00_bicycle-0081-sketch-35.png
subject-01,1,670,1.34630703926086,clock,clock,0,0670_ske_s01_0_clock_00_clock-0087-sketch-40.png
subject-01,1,671,1.13608002662659,elephant,elephant,0,0671_ske_s01_0_elephant_00_elephant-0037-sketch-41.png
subject-01,1,672,0.893932819366455,cat,cat,0,0672_ske_s01_0_cat_00_cat-0158-sketch-13.png
subject-01,1,673,0.691773891448975,bird,bird,0,0673_ske_s01_0_bird_00_bird-0733-sketch-25.png
subject-01,1,674,0.801583051681519,bird,bird,0,0674_ske_s01_0_bird_00_bird-1721-sketch-46.png
subject-01,1,675,0.623538970947266,bicycle,bicycle,0,0675_ske_s01_0_bicycle_00_bicycle-0056-sketch-12.png
subject-01,1,676,0.727293014526367,bicycle,bicycle,0,0676_ske_s01_0_bicycle_00_bicycle-0004-sketch-11.png
subject-01,1,677,1.07119607925415,dog,dog,0,0677_ske_s01_0_dog_00_dog-0215-sketch-19.png
subject-01,1,678,0.65055513381958,airplane,airplane,0,0678_ske_s01_0_airplane_00_airplane-0002-sketch-1.png
subject-01,1,679,0.666538953781128,knife,knife,0,0679_ske_s01_0_knife_00_knife-0010-sketch-17.png
subject-01,1,680,0.620301008224487,bird,bird,0,0680_ske_s01_0_bird_00_bird-1510-sketch-39.png
subject-01,1,681,0.716157913208008,elephant,elephant,0,0681_ske_s01_0_elephant_00_elephant-0055-sketch-11.png
subject-01,1,682,0.5920729637146,airplane,airplane,0,0682_ske_s01_0_airplane_00_airplane-0048-sketch-6.png
subject-01,1,683,0.67973780632019,airplane,airplane,0,0683_ske_s01_0_airplane_00_airplane-0020-sketch-26.png
subject-01,1,684,0.703662157058716,bottle,bottle,0,0684_ske_s01_0_bottle_00_bottle-0243-sketch-44.png
subject-01,1,685,0.759220123291016,truck,truck,0,0685_ske_s01_0_truck_00_truck-0045-sketch-49.png
subject-01,1,686,0.525366067886353,keyboard,keyboard,0,0686_ske_s01_0_keyboard_00_keyboard-0014-sketch-20.png
subject-01,1,687,0.573086977005005,truck,truck,0,0687_ske_s01_0_truck_00_truck-0154-sketch-0.png
subject-01,1,688,0.755657911300659,keyboard,keyboard,0,0688_ske_s01_0_keyboard_00_keyboard-0085-sketch-39.png
subject-01,1,689,0.458580017089844,oven,oven,0,0689_ske_s01_0_oven_00_oven-0026-sketch-31.png
subject-01,1,690,0.804427146911621,truck,truck,0,0690_ske_s01_0_truck_00_truck-0342-sketch-40.png
subject-01,1,691,0.594250917434692,keyboard,keyboard,0,0691_ske_s01_0_keyboard_00_keyboard-0006-sketch-13.png
subject-01,1,692,0.650182008743286,dog,dog,0,0692_ske_s01_0_dog_00_dog-0111-sketch-17.png
subject-01,1,693,0.782014846801758,airplane,airplane,0,0693_ske_s01_0_airplane_00_airplane-0029-sketch-34.png
subject-01,1,694,0.823501825332642,chair,chair,0,0694_ske_s01_0_chair_00_chair-0072-sketch-27.png
subject-01,1,695,0.589380025863647,chair,chair,0,0695_ske_s01_0_chair_00_chair-0200-sketch-6.png
subject-01,1,696,0.591394901275635,knife,knife,0,0696_ske_s01_0_knife_00_knife-0045-sketch-49.png
subject-01,1,697,0.411291122436523,clock,clock,0,0697_ske_s01_0_clock_00_clock-0076-sketch-30.png
subject-01,1,698,0.528854846954346,keyboard,keyboard,0,0698_ske_s01_0_keyboard_00_keyboard-0042-sketch-46.png
subject-01,1,699,0.492791891098022,bottle,bottle,0,0699_ske_s01_0_bottle_00_bottle-0041-sketch-45.png
subject-01,1,700,0.594998121261597,bear,bear,0,0700_ske_s01_0_bear_00_bear-0086-sketch-40.png
subject-01,1,701,0.478240013122559,car,car,0,0701_ske_s01_0_car_00_car-0032-sketch-37.png
subject-01,1,702,0.580213069915771,elephant,elephant,0,0702_ske_s01_0_elephant_00_elephant-0061-sketch-17.png
subject-01,1,703,0.880141973495483,truck,truck,0,0703_ske_s01_0_truck_00_truck-0079-sketch-33.png
subject-01,1,704,0.691687107086182,bicycle,bicycle,0,0704_ske_s01_0_bicycle_00_bicycle-0019-sketch-25.png
subject-01,1,705,0.537918090820312,airplane,airplane,0,0705_ske_s01_0_airplane_00_airplane-0050-sketch-8.png
subject-01,1,706,0.73357105255127,elephant,elephant,0,0706_ske_s01_0_elephant_00_elephant-0086-sketch-4.png
subject-01,1,707,0.421386003494263,oven,oven,0,0707_ske_s01_0_oven_00_oven-0001-sketch-0.png
subject-01,1,708,0.804064035415649,bicycle,bicycle,0,0708_ske_s01_0_bicycle_00_bicycle-0071-sketch-26.png
subject-01,1,709,0.478937149047852,clock,clock,0,0709_ske_s01_0_clock_00_clock-0030-sketch-35.png
subject-01,1,710,0.760801076889038,keyboard,keyboard,0,0710_ske_s01_0_keyboard_00_keyboard-0098-sketch-50.png
subject-01,1,711,0.604907989501953,chair,chair,0,0711_ske_s01_0_chair_00_chair-0034-sketch-39.png
subject-01,1,712,0.746332168579102,cat,cat,0,0712_ske_s01_0_cat_00_cat-0274-sketch-26.png
subject-01,1,713,0.61155104637146,knife,knife,0,0713_ske_s01_0_knife_00_knife-0047-sketch-50.png
subject-01,1,714,0.600087881088257,car,car,0,0714_ske_s01_0_car_00_car-0076-sketch-30.png
subject-01,1,715,0.787829875946045,elephant,elephant,0,0715_ske_s01_0_elephant_00_elephant-0076-sketch-30.png
subject-01,1,716,0.639925003051758,car,car,0,0716_ske_s01_0_car_00_car-0153-sketch-9.png
subject-01,1,717,0.61745810508728,car,car,0,0717_ske_s01_0_car_00_car-0098-sketch-50.png
subject-01,1,718,0.589570045471191,cat,cat,0,0718_ske_s01_0_cat_00_cat-0044-sketch-48.png
subject-01,1,719,1.14509010314941,boat,boat,0,0719_ske_s01_0_boat_00_boat-0080-sketch-34.png
subject-01,1,720,0.534984827041626,bottle,bottle,0,0720_ske_s01_0_bottle_00_bottle-0321-sketch-22.png
subject-01,1,721,1.02858400344849,cat,cat,0,0721_ske_s01_0_cat_00_cat-0279-sketch-30.png
subject-01,1,722,0.522224903106689,cat,cat,0,0722_ske_s01_0_cat_00_cat-0015-sketch-21.png
subject-01,1,723,0.66442084312439,bird,bird,0,0723_ske_s01_0_bird_00_bird-1096-sketch-31.png
subject-01,1,724,0.954153060913086,cat,bear,0,0724_ske_s01_0_bear_00_bear-0135-sketch-39.png
subject-01,1,725,1.45560812950134,bottle,bottle,0,0725_ske_s01_0_bottle_00_bottle-0150-sketch-7.png
subject-01,1,726,1.14364814758301,oven,oven,0,0726_ske_s01_0_oven_00_oven-0006-sketch-13.png
subject-01,1,727,0.519577026367188,bird,bird,0,0727_ske_s01_0_bird_00_bird-0809-sketch-48.png
subject-01,1,728,0.575467109680176,keyboard,keyboard,0,0728_ske_s01_0_keyboard_00_keyboard-0064-sketch-2.png
subject-01,1,729,0.865272045135498,keyboard,keyboard,0,0729_ske_s01_0_keyboard_00_keyboard-0033-sketch-38.png
subject-01,1,730,0.671550035476685,elephant,elephant,0,0730_ske_s01_0_elephant_00_elephant-0002-sketch-1.png
subject-01,1,731,0.577073097229004,bicycle,bicycle,0,0731_ske_s01_0_bicycle_00_bicycle-0101-sketch-8.png
subject-01,1,732,0.922934055328369,dog,dog,0,0732_ske_s01_0_dog_00_dog-1711-sketch-40.png
subject-01,1,733,0.524699926376343,oven,oven,0,0733_ske_s01_0_oven_00_oven-0029-sketch-34.png
subject-01,1,734,0.902253866195679,knife,knife,0,0734_ske_s01_0_knife_00_knife-0013-sketch-2.png
subject-01,1,735,0.762156009674072,clock,clock,0,0735_ske_s01_0_clock_00_clock-0092-sketch-45.png
subject-01,1,736,0.662019968032837,knife,knife,0,0736_ske_s01_0_knife_00_knife-0048-sketch-6.png
subject-01,1,737,0.887538909912109,keyboard,keyboard,0,0737_ske_s01_0_keyboard_00_keyboard-0047-sketch-50.png
subject-01,1,738,0.693634986877441,elephant,elephant,0,0738_ske_s01_0_elephant_00_elephant-0080-sketch-34.png
subject-01,1,739,0.749111890792847,knife,knife,0,0739_ske_s01_0_knife_00_knife-0012-sketch-19.png
subject-01,1,740,0.555560111999512,boat,boat,0,0740_ske_s01_0_boat_00_boat-0124-sketch-28.png
subject-01,1,741,0.837670087814331,car,truck,0,0741_ske_s01_0_truck_00_truck-0303-sketch-6.png
subject-01,1,742,0.691160202026367,bicycle,bicycle,0,0742_ske_s01_0_bicycle_00_bicycle-0031-sketch-36.png
subject-01,1,743,0.847779989242554,elephant,elephant,0,0743_ske_s01_0_elephant_00_elephant-0052-sketch-0.png
subject-01,1,744,0.426241874694824,cat,cat,0,0744_ske_s01_0_cat_00_cat-0090-sketch-44.png
subject-01,1,745,0.646389007568359,keyboard,keyboard,0,0745_ske_s01_0_keyboard_00_keyboard-0022-sketch-28.png
subject-01,1,746,0.583814859390259,airplane,airplane,0,0746_ske_s01_0_airplane_00_airplane-0051-sketch-9.png
subject-01,1,747,0.73400092124939,elephant,elephant,0,0747_ske_s01_0_elephant_00_elephant-0082-sketch-36.png
subject-01,1,748,0.634109020233154,bird,bird,0,0748_ske_s01_0_bird_00_bird-0578-sketch-23.png
subject-01,1,749,0.587465047836304,clock,clock,0,0749_ske_s01_0_clock_00_clock-0060-sketch-16.png
subject-01,1,750,0.688992977142334,oven,oven,0,0750_ske_s01_0_oven_00_oven-0036-sketch-40.png
subject-01,1,751,0.816723108291626,oven,keyboard,0,0751_ske_s01_0_keyboard_00_keyboard-0028-sketch-33.png
subject-01,1,752,1.00492286682129,airplane,airplane,0,0752_ske_s01_0_airplane_00_airplane-0028-sketch-33.png
subject-01,1,753,0.606967926025391,bear,bear,0,0753_ske_s01_0_bear_00_bear-0007-sketch-14.png
subject-01,1,754,1.42026400566101,dog,dog,0,0754_ske_s01_0_dog_00_dog-2291-sketch-12.png
subject-01,1,755,0.444301843643188,bottle,bottle,0,0755_ske_s01_0_bottle_00_bottle-0165-sketch-2.png
subject-01,1,756,0.882010936737061,bird,bird,0,0756_ske_s01_0_bird_00_bird-1937-sketch-10.png
subject-01,1,757,0.61034107208252,dog,dog,0,0757_ske_s01_0_dog_00_dog-2198-sketch-20.png
subject-01,1,758,0.625734090805054,clock,clock,0,0758_ske_s01_0_clock_00_clock-0131-sketch-34.png
subject-01,1,759,0.823701858520508,dog,dog,0,0759_ske_s01_0_dog_00_dog-1292-sketch-3.png
subject-01,1,760,0.54951000213623,bird,bird,0,0760_ske_s01_0_bird_00_bird-1201-sketch-34.png
subject-01,1,761,0.715672016143799,chair,chair,0,0761_ske_s01_0_chair_00_chair-0180-sketch-33.png
subject-01,1,762,0.738883972167969,airplane,airplane,0,0762_ske_s01_0_airplane_00_airplane-0030-sketch-35.png
subject-01,1,763,0.662805080413818,knife,knife,0,0763_ske_s01_0_knife_00_knife-0041-sketch-45.png
subject-01,1,764,0.702592849731445,keyboard,keyboard,0,0764_ske_s01_0_keyboard_00_keyboard-0035-sketch-4.png
subject-01,1,765,0.750990867614746,airplane,airplane,0,0765_ske_s01_0_airplane_00_airplane-0015-sketch-21.png
subject-01,1,766,0.930215835571289,truck,truck,0,0766_ske_s01_0_truck_00_truck-0369-sketch-19.png
subject-01,1,767,0.736241102218628,car,car,0,0767_ske_s01_0_car_00_car-0100-sketch-7.png
subject-01,1,768,0.689824104309082,truck,truck,0,0768_ske_s01_0_truck_00_truck-0157-sketch-11.png
subject-01,1,769,0.739320993423462,cat,dog,0,0769_ske_s01_0_dog_00_dog-5028-sketch-8.png
subject-01,1,770,0.513140201568604,clock,clock,0,0770_ske_s01_0_clock_00_clock-0118-sketch-22.png
subject-01,1,771,1.05507397651672,dog,bear,0,0771_ske_s01_0_bear_00_bear-0170-sketch-24.png
subject-01,1,772,0.538573980331421,boat,boat,0,0772_ske_s01_0_boat_00_boat-0113-sketch-18.png
subject-01,1,773,0.626765966415405,airplane,airplane,0,0773_ske_s01_0_airplane_00_airplane-0037-sketch-41.png
subject-01,1,774,0.432458162307739,clock,clock,0,0774_ske_s01_0_clock_00_clock-0132-sketch-35.png
subject-01,1,775,0.934062957763672,bear,bear,0,0775_ske_s01_0_bear_00_bear-0005-sketch-12.png
subject-01,1,776,0.583682060241699,bottle,bottle,0,0776_ske_s01_0_bottle_00_bottle-0135-sketch-39.png
subject-01,1,777,0.825712203979492,bear,bear,0,0777_ske_s01_0_bear_00_bear-0123-sketch-28.png
subject-01,1,778,0.711542844772339,boat,boat,0,0778_ske_s01_0_boat_00_boat-0074-sketch-29.png
subject-01,1,779,0.665406942367554,chair,chair,0,0779_ske_s01_0_chair_00_chair-0052-sketch-0.png
subject-01,1,780,0.517219066619873,clock,clock,0,0780_ske_s01_0_clock_00_clock-0027-sketch-32.png
subject-01,1,781,0.479053974151611,boat,boat,0,0781_ske_s01_0_boat_00_boat-0052-sketch-0.png
subject-01,1,782,0.653297901153564,truck,truck,0,0782_ske_s01_0_truck_00_truck-0136-sketch-39.png
subject-01,1,783,1.16058588027954,car,car,0,0783_ske_s01_0_car_00_car-0125-sketch-29.png
subject-01,1,784,0.552371025085449,bicycle,bicycle,0,0784_ske_s01_0_bicycle_00_bicycle-0002-sketch-1.png
subject-01,1,785,0.858360052108765,bird,bird,0,0785_ske_s01_0_bird_00_bird-1148-sketch-32.png
subject-01,1,786,0.570457935333252,chair,chair,0,0786_ske_s01_0_chair_00_chair-0105-sketch-11.png
subject-01,1,787,0.766239881515503,boat,chair,0,0787_ske_s01_0_chair_00_chair-0002-sketch-1.png
subject-01,1,788,0.955588817596436,dog,dog,0,0788_ske_s01_0_dog_00_dog-1460-sketch-44.png
subject-01,1,789,0.745540857315063,elephant,elephant,0,0789_ske_s01_0_elephant_00_elephant-0014-sketch-20.png
subject-01,1,790,0.573297023773193,knife,knife,0,0790_ske_s01_0_knife_00_knife-0038-sketch-42.png
subject-01,1,791,0.613213062286377,bicycle,bicycle,0,0791_ske_s01_0_bicycle_00_bicycle-0038-sketch-42.png
subject-01,1,792,0.481138944625854,airplane,airplane,0,0792_ske_s01_0_airplane_00_airplane-0007-sketch-14.png
subject-01,1,793,0.912700891494751,car,truck,0,0793_ske_s01_0_truck_00_truck-0289-sketch-39.png
subject-01,1,794,0.741734981536865,bear,bear,0,0794_ske_s01_0_bear_00_bear-0023-sketch-29.png
subject-01,1,795,0.694422960281372,cat,cat,0,0795_ske_s01_0_cat_00_cat-0302-sketch-6.png
subject-01,1,796,0.992033958435059,bird,bird,0,0796_ske_s01_0_bird_00_bird-0694-sketch-36.png
subject-01,1,797,0.91600513458252,elephant,elephant,0,0797_ske_s01_0_elephant_00_elephant-0043-sketch-47.png
subject-01,1,798,0.674016952514648,bird,bird,0,0798_ske_s01_0_bird_00_bird-0047-sketch-50.png
subject-01,1,799,1.33164596557617,dog,dog,0,0799_ske_s01_0_dog_00_dog-4325-sketch-13.png
subject-01,1,800,0.565217971801758,bottle,bottle,0,0800_ske_s01_0_bottle_00_bottle-0207-sketch-11.png
