subj,session,trial,rt,object_response,category,condition,imagename
swag_vit_b16_in1k,1,1,NaN,airplane,airplane,0,0001_ske_dnn_0_airplane_00_airplane-0001-sketch-0.png
swag_vit_b16_in1k,1,2,NaN,airplane,airplane,0,0002_ske_dnn_0_airplane_00_airplane-0002-sketch-1.png
swag_vit_b16_in1k,1,3,NaN,airplane,airplane,0,0003_ske_dnn_0_airplane_00_airplane-0003-sketch-10.png
swag_vit_b16_in1k,1,4,NaN,airplane,airplane,0,0004_ske_dnn_0_airplane_00_airplane-0004-sketch-11.png
swag_vit_b16_in1k,1,5,NaN,airplane,airplane,0,0005_ske_dnn_0_airplane_00_airplane-0005-sketch-12.png
swag_vit_b16_in1k,1,6,NaN,airplane,airplane,0,0006_ske_dnn_0_airplane_00_airplane-0006-sketch-13.png
swag_vit_b16_in1k,1,7,NaN,airplane,airplane,0,0007_ske_dnn_0_airplane_00_airplane-0007-sketch-14.png
swag_vit_b16_in1k,1,8,NaN,knife,airplane,0,0008_ske_dnn_0_airplane_00_airplane-0008-sketch-15.png
swag_vit_b16_in1k,1,9,NaN,airplane,airplane,0,0009_ske_dnn_0_airplane_00_airplane-0009-sketch-16.png
swag_vit_b16_in1k,1,10,NaN,airplane,airplane,0,0010_ske_dnn_0_airplane_00_airplane-0010-sketch-17.png
swag_vit_b16_in1k,1,11,NaN,airplane,airplane,0,0011_ske_dnn_0_airplane_00_airplane-0011-sketch-18.png
swag_vit_b16_in1k,1,12,NaN,airplane,airplane,0,0012_ske_dnn_0_airplane_00_airplane-0012-sketch-19.png
swag_vit_b16_in1k,1,13,NaN,airplane,airplane,0,0013_ske_dnn_0_airplane_00_airplane-0013-sketch-2.png
swag_vit_b16_in1k,1,14,NaN,airplane,airplane,0,0014_ske_dnn_0_airplane_00_airplane-0014-sketch-20.png
swag_vit_b16_in1k,1,15,NaN,airplane,airplane,0,0015_ske_dnn_0_airplane_00_airplane-0015-sketch-21.png
swag_vit_b16_in1k,1,16,NaN,airplane,airplane,0,0016_ske_dnn_0_airplane_00_airplane-0016-sketch-22.png
swag_vit_b16_in1k,1,17,NaN,airplane,airplane,0,0017_ske_dnn_0_airplane_00_airplane-0017-sketch-23.png
swag_vit_b16_in1k,1,18,NaN,airplane,airplane,0,0018_ske_dnn_0_airplane_00_airplane-0018-sketch-24.png
swag_vit_b16_in1k,1,19,NaN,airplane,airplane,0,0019_ske_dnn_0_airplane_00_airplane-0019-sketch-25.png
swag_vit_b16_in1k,1,20,NaN,airplane,airplane,0,0020_ske_dnn_0_airplane_00_airplane-0020-sketch-26.png
swag_vit_b16_in1k,1,21,NaN,airplane,airplane,0,0021_ske_dnn_0_airplane_00_airplane-0021-sketch-27.png
swag_vit_b16_in1k,1,22,NaN,airplane,airplane,0,0022_ske_dnn_0_airplane_00_airplane-0022-sketch-28.png
swag_vit_b16_in1k,1,23,NaN,airplane,airplane,0,0023_ske_dnn_0_airplane_00_airplane-0023-sketch-29.png
swag_vit_b16_in1k,1,24,NaN,airplane,airplane,0,0024_ske_dnn_0_airplane_00_airplane-0024-sketch-3.png
swag_vit_b16_in1k,1,25,NaN,airplane,airplane,0,0025_ske_dnn_0_airplane_00_airplane-0025-sketch-30.png
swag_vit_b16_in1k,1,26,NaN,airplane,airplane,0,0026_ske_dnn_0_airplane_00_airplane-0027-sketch-32.png
swag_vit_b16_in1k,1,27,NaN,airplane,airplane,0,0027_ske_dnn_0_airplane_00_airplane-0028-sketch-33.png
swag_vit_b16_in1k,1,28,NaN,airplane,airplane,0,0028_ske_dnn_0_airplane_00_airplane-0029-sketch-34.png
swag_vit_b16_in1k,1,29,NaN,airplane,airplane,0,0029_ske_dnn_0_airplane_00_airplane-0030-sketch-35.png
swag_vit_b16_in1k,1,30,NaN,airplane,airplane,0,0030_ske_dnn_0_airplane_00_airplane-0031-sketch-36.png
swag_vit_b16_in1k,1,31,NaN,airplane,airplane,0,0031_ske_dnn_0_airplane_00_airplane-0032-sketch-37.png
swag_vit_b16_in1k,1,32,NaN,airplane,airplane,0,0032_ske_dnn_0_airplane_00_airplane-0033-sketch-38.png
swag_vit_b16_in1k,1,33,NaN,airplane,airplane,0,0033_ske_dnn_0_airplane_00_airplane-0034-sketch-39.png
swag_vit_b16_in1k,1,34,NaN,airplane,airplane,0,0034_ske_dnn_0_airplane_00_airplane-0035-sketch-4.png
swag_vit_b16_in1k,1,35,NaN,airplane,airplane,0,0035_ske_dnn_0_airplane_00_airplane-0036-sketch-40.png
swag_vit_b16_in1k,1,36,NaN,airplane,airplane,0,0036_ske_dnn_0_airplane_00_airplane-0037-sketch-41.png
swag_vit_b16_in1k,1,37,NaN,airplane,airplane,0,0037_ske_dnn_0_airplane_00_airplane-0038-sketch-42.png
swag_vit_b16_in1k,1,38,NaN,airplane,airplane,0,0038_ske_dnn_0_airplane_00_airplane-0039-sketch-43.png
swag_vit_b16_in1k,1,39,NaN,airplane,airplane,0,0039_ske_dnn_0_airplane_00_airplane-0040-sketch-44.png
swag_vit_b16_in1k,1,40,NaN,airplane,airplane,0,0040_ske_dnn_0_airplane_00_airplane-0041-sketch-45.png
swag_vit_b16_in1k,1,41,NaN,airplane,airplane,0,0041_ske_dnn_0_airplane_00_airplane-0042-sketch-46.png
swag_vit_b16_in1k,1,42,NaN,airplane,airplane,0,0042_ske_dnn_0_airplane_00_airplane-0043-sketch-47.png
swag_vit_b16_in1k,1,43,NaN,airplane,airplane,0,0043_ske_dnn_0_airplane_00_airplane-0044-sketch-48.png
swag_vit_b16_in1k,1,44,NaN,airplane,airplane,0,0044_ske_dnn_0_airplane_00_airplane-0045-sketch-49.png
swag_vit_b16_in1k,1,45,NaN,airplane,airplane,0,0045_ske_dnn_0_airplane_00_airplane-0046-sketch-5.png
swag_vit_b16_in1k,1,46,NaN,airplane,airplane,0,0046_ske_dnn_0_airplane_00_airplane-0047-sketch-50.png
swag_vit_b16_in1k,1,47,NaN,airplane,airplane,0,0047_ske_dnn_0_airplane_00_airplane-0048-sketch-6.png
swag_vit_b16_in1k,1,48,NaN,airplane,airplane,0,0048_ske_dnn_0_airplane_00_airplane-0049-sketch-7.png
swag_vit_b16_in1k,1,49,NaN,airplane,airplane,0,0049_ske_dnn_0_airplane_00_airplane-0050-sketch-8.png
swag_vit_b16_in1k,1,50,NaN,airplane,airplane,0,0050_ske_dnn_0_airplane_00_airplane-0051-sketch-9.png
swag_vit_b16_in1k,1,51,NaN,bear,bear,0,0051_ske_dnn_0_bear_00_bear-0005-sketch-12.png
swag_vit_b16_in1k,1,52,NaN,bear,bear,0,0052_ske_dnn_0_bear_00_bear-0007-sketch-14.png
swag_vit_b16_in1k,1,53,NaN,bear,bear,0,0053_ske_dnn_0_bear_00_bear-0017-sketch-23.png
swag_vit_b16_in1k,1,54,NaN,bear,bear,0,0054_ske_dnn_0_bear_00_bear-0022-sketch-28.png
swag_vit_b16_in1k,1,55,NaN,bear,bear,0,0055_ske_dnn_0_bear_00_bear-0023-sketch-29.png
swag_vit_b16_in1k,1,56,NaN,bear,bear,0,0056_ske_dnn_0_bear_00_bear-0026-sketch-31.png
swag_vit_b16_in1k,1,57,NaN,bear,bear,0,0057_ske_dnn_0_bear_00_bear-0027-sketch-32.png
swag_vit_b16_in1k,1,58,NaN,bear,bear,0,0058_ske_dnn_0_bear_00_bear-0030-sketch-35.png
swag_vit_b16_in1k,1,59,NaN,bear,bear,0,0059_ske_dnn_0_bear_00_bear-0033-sketch-38.png
swag_vit_b16_in1k,1,60,NaN,bear,bear,0,0060_ske_dnn_0_bear_00_bear-0036-sketch-40.png
swag_vit_b16_in1k,1,61,NaN,bear,bear,0,0061_ske_dnn_0_bear_00_bear-0037-sketch-41.png
swag_vit_b16_in1k,1,62,NaN,bear,bear,0,0062_ske_dnn_0_bear_00_bear-0038-sketch-42.png
swag_vit_b16_in1k,1,63,NaN,bear,bear,0,0063_ske_dnn_0_bear_00_bear-0039-sketch-43.png
swag_vit_b16_in1k,1,64,NaN,bear,bear,0,0064_ske_dnn_0_bear_00_bear-0041-sketch-45.png
swag_vit_b16_in1k,1,65,NaN,bear,bear,0,0065_ske_dnn_0_bear_00_bear-0045-sketch-49.png
swag_vit_b16_in1k,1,66,NaN,bear,bear,0,0066_ske_dnn_0_bear_00_bear-0048-sketch-7.png
swag_vit_b16_in1k,1,67,NaN,bear,bear,0,0067_ske_dnn_0_bear_00_bear-0049-sketch-8.png
swag_vit_b16_in1k,1,68,NaN,bear,bear,0,0068_ske_dnn_0_bear_00_bear-0053-sketch-10.png
swag_vit_b16_in1k,1,69,NaN,bear,bear,0,0069_ske_dnn_0_bear_00_bear-0059-sketch-16.png
swag_vit_b16_in1k,1,70,NaN,bear,bear,0,0070_ske_dnn_0_bear_00_bear-0068-sketch-24.png
swag_vit_b16_in1k,1,71,NaN,bear,bear,0,0071_ske_dnn_0_bear_00_bear-0070-sketch-26.png
swag_vit_b16_in1k,1,72,NaN,bear,bear,0,0072_ske_dnn_0_bear_00_bear-0073-sketch-29.png
swag_vit_b16_in1k,1,73,NaN,bear,bear,0,0073_ske_dnn_0_bear_00_bear-0079-sketch-34.png
swag_vit_b16_in1k,1,74,NaN,bear,bear,0,0074_ske_dnn_0_bear_00_bear-0081-sketch-36.png
swag_vit_b16_in1k,1,75,NaN,bear,bear,0,0075_ske_dnn_0_bear_00_bear-0085-sketch-4.png
swag_vit_b16_in1k,1,76,NaN,bear,bear,0,0076_ske_dnn_0_bear_00_bear-0086-sketch-40.png
swag_vit_b16_in1k,1,77,NaN,bear,bear,0,0077_ske_dnn_0_bear_00_bear-0087-sketch-41.png
swag_vit_b16_in1k,1,78,NaN,bear,bear,0,0078_ske_dnn_0_bear_00_bear-0090-sketch-44.png
swag_vit_b16_in1k,1,79,NaN,bear,bear,0,0079_ske_dnn_0_bear_00_bear-0103-sketch-1.png
swag_vit_b16_in1k,1,80,NaN,bear,bear,0,0080_ske_dnn_0_bear_00_bear-0107-sketch-13.png
swag_vit_b16_in1k,1,81,NaN,bear,bear,0,0081_ske_dnn_0_bear_00_bear-0110-sketch-16.png
swag_vit_b16_in1k,1,82,NaN,bear,bear,0,0082_ske_dnn_0_bear_00_bear-0112-sketch-18.png
swag_vit_b16_in1k,1,83,NaN,bear,bear,0,0083_ske_dnn_0_bear_00_bear-0117-sketch-22.png
swag_vit_b16_in1k,1,84,NaN,bear,bear,0,0084_ske_dnn_0_bear_00_bear-0123-sketch-28.png
swag_vit_b16_in1k,1,85,NaN,knife,bear,0,0085_ske_dnn_0_bear_00_bear-0135-sketch-39.png
swag_vit_b16_in1k,1,86,NaN,bear,bear,0,0086_ske_dnn_0_bear_00_bear-0136-sketch-4.png
swag_vit_b16_in1k,1,87,NaN,bear,bear,0,0087_ske_dnn_0_bear_00_bear-0137-sketch-40.png
swag_vit_b16_in1k,1,88,NaN,bear,bear,0,0088_ske_dnn_0_bear_00_bear-0148-sketch-50.png
swag_vit_b16_in1k,1,89,NaN,bear,bear,0,0089_ske_dnn_0_bear_00_bear-0149-sketch-6.png
swag_vit_b16_in1k,1,90,NaN,bear,bear,0,0090_ske_dnn_0_bear_00_bear-0161-sketch-16.png
swag_vit_b16_in1k,1,91,NaN,bear,bear,0,0091_ske_dnn_0_bear_00_bear-0166-sketch-20.png
swag_vit_b16_in1k,1,92,NaN,bear,bear,0,0092_ske_dnn_0_bear_00_bear-0170-sketch-24.png
swag_vit_b16_in1k,1,93,NaN,bear,bear,0,0093_ske_dnn_0_bear_00_bear-0171-sketch-25.png
swag_vit_b16_in1k,1,94,NaN,bear,bear,0,0094_ske_dnn_0_bear_00_bear-0179-sketch-32.png
swag_vit_b16_in1k,1,95,NaN,bear,bear,0,0095_ske_dnn_0_bear_00_bear-0187-sketch-4.png
swag_vit_b16_in1k,1,96,NaN,bear,bear,0,0096_ske_dnn_0_bear_00_bear-0188-sketch-40.png
swag_vit_b16_in1k,1,97,NaN,bear,bear,0,0097_ske_dnn_0_bear_00_bear-0195-sketch-47.png
swag_vit_b16_in1k,1,98,NaN,bear,bear,0,0098_ske_dnn_0_bear_00_bear-0198-sketch-5.png
swag_vit_b16_in1k,1,99,NaN,bear,bear,0,0099_ske_dnn_0_bear_00_bear-0199-sketch-50.png
swag_vit_b16_in1k,1,100,NaN,knife,bear,0,0100_ske_dnn_0_bear_00_bear-0201-sketch-7.png
swag_vit_b16_in1k,1,101,NaN,bicycle,bicycle,0,0101_ske_dnn_0_bicycle_00_bicycle-0002-sketch-1.png
swag_vit_b16_in1k,1,102,NaN,bicycle,bicycle,0,0102_ske_dnn_0_bicycle_00_bicycle-0003-sketch-10.png
swag_vit_b16_in1k,1,103,NaN,bicycle,bicycle,0,0103_ske_dnn_0_bicycle_00_bicycle-0004-sketch-11.png
swag_vit_b16_in1k,1,104,NaN,bicycle,bicycle,0,0104_ske_dnn_0_bicycle_00_bicycle-0008-sketch-15.png
swag_vit_b16_in1k,1,105,NaN,bicycle,bicycle,0,0105_ske_dnn_0_bicycle_00_bicycle-0011-sketch-18.png
swag_vit_b16_in1k,1,106,NaN,bicycle,bicycle,0,0106_ske_dnn_0_bicycle_00_bicycle-0013-sketch-2.png
swag_vit_b16_in1k,1,107,NaN,bicycle,bicycle,0,0107_ske_dnn_0_bicycle_00_bicycle-0016-sketch-22.png
swag_vit_b16_in1k,1,108,NaN,bicycle,bicycle,0,0108_ske_dnn_0_bicycle_00_bicycle-0019-sketch-25.png
swag_vit_b16_in1k,1,109,NaN,bicycle,bicycle,0,0109_ske_dnn_0_bicycle_00_bicycle-0020-sketch-26.png
swag_vit_b16_in1k,1,110,NaN,bicycle,bicycle,0,0110_ske_dnn_0_bicycle_00_bicycle-0022-sketch-28.png
swag_vit_b16_in1k,1,111,NaN,bicycle,bicycle,0,0111_ske_dnn_0_bicycle_00_bicycle-0023-sketch-29.png
swag_vit_b16_in1k,1,112,NaN,bicycle,bicycle,0,0112_ske_dnn_0_bicycle_00_bicycle-0025-sketch-30.png
swag_vit_b16_in1k,1,113,NaN,bicycle,bicycle,0,0113_ske_dnn_0_bicycle_00_bicycle-0026-sketch-31.png
swag_vit_b16_in1k,1,114,NaN,bicycle,bicycle,0,0114_ske_dnn_0_bicycle_00_bicycle-0031-sketch-36.png
swag_vit_b16_in1k,1,115,NaN,clock,bicycle,0,0115_ske_dnn_0_bicycle_00_bicycle-0034-sketch-39.png
swag_vit_b16_in1k,1,116,NaN,bicycle,bicycle,0,0116_ske_dnn_0_bicycle_00_bicycle-0037-sketch-41.png
swag_vit_b16_in1k,1,117,NaN,bicycle,bicycle,0,0117_ske_dnn_0_bicycle_00_bicycle-0038-sketch-42.png
swag_vit_b16_in1k,1,118,NaN,bicycle,bicycle,0,0118_ske_dnn_0_bicycle_00_bicycle-0039-sketch-43.png
swag_vit_b16_in1k,1,119,NaN,bicycle,bicycle,0,0119_ske_dnn_0_bicycle_00_bicycle-0040-sketch-44.png
swag_vit_b16_in1k,1,120,NaN,bicycle,bicycle,0,0120_ske_dnn_0_bicycle_00_bicycle-0044-sketch-48.png
swag_vit_b16_in1k,1,121,NaN,bicycle,bicycle,0,0121_ske_dnn_0_bicycle_00_bicycle-0045-sketch-49.png
swag_vit_b16_in1k,1,122,NaN,bicycle,bicycle,0,0122_ske_dnn_0_bicycle_00_bicycle-0046-sketch-5.png
swag_vit_b16_in1k,1,123,NaN,bicycle,bicycle,0,0123_ske_dnn_0_bicycle_00_bicycle-0047-sketch-50.png
swag_vit_b16_in1k,1,124,NaN,bicycle,bicycle,0,0124_ske_dnn_0_bicycle_00_bicycle-0048-sketch-6.png
swag_vit_b16_in1k,1,125,NaN,bicycle,bicycle,0,0125_ske_dnn_0_bicycle_00_bicycle-0053-sketch-1.png
swag_vit_b16_in1k,1,126,NaN,bicycle,bicycle,0,0126_ske_dnn_0_bicycle_00_bicycle-0054-sketch-10.png
swag_vit_b16_in1k,1,127,NaN,bicycle,bicycle,0,0127_ske_dnn_0_bicycle_00_bicycle-0056-sketch-12.png
swag_vit_b16_in1k,1,128,NaN,bicycle,bicycle,0,0128_ske_dnn_0_bicycle_00_bicycle-0057-sketch-13.png
swag_vit_b16_in1k,1,129,NaN,bicycle,bicycle,0,0129_ske_dnn_0_bicycle_00_bicycle-0058-sketch-14.png
swag_vit_b16_in1k,1,130,NaN,bicycle,bicycle,0,0130_ske_dnn_0_bicycle_00_bicycle-0059-sketch-15.png
swag_vit_b16_in1k,1,131,NaN,bicycle,bicycle,0,0131_ske_dnn_0_bicycle_00_bicycle-0060-sketch-16.png
swag_vit_b16_in1k,1,132,NaN,bicycle,bicycle,0,0132_ske_dnn_0_bicycle_00_bicycle-0062-sketch-18.png
swag_vit_b16_in1k,1,133,NaN,bicycle,bicycle,0,0133_ske_dnn_0_bicycle_00_bicycle-0066-sketch-21.png
swag_vit_b16_in1k,1,134,NaN,bicycle,bicycle,0,0134_ske_dnn_0_bicycle_00_bicycle-0068-sketch-23.png
swag_vit_b16_in1k,1,135,NaN,bicycle,bicycle,0,0135_ske_dnn_0_bicycle_00_bicycle-0070-sketch-25.png
swag_vit_b16_in1k,1,136,NaN,bicycle,bicycle,0,0136_ske_dnn_0_bicycle_00_bicycle-0071-sketch-26.png
swag_vit_b16_in1k,1,137,NaN,bicycle,bicycle,0,0137_ske_dnn_0_bicycle_00_bicycle-0075-sketch-3.png
swag_vit_b16_in1k,1,138,NaN,bicycle,bicycle,0,0138_ske_dnn_0_bicycle_00_bicycle-0078-sketch-32.png
swag_vit_b16_in1k,1,139,NaN,bicycle,bicycle,0,0139_ske_dnn_0_bicycle_00_bicycle-0080-sketch-34.png
swag_vit_b16_in1k,1,140,NaN,bicycle,bicycle,0,0140_ske_dnn_0_bicycle_00_bicycle-0081-sketch-35.png
swag_vit_b16_in1k,1,141,NaN,bicycle,bicycle,0,0141_ske_dnn_0_bicycle_00_bicycle-0083-sketch-37.png
swag_vit_b16_in1k,1,142,NaN,bicycle,bicycle,0,0142_ske_dnn_0_bicycle_00_bicycle-0084-sketch-38.png
swag_vit_b16_in1k,1,143,NaN,bicycle,bicycle,0,0143_ske_dnn_0_bicycle_00_bicycle-0087-sketch-40.png
swag_vit_b16_in1k,1,144,NaN,bicycle,bicycle,0,0144_ske_dnn_0_bicycle_00_bicycle-0090-sketch-43.png
swag_vit_b16_in1k,1,145,NaN,bicycle,bicycle,0,0145_ske_dnn_0_bicycle_00_bicycle-0094-sketch-47.png
swag_vit_b16_in1k,1,146,NaN,bicycle,bicycle,0,0146_ske_dnn_0_bicycle_00_bicycle-0095-sketch-48.png
swag_vit_b16_in1k,1,147,NaN,bicycle,bicycle,0,0147_ske_dnn_0_bicycle_00_bicycle-0098-sketch-50.png
swag_vit_b16_in1k,1,148,NaN,bicycle,bicycle,0,0148_ske_dnn_0_bicycle_00_bicycle-0099-sketch-6.png
swag_vit_b16_in1k,1,149,NaN,bicycle,bicycle,0,0149_ske_dnn_0_bicycle_00_bicycle-0101-sketch-8.png
swag_vit_b16_in1k,1,150,NaN,bicycle,bicycle,0,0150_ske_dnn_0_bicycle_00_bicycle-0102-sketch-9.png
swag_vit_b16_in1k,1,151,NaN,bird,bird,0,0151_ske_dnn_0_bird_00_bird-0030-sketch-35.png
swag_vit_b16_in1k,1,152,NaN,bird,bird,0,0152_ske_dnn_0_bird_00_bird-0047-sketch-50.png
swag_vit_b16_in1k,1,153,NaN,bird,bird,0,0153_ske_dnn_0_bird_00_bird-0072-sketch-27.png
swag_vit_b16_in1k,1,154,NaN,bird,bird,0,0154_ske_dnn_0_bird_00_bird-0228-sketch-3.png
swag_vit_b16_in1k,1,155,NaN,bird,bird,0,0155_ske_dnn_0_bird_00_bird-0274-sketch-25.png
swag_vit_b16_in1k,1,156,NaN,bird,bird,0,0156_ske_dnn_0_bird_00_bird-0292-sketch-41.png
swag_vit_b16_in1k,1,157,NaN,bird,bird,0,0157_ske_dnn_0_bird_00_bird-0316-sketch-17.png
swag_vit_b16_in1k,1,158,NaN,knife,bird,0,0158_ske_dnn_0_bird_00_bird-0325-sketch-25.png
swag_vit_b16_in1k,1,159,NaN,bird,bird,0,0159_ske_dnn_0_bird_00_bird-0357-sketch-9.png
swag_vit_b16_in1k,1,160,NaN,bird,bird,0,0160_ske_dnn_0_bird_00_bird-0384-sketch-32.png
swag_vit_b16_in1k,1,161,NaN,bird,bird,0,0161_ske_dnn_0_bird_00_bird-0415-sketch-14.png
swag_vit_b16_in1k,1,162,NaN,bird,bird,0,0162_ske_dnn_0_bird_00_bird-0474-sketch-21.png
swag_vit_b16_in1k,1,163,NaN,bird,bird,0,0163_ske_dnn_0_bird_00_bird-0479-sketch-26.png
swag_vit_b16_in1k,1,164,NaN,bird,bird,0,0164_ske_dnn_0_bird_00_bird-0491-sketch-37.png
swag_vit_b16_in1k,1,165,NaN,bird,bird,0,0165_ske_dnn_0_bird_00_bird-0578-sketch-23.png
swag_vit_b16_in1k,1,166,NaN,knife,bird,0,0166_ske_dnn_0_bird_00_bird-0640-sketch-33.png
swag_vit_b16_in1k,1,167,NaN,bird,bird,0,0167_ske_dnn_0_bird_00_bird-0646-sketch-39.png
swag_vit_b16_in1k,1,168,NaN,bird,bird,0,0168_ske_dnn_0_bird_00_bird-0685-sketch-28.png
swag_vit_b16_in1k,1,169,NaN,bird,bird,0,0169_ske_dnn_0_bird_00_bird-0694-sketch-36.png
swag_vit_b16_in1k,1,170,NaN,bird,bird,0,0170_ske_dnn_0_bird_00_bird-0733-sketch-25.png
swag_vit_b16_in1k,1,171,NaN,bird,bird,0,0171_ske_dnn_0_bird_00_bird-0748-sketch-39.png
swag_vit_b16_in1k,1,172,NaN,bird,bird,0,0172_ske_dnn_0_bird_00_bird-0749-sketch-4.png
swag_vit_b16_in1k,1,173,NaN,bird,bird,0,0173_ske_dnn_0_bird_00_bird-0809-sketch-48.png
swag_vit_b16_in1k,1,174,NaN,bird,bird,0,0174_ske_dnn_0_bird_00_bird-0834-sketch-24.png
swag_vit_b16_in1k,1,175,NaN,bird,bird,0,0175_ske_dnn_0_bird_00_bird-0880-sketch-2.png
swag_vit_b16_in1k,1,176,NaN,bird,bird,0,0176_ske_dnn_0_bird_00_bird-0939-sketch-27.png
swag_vit_b16_in1k,1,177,NaN,bird,bird,0,0177_ske_dnn_0_bird_00_bird-0954-sketch-40.png
swag_vit_b16_in1k,1,178,NaN,bird,bird,0,0178_ske_dnn_0_bird_00_bird-1033-sketch-20.png
swag_vit_b16_in1k,1,179,NaN,bird,bird,0,0179_ske_dnn_0_bird_00_bird-1081-sketch-18.png
swag_vit_b16_in1k,1,180,NaN,knife,bird,0,0180_ske_dnn_0_bird_00_bird-1096-sketch-31.png
swag_vit_b16_in1k,1,181,NaN,bird,bird,0,0181_ske_dnn_0_bird_00_bird-1148-sketch-32.png
swag_vit_b16_in1k,1,182,NaN,bird,bird,0,0182_ske_dnn_0_bird_00_bird-1201-sketch-34.png
swag_vit_b16_in1k,1,183,NaN,bird,bird,0,0183_ske_dnn_0_bird_00_bird-1342-sketch-24.png
swag_vit_b16_in1k,1,184,NaN,bird,bird,0,0184_ske_dnn_0_bird_00_bird-1510-sketch-39.png
swag_vit_b16_in1k,1,185,NaN,bird,bird,0,0185_ske_dnn_0_bird_00_bird-1562-sketch-40.png
swag_vit_b16_in1k,1,186,NaN,bird,bird,0,0186_ske_dnn_0_bird_00_bird-1565-sketch-43.png
swag_vit_b16_in1k,1,187,NaN,bicycle,bird,0,0187_ske_dnn_0_bird_00_bird-1702-sketch-29.png
swag_vit_b16_in1k,1,188,NaN,bird,bird,0,0188_ske_dnn_0_bird_00_bird-1721-sketch-46.png
swag_vit_b16_in1k,1,189,NaN,bird,bird,0,0189_ske_dnn_0_bird_00_bird-1740-sketch-17.png
swag_vit_b16_in1k,1,190,NaN,bird,bird,0,0190_ske_dnn_0_bird_00_bird-1749-sketch-25.png
swag_vit_b16_in1k,1,191,NaN,clock,bird,0,0191_ske_dnn_0_bird_00_bird-1756-sketch-31.png
swag_vit_b16_in1k,1,192,NaN,bird,bird,0,0192_ske_dnn_0_bird_00_bird-1860-sketch-33.png
swag_vit_b16_in1k,1,193,NaN,bird,bird,0,0193_ske_dnn_0_bird_00_bird-1937-sketch-10.png
swag_vit_b16_in1k,1,194,NaN,bird,bird,0,0194_ske_dnn_0_bird_00_bird-1948-sketch-20.png
swag_vit_b16_in1k,1,195,NaN,bird,bird,0,0195_ske_dnn_0_bird_00_bird-2010-sketch-30.png
swag_vit_b16_in1k,1,196,NaN,bird,bird,0,0196_ske_dnn_0_bird_00_bird-2169-sketch-36.png
swag_vit_b16_in1k,1,197,NaN,bird,bird,0,0197_ske_dnn_0_bird_00_bird-2262-sketch-28.png
swag_vit_b16_in1k,1,198,NaN,knife,bird,0,0198_ske_dnn_0_bird_00_bird-2312-sketch-27.png
swag_vit_b16_in1k,1,199,NaN,bird,bird,0,0199_ske_dnn_0_bird_00_bird-2313-sketch-28.png
swag_vit_b16_in1k,1,200,NaN,bird,bird,0,0200_ske_dnn_0_bird_00_bird-2372-sketch-36.png
swag_vit_b16_in1k,1,201,NaN,boat,boat,0,0201_ske_dnn_0_boat_00_boat-0001-sketch-0.png
swag_vit_b16_in1k,1,202,NaN,boat,boat,0,0202_ske_dnn_0_boat_00_boat-0002-sketch-1.png
swag_vit_b16_in1k,1,203,NaN,boat,boat,0,0203_ske_dnn_0_boat_00_boat-0010-sketch-17.png
swag_vit_b16_in1k,1,204,NaN,oven,boat,0,0204_ske_dnn_0_boat_00_boat-0016-sketch-22.png
swag_vit_b16_in1k,1,205,NaN,chair,boat,0,0205_ske_dnn_0_boat_00_boat-0029-sketch-34.png
swag_vit_b16_in1k,1,206,NaN,knife,boat,0,0206_ske_dnn_0_boat_00_boat-0034-sketch-39.png
swag_vit_b16_in1k,1,207,NaN,boat,boat,0,0207_ske_dnn_0_boat_00_boat-0036-sketch-40.png
swag_vit_b16_in1k,1,208,NaN,boat,boat,0,0208_ske_dnn_0_boat_00_boat-0051-sketch-9.png
swag_vit_b16_in1k,1,209,NaN,boat,boat,0,0209_ske_dnn_0_boat_00_boat-0052-sketch-0.png
swag_vit_b16_in1k,1,210,NaN,boat,boat,0,0210_ske_dnn_0_boat_00_boat-0059-sketch-15.png
swag_vit_b16_in1k,1,211,NaN,oven,boat,0,0211_ske_dnn_0_boat_00_boat-0064-sketch-2.png
swag_vit_b16_in1k,1,212,NaN,boat,boat,0,0212_ske_dnn_0_boat_00_boat-0065-sketch-20.png
swag_vit_b16_in1k,1,213,NaN,boat,boat,0,0213_ske_dnn_0_boat_00_boat-0067-sketch-22.png
swag_vit_b16_in1k,1,214,NaN,knife,boat,0,0214_ske_dnn_0_boat_00_boat-0068-sketch-23.png
swag_vit_b16_in1k,1,215,NaN,boat,boat,0,0215_ske_dnn_0_boat_00_boat-0070-sketch-25.png
swag_vit_b16_in1k,1,216,NaN,boat,boat,0,0216_ske_dnn_0_boat_00_boat-0074-sketch-29.png
swag_vit_b16_in1k,1,217,NaN,clock,boat,0,0217_ske_dnn_0_boat_00_boat-0079-sketch-33.png
swag_vit_b16_in1k,1,218,NaN,boat,boat,0,0218_ske_dnn_0_boat_00_boat-0080-sketch-34.png
swag_vit_b16_in1k,1,219,NaN,boat,boat,0,0219_ske_dnn_0_boat_00_boat-0085-sketch-39.png
swag_vit_b16_in1k,1,220,NaN,boat,boat,0,0220_ske_dnn_0_boat_00_boat-0088-sketch-41.png
swag_vit_b16_in1k,1,221,NaN,boat,boat,0,0221_ske_dnn_0_boat_00_boat-0094-sketch-47.png
swag_vit_b16_in1k,1,222,NaN,boat,boat,0,0222_ske_dnn_0_boat_00_boat-0099-sketch-6.png
swag_vit_b16_in1k,1,223,NaN,airplane,boat,0,0223_ske_dnn_0_boat_00_boat-0107-sketch-12.png
swag_vit_b16_in1k,1,224,NaN,boat,boat,0,0224_ske_dnn_0_boat_00_boat-0108-sketch-13.png
swag_vit_b16_in1k,1,225,NaN,knife,boat,0,0225_ske_dnn_0_boat_00_boat-0110-sketch-15.png
swag_vit_b16_in1k,1,226,NaN,boat,boat,0,0226_ske_dnn_0_boat_00_boat-0113-sketch-18.png
swag_vit_b16_in1k,1,227,NaN,knife,boat,0,0227_ske_dnn_0_boat_00_boat-0115-sketch-2.png
swag_vit_b16_in1k,1,228,NaN,boat,boat,0,0228_ske_dnn_0_boat_00_boat-0123-sketch-27.png
swag_vit_b16_in1k,1,229,NaN,knife,boat,0,0229_ske_dnn_0_boat_00_boat-0124-sketch-28.png
swag_vit_b16_in1k,1,230,NaN,boat,boat,0,0230_ske_dnn_0_boat_00_boat-0125-sketch-29.png
swag_vit_b16_in1k,1,231,NaN,boat,boat,0,0231_ske_dnn_0_boat_00_boat-0126-sketch-3.png
swag_vit_b16_in1k,1,232,NaN,airplane,boat,0,0232_ske_dnn_0_boat_00_boat-0128-sketch-31.png
swag_vit_b16_in1k,1,233,NaN,boat,boat,0,0233_ske_dnn_0_boat_00_boat-0130-sketch-33.png
swag_vit_b16_in1k,1,234,NaN,airplane,boat,0,0234_ske_dnn_0_boat_00_boat-0132-sketch-35.png
swag_vit_b16_in1k,1,235,NaN,airplane,boat,0,0235_ske_dnn_0_boat_00_boat-0146-sketch-48.png
swag_vit_b16_in1k,1,236,NaN,knife,boat,0,0236_ske_dnn_0_boat_00_boat-0152-sketch-8.png
swag_vit_b16_in1k,1,237,NaN,boat,boat,0,0237_ske_dnn_0_boat_00_boat-0165-sketch-19.png
swag_vit_b16_in1k,1,238,NaN,boat,boat,0,0238_ske_dnn_0_boat_00_boat-0166-sketch-2.png
swag_vit_b16_in1k,1,239,NaN,boat,boat,0,0239_ske_dnn_0_boat_00_boat-0173-sketch-26.png
swag_vit_b16_in1k,1,240,NaN,boat,boat,0,0240_ske_dnn_0_boat_00_boat-0178-sketch-30.png
swag_vit_b16_in1k,1,241,NaN,boat,boat,0,0241_ske_dnn_0_boat_00_boat-0180-sketch-32.png
swag_vit_b16_in1k,1,242,NaN,boat,boat,0,0242_ske_dnn_0_boat_00_boat-0194-sketch-45.png
swag_vit_b16_in1k,1,243,NaN,boat,boat,0,0243_ske_dnn_0_boat_00_boat-0197-sketch-48.png
swag_vit_b16_in1k,1,244,NaN,boat,boat,0,0244_ske_dnn_0_boat_00_boat-0212-sketch-15.png
swag_vit_b16_in1k,1,245,NaN,boat,boat,0,0245_ske_dnn_0_boat_00_boat-0228-sketch-3.png
swag_vit_b16_in1k,1,246,NaN,boat,boat,0,0246_ske_dnn_0_boat_00_boat-0233-sketch-34.png
swag_vit_b16_in1k,1,247,NaN,boat,boat,0,0247_ske_dnn_0_boat_00_boat-0234-sketch-35.png
swag_vit_b16_in1k,1,248,NaN,boat,boat,0,0248_ske_dnn_0_boat_00_boat-0237-sketch-38.png
swag_vit_b16_in1k,1,249,NaN,boat,boat,0,0249_ske_dnn_0_boat_00_boat-0239-sketch-4.png
swag_vit_b16_in1k,1,250,NaN,boat,boat,0,0250_ske_dnn_0_boat_00_boat-0253-sketch-7.png
swag_vit_b16_in1k,1,251,NaN,bottle,bottle,0,0251_ske_dnn_0_bottle_00_bottle-0002-sketch-1.png
swag_vit_b16_in1k,1,252,NaN,bottle,bottle,0,0252_ske_dnn_0_bottle_00_bottle-0003-sketch-10.png
swag_vit_b16_in1k,1,253,NaN,bottle,bottle,0,0253_ske_dnn_0_bottle_00_bottle-0019-sketch-25.png
swag_vit_b16_in1k,1,254,NaN,bottle,bottle,0,0254_ske_dnn_0_bottle_00_bottle-0030-sketch-35.png
swag_vit_b16_in1k,1,255,NaN,bottle,bottle,0,0255_ske_dnn_0_bottle_00_bottle-0031-sketch-36.png
swag_vit_b16_in1k,1,256,NaN,bottle,bottle,0,0256_ske_dnn_0_bottle_00_bottle-0038-sketch-42.png
swag_vit_b16_in1k,1,257,NaN,bottle,bottle,0,0257_ske_dnn_0_bottle_00_bottle-0039-sketch-43.png
swag_vit_b16_in1k,1,258,NaN,bottle,bottle,0,0258_ske_dnn_0_bottle_00_bottle-0041-sketch-45.png
swag_vit_b16_in1k,1,259,NaN,bottle,bottle,0,0259_ske_dnn_0_bottle_00_bottle-0045-sketch-49.png
swag_vit_b16_in1k,1,260,NaN,bottle,bottle,0,0260_ske_dnn_0_bottle_00_bottle-0050-sketch-9.png
swag_vit_b16_in1k,1,261,NaN,bottle,bottle,0,0261_ske_dnn_0_bottle_00_bottle-0054-sketch-11.png
swag_vit_b16_in1k,1,262,NaN,bottle,bottle,0,0262_ske_dnn_0_bottle_00_bottle-0066-sketch-22.png
swag_vit_b16_in1k,1,263,NaN,bottle,bottle,0,0263_ske_dnn_0_bottle_00_bottle-0071-sketch-27.png
swag_vit_b16_in1k,1,264,NaN,bottle,bottle,0,0264_ske_dnn_0_bottle_00_bottle-0082-sketch-37.png
swag_vit_b16_in1k,1,265,NaN,bottle,bottle,0,0265_ske_dnn_0_bottle_00_bottle-0086-sketch-40.png
swag_vit_b16_in1k,1,266,NaN,bottle,bottle,0,0266_ske_dnn_0_bottle_00_bottle-0090-sketch-44.png
swag_vit_b16_in1k,1,267,NaN,bottle,bottle,0,0267_ske_dnn_0_bottle_00_bottle-0097-sketch-50.png
swag_vit_b16_in1k,1,268,NaN,bottle,bottle,0,0268_ske_dnn_0_bottle_00_bottle-0107-sketch-13.png
swag_vit_b16_in1k,1,269,NaN,bottle,bottle,0,0269_ske_dnn_0_bottle_00_bottle-0114-sketch-2.png
swag_vit_b16_in1k,1,270,NaN,bottle,bottle,0,0270_ske_dnn_0_bottle_00_bottle-0126-sketch-30.png
swag_vit_b16_in1k,1,271,NaN,bottle,bottle,0,0271_ske_dnn_0_bottle_00_bottle-0130-sketch-34.png
swag_vit_b16_in1k,1,272,NaN,bottle,bottle,0,0272_ske_dnn_0_bottle_00_bottle-0131-sketch-35.png
swag_vit_b16_in1k,1,273,NaN,bottle,bottle,0,0273_ske_dnn_0_bottle_00_bottle-0133-sketch-37.png
swag_vit_b16_in1k,1,274,NaN,knife,bottle,0,0274_ske_dnn_0_bottle_00_bottle-0135-sketch-39.png
swag_vit_b16_in1k,1,275,NaN,bottle,bottle,0,0275_ske_dnn_0_bottle_00_bottle-0143-sketch-46.png
swag_vit_b16_in1k,1,276,NaN,bottle,bottle,0,0276_ske_dnn_0_bottle_00_bottle-0145-sketch-48.png
swag_vit_b16_in1k,1,277,NaN,bottle,bottle,0,0277_ske_dnn_0_bottle_00_bottle-0150-sketch-7.png
swag_vit_b16_in1k,1,278,NaN,bottle,bottle,0,0278_ske_dnn_0_bottle_00_bottle-0162-sketch-17.png
swag_vit_b16_in1k,1,279,NaN,bottle,bottle,0,0279_ske_dnn_0_bottle_00_bottle-0165-sketch-2.png
swag_vit_b16_in1k,1,280,NaN,bottle,bottle,0,0280_ske_dnn_0_bottle_00_bottle-0184-sketch-37.png
swag_vit_b16_in1k,1,281,NaN,bottle,bottle,0,0281_ske_dnn_0_bottle_00_bottle-0185-sketch-38.png
swag_vit_b16_in1k,1,282,NaN,bottle,bottle,0,0282_ske_dnn_0_bottle_00_bottle-0189-sketch-41.png
swag_vit_b16_in1k,1,283,NaN,bottle,bottle,0,0283_ske_dnn_0_bottle_00_bottle-0202-sketch-8.png
swag_vit_b16_in1k,1,284,NaN,bottle,bottle,0,0284_ske_dnn_0_bottle_00_bottle-0207-sketch-11.png
swag_vit_b16_in1k,1,285,NaN,bottle,bottle,0,0285_ske_dnn_0_bottle_00_bottle-0215-sketch-19.png
swag_vit_b16_in1k,1,286,NaN,knife,bottle,0,0286_ske_dnn_0_bottle_00_bottle-0217-sketch-20.png
swag_vit_b16_in1k,1,287,NaN,bottle,bottle,0,0287_ske_dnn_0_bottle_00_bottle-0237-sketch-39.png
swag_vit_b16_in1k,1,288,NaN,bottle,bottle,0,0288_ske_dnn_0_bottle_00_bottle-0243-sketch-44.png
swag_vit_b16_in1k,1,289,NaN,bottle,bottle,0,0289_ske_dnn_0_bottle_00_bottle-0245-sketch-46.png
swag_vit_b16_in1k,1,290,NaN,bottle,bottle,0,0290_ske_dnn_0_bottle_00_bottle-0268-sketch-20.png
swag_vit_b16_in1k,1,291,NaN,bottle,bottle,0,0291_ske_dnn_0_bottle_00_bottle-0280-sketch-31.png
swag_vit_b16_in1k,1,292,NaN,bottle,bottle,0,0292_ske_dnn_0_bottle_00_bottle-0292-sketch-42.png
swag_vit_b16_in1k,1,293,NaN,bottle,bottle,0,0293_ske_dnn_0_bottle_00_bottle-0294-sketch-44.png
swag_vit_b16_in1k,1,294,NaN,bottle,bottle,0,0294_ske_dnn_0_bottle_00_bottle-0296-sketch-46.png
swag_vit_b16_in1k,1,295,NaN,bottle,bottle,0,0295_ske_dnn_0_bottle_00_bottle-0301-sketch-50.png
swag_vit_b16_in1k,1,296,NaN,bottle,bottle,0,0296_ske_dnn_0_bottle_00_bottle-0305-sketch-9.png
swag_vit_b16_in1k,1,297,NaN,bottle,bottle,0,0297_ske_dnn_0_bottle_00_bottle-0313-sketch-15.png
swag_vit_b16_in1k,1,298,NaN,bottle,bottle,0,0298_ske_dnn_0_bottle_00_bottle-0321-sketch-22.png
swag_vit_b16_in1k,1,299,NaN,bottle,bottle,0,0299_ske_dnn_0_bottle_00_bottle-0330-sketch-30.png
swag_vit_b16_in1k,1,300,NaN,bottle,bottle,0,0300_ske_dnn_0_bottle_00_bottle-0338-sketch-38.png
swag_vit_b16_in1k,1,301,NaN,car,car,0,0301_ske_dnn_0_car_00_car-0002-sketch-1.png
swag_vit_b16_in1k,1,302,NaN,car,car,0,0302_ske_dnn_0_car_00_car-0004-sketch-11.png
swag_vit_b16_in1k,1,303,NaN,car,car,0,0303_ske_dnn_0_car_00_car-0005-sketch-12.png
swag_vit_b16_in1k,1,304,NaN,car,car,0,0304_ske_dnn_0_car_00_car-0009-sketch-16.png
swag_vit_b16_in1k,1,305,NaN,car,car,0,0305_ske_dnn_0_car_00_car-0013-sketch-2.png
swag_vit_b16_in1k,1,306,NaN,car,car,0,0306_ske_dnn_0_car_00_car-0014-sketch-20.png
swag_vit_b16_in1k,1,307,NaN,car,car,0,0307_ske_dnn_0_car_00_car-0017-sketch-23.png
swag_vit_b16_in1k,1,308,NaN,car,car,0,0308_ske_dnn_0_car_00_car-0018-sketch-24.png
swag_vit_b16_in1k,1,309,NaN,chair,car,0,0309_ske_dnn_0_car_00_car-0021-sketch-27.png
swag_vit_b16_in1k,1,310,NaN,knife,car,0,0310_ske_dnn_0_car_00_car-0022-sketch-28.png
swag_vit_b16_in1k,1,311,NaN,car,car,0,0311_ske_dnn_0_car_00_car-0024-sketch-3.png
swag_vit_b16_in1k,1,312,NaN,oven,car,0,0312_ske_dnn_0_car_00_car-0025-sketch-30.png
swag_vit_b16_in1k,1,313,NaN,car,car,0,0313_ske_dnn_0_car_00_car-0029-sketch-34.png
swag_vit_b16_in1k,1,314,NaN,boat,car,0,0314_ske_dnn_0_car_00_car-0030-sketch-35.png
swag_vit_b16_in1k,1,315,NaN,car,car,0,0315_ske_dnn_0_car_00_car-0032-sketch-37.png
swag_vit_b16_in1k,1,316,NaN,knife,car,0,0316_ske_dnn_0_car_00_car-0034-sketch-39.png
swag_vit_b16_in1k,1,317,NaN,car,car,0,0317_ske_dnn_0_car_00_car-0040-sketch-44.png
swag_vit_b16_in1k,1,318,NaN,car,car,0,0318_ske_dnn_0_car_00_car-0043-sketch-47.png
swag_vit_b16_in1k,1,319,NaN,car,car,0,0319_ske_dnn_0_car_00_car-0044-sketch-48.png
swag_vit_b16_in1k,1,320,NaN,car,car,0,0320_ske_dnn_0_car_00_car-0045-sketch-49.png
swag_vit_b16_in1k,1,321,NaN,car,car,0,0321_ske_dnn_0_car_00_car-0047-sketch-50.png
swag_vit_b16_in1k,1,322,NaN,truck,car,0,0322_ske_dnn_0_car_00_car-0050-sketch-8.png
swag_vit_b16_in1k,1,323,NaN,car,car,0,0323_ske_dnn_0_car_00_car-0052-sketch-0.png
swag_vit_b16_in1k,1,324,NaN,car,car,0,0324_ske_dnn_0_car_00_car-0055-sketch-11.png
swag_vit_b16_in1k,1,325,NaN,car,car,0,0325_ske_dnn_0_car_00_car-0064-sketch-2.png
swag_vit_b16_in1k,1,326,NaN,car,car,0,0326_ske_dnn_0_car_00_car-0069-sketch-24.png
swag_vit_b16_in1k,1,327,NaN,car,car,0,0327_ske_dnn_0_car_00_car-0076-sketch-30.png
swag_vit_b16_in1k,1,328,NaN,oven,car,0,0328_ske_dnn_0_car_00_car-0079-sketch-33.png
swag_vit_b16_in1k,1,329,NaN,car,car,0,0329_ske_dnn_0_car_00_car-0083-sketch-37.png
swag_vit_b16_in1k,1,330,NaN,car,car,0,0330_ske_dnn_0_car_00_car-0092-sketch-45.png
swag_vit_b16_in1k,1,331,NaN,car,car,0,0331_ske_dnn_0_car_00_car-0096-sketch-49.png
swag_vit_b16_in1k,1,332,NaN,car,car,0,0332_ske_dnn_0_car_00_car-0098-sketch-50.png
swag_vit_b16_in1k,1,333,NaN,car,car,0,0333_ske_dnn_0_car_00_car-0100-sketch-7.png
swag_vit_b16_in1k,1,334,NaN,car,car,0,0334_ske_dnn_0_car_00_car-0112-sketch-17.png
swag_vit_b16_in1k,1,335,NaN,car,car,0,0335_ske_dnn_0_car_00_car-0114-sketch-19.png
swag_vit_b16_in1k,1,336,NaN,car,car,0,0336_ske_dnn_0_car_00_car-0116-sketch-20.png
swag_vit_b16_in1k,1,337,NaN,car,car,0,0337_ske_dnn_0_car_00_car-0117-sketch-21.png
swag_vit_b16_in1k,1,338,NaN,car,car,0,0338_ske_dnn_0_car_00_car-0120-sketch-24.png
swag_vit_b16_in1k,1,339,NaN,car,car,0,0339_ske_dnn_0_car_00_car-0122-sketch-26.png
swag_vit_b16_in1k,1,340,NaN,car,car,0,0340_ske_dnn_0_car_00_car-0124-sketch-28.png
swag_vit_b16_in1k,1,341,NaN,car,car,0,0341_ske_dnn_0_car_00_car-0125-sketch-29.png
swag_vit_b16_in1k,1,342,NaN,clock,car,0,0342_ske_dnn_0_car_00_car-0129-sketch-32.png
swag_vit_b16_in1k,1,343,NaN,car,car,0,0343_ske_dnn_0_car_00_car-0132-sketch-35.png
swag_vit_b16_in1k,1,344,NaN,car,car,0,0344_ske_dnn_0_car_00_car-0136-sketch-39.png
swag_vit_b16_in1k,1,345,NaN,car,car,0,0345_ske_dnn_0_car_00_car-0138-sketch-40.png
swag_vit_b16_in1k,1,346,NaN,car,car,0,0346_ske_dnn_0_car_00_car-0139-sketch-41.png
swag_vit_b16_in1k,1,347,NaN,car,car,0,0347_ske_dnn_0_car_00_car-0143-sketch-45.png
swag_vit_b16_in1k,1,348,NaN,car,car,0,0348_ske_dnn_0_car_00_car-0145-sketch-47.png
swag_vit_b16_in1k,1,349,NaN,car,car,0,0349_ske_dnn_0_car_00_car-0151-sketch-7.png
swag_vit_b16_in1k,1,350,NaN,car,car,0,0350_ske_dnn_0_car_00_car-0153-sketch-9.png
swag_vit_b16_in1k,1,351,NaN,cat,cat,0,0351_ske_dnn_0_cat_00_cat-0002-sketch-1.png
swag_vit_b16_in1k,1,352,NaN,cat,cat,0,0352_ske_dnn_0_cat_00_cat-0009-sketch-16.png
swag_vit_b16_in1k,1,353,NaN,cat,cat,0,0353_ske_dnn_0_cat_00_cat-0011-sketch-18.png
swag_vit_b16_in1k,1,354,NaN,cat,cat,0,0354_ske_dnn_0_cat_00_cat-0015-sketch-21.png
swag_vit_b16_in1k,1,355,NaN,cat,cat,0,0355_ske_dnn_0_cat_00_cat-0016-sketch-22.png
swag_vit_b16_in1k,1,356,NaN,cat,cat,0,0356_ske_dnn_0_cat_00_cat-0021-sketch-27.png
swag_vit_b16_in1k,1,357,NaN,cat,cat,0,0357_ske_dnn_0_cat_00_cat-0027-sketch-32.png
swag_vit_b16_in1k,1,358,NaN,cat,cat,0,0358_ske_dnn_0_cat_00_cat-0042-sketch-46.png
swag_vit_b16_in1k,1,359,NaN,cat,cat,0,0359_ske_dnn_0_cat_00_cat-0043-sketch-47.png
swag_vit_b16_in1k,1,360,NaN,cat,cat,0,0360_ske_dnn_0_cat_00_cat-0044-sketch-48.png
swag_vit_b16_in1k,1,361,NaN,cat,cat,0,0361_ske_dnn_0_cat_00_cat-0048-sketch-7.png
swag_vit_b16_in1k,1,362,NaN,cat,cat,0,0362_ske_dnn_0_cat_00_cat-0052-sketch-1.png
swag_vit_b16_in1k,1,363,NaN,cat,cat,0,0363_ske_dnn_0_cat_00_cat-0053-sketch-10.png
swag_vit_b16_in1k,1,364,NaN,bottle,cat,0,0364_ske_dnn_0_cat_00_cat-0059-sketch-16.png
swag_vit_b16_in1k,1,365,NaN,cat,cat,0,0365_ske_dnn_0_cat_00_cat-0062-sketch-19.png
swag_vit_b16_in1k,1,366,NaN,cat,cat,0,0366_ske_dnn_0_cat_00_cat-0067-sketch-23.png
swag_vit_b16_in1k,1,367,NaN,cat,cat,0,0367_ske_dnn_0_cat_00_cat-0073-sketch-29.png
swag_vit_b16_in1k,1,368,NaN,cat,cat,0,0368_ske_dnn_0_cat_00_cat-0082-sketch-37.png
swag_vit_b16_in1k,1,369,NaN,cat,cat,0,0369_ske_dnn_0_cat_00_cat-0085-sketch-4.png
swag_vit_b16_in1k,1,370,NaN,cat,cat,0,0370_ske_dnn_0_cat_00_cat-0090-sketch-44.png
swag_vit_b16_in1k,1,371,NaN,cat,cat,0,0371_ske_dnn_0_cat_00_cat-0104-sketch-10.png
swag_vit_b16_in1k,1,372,NaN,cat,cat,0,0372_ske_dnn_0_cat_00_cat-0124-sketch-29.png
swag_vit_b16_in1k,1,373,NaN,cat,cat,0,0373_ske_dnn_0_cat_00_cat-0128-sketch-32.png
swag_vit_b16_in1k,1,374,NaN,cat,cat,0,0374_ske_dnn_0_cat_00_cat-0134-sketch-38.png
swag_vit_b16_in1k,1,375,NaN,cat,cat,0,0375_ske_dnn_0_cat_00_cat-0140-sketch-43.png
swag_vit_b16_in1k,1,376,NaN,cat,cat,0,0376_ske_dnn_0_cat_00_cat-0149-sketch-6.png
swag_vit_b16_in1k,1,377,NaN,cat,cat,0,0377_ske_dnn_0_cat_00_cat-0150-sketch-7.png
swag_vit_b16_in1k,1,378,NaN,cat,cat,0,0378_ske_dnn_0_cat_00_cat-0152-sketch-9.png
swag_vit_b16_in1k,1,379,NaN,cat,cat,0,0379_ske_dnn_0_cat_00_cat-0158-sketch-13.png
swag_vit_b16_in1k,1,380,NaN,cat,cat,0,0380_ske_dnn_0_cat_00_cat-0160-sketch-15.png
swag_vit_b16_in1k,1,381,NaN,cat,cat,0,0381_ske_dnn_0_cat_00_cat-0175-sketch-29.png
swag_vit_b16_in1k,1,382,NaN,knife,cat,0,0382_ske_dnn_0_cat_00_cat-0207-sketch-11.png
swag_vit_b16_in1k,1,383,NaN,bottle,cat,0,0383_ske_dnn_0_cat_00_cat-0229-sketch-31.png
swag_vit_b16_in1k,1,384,NaN,knife,cat,0,0384_ske_dnn_0_cat_00_cat-0233-sketch-35.png
swag_vit_b16_in1k,1,385,NaN,knife,cat,0,0385_ske_dnn_0_cat_00_cat-0241-sketch-42.png
swag_vit_b16_in1k,1,386,NaN,knife,cat,0,0386_ske_dnn_0_cat_00_cat-0245-sketch-46.png
swag_vit_b16_in1k,1,387,NaN,cat,cat,0,0387_ske_dnn_0_cat_00_cat-0250-sketch-50.png
swag_vit_b16_in1k,1,388,NaN,knife,cat,0,0388_ske_dnn_0_cat_00_cat-0251-sketch-6.png
swag_vit_b16_in1k,1,389,NaN,cat,cat,0,0389_ske_dnn_0_cat_00_cat-0258-sketch-11.png
swag_vit_b16_in1k,1,390,NaN,cat,cat,0,0390_ske_dnn_0_cat_00_cat-0260-sketch-13.png
swag_vit_b16_in1k,1,391,NaN,cat,cat,0,0391_ske_dnn_0_cat_00_cat-0264-sketch-17.png
swag_vit_b16_in1k,1,392,NaN,cat,cat,0,0392_ske_dnn_0_cat_00_cat-0265-sketch-18.png
swag_vit_b16_in1k,1,393,NaN,cat,cat,0,0393_ske_dnn_0_cat_00_cat-0269-sketch-21.png
swag_vit_b16_in1k,1,394,NaN,cat,cat,0,0394_ske_dnn_0_cat_00_cat-0274-sketch-26.png
swag_vit_b16_in1k,1,395,NaN,cat,cat,0,0395_ske_dnn_0_cat_00_cat-0279-sketch-30.png
swag_vit_b16_in1k,1,396,NaN,cat,cat,0,0396_ske_dnn_0_cat_00_cat-0289-sketch-4.png
swag_vit_b16_in1k,1,397,NaN,cat,cat,0,0397_ske_dnn_0_cat_00_cat-0293-sketch-43.png
swag_vit_b16_in1k,1,398,NaN,cat,cat,0,0398_ske_dnn_0_cat_00_cat-0295-sketch-45.png
swag_vit_b16_in1k,1,399,NaN,cat,cat,0,0399_ske_dnn_0_cat_00_cat-0302-sketch-6.png
swag_vit_b16_in1k,1,400,NaN,cat,cat,0,0400_ske_dnn_0_cat_00_cat-0304-sketch-8.png
swag_vit_b16_in1k,1,401,NaN,chair,chair,0,0401_ske_dnn_0_chair_00_chair-0002-sketch-1.png
swag_vit_b16_in1k,1,402,NaN,chair,chair,0,0402_ske_dnn_0_chair_00_chair-0005-sketch-12.png
swag_vit_b16_in1k,1,403,NaN,chair,chair,0,0403_ske_dnn_0_chair_00_chair-0006-sketch-13.png
swag_vit_b16_in1k,1,404,NaN,chair,chair,0,0404_ske_dnn_0_chair_00_chair-0011-sketch-18.png
swag_vit_b16_in1k,1,405,NaN,chair,chair,0,0405_ske_dnn_0_chair_00_chair-0013-sketch-2.png
swag_vit_b16_in1k,1,406,NaN,chair,chair,0,0406_ske_dnn_0_chair_00_chair-0014-sketch-20.png
swag_vit_b16_in1k,1,407,NaN,chair,chair,0,0407_ske_dnn_0_chair_00_chair-0017-sketch-23.png
swag_vit_b16_in1k,1,408,NaN,chair,chair,0,0408_ske_dnn_0_chair_00_chair-0029-sketch-34.png
swag_vit_b16_in1k,1,409,NaN,chair,chair,0,0409_ske_dnn_0_chair_00_chair-0034-sketch-39.png
swag_vit_b16_in1k,1,410,NaN,chair,chair,0,0410_ske_dnn_0_chair_00_chair-0040-sketch-44.png
swag_vit_b16_in1k,1,411,NaN,chair,chair,0,0411_ske_dnn_0_chair_00_chair-0051-sketch-9.png
swag_vit_b16_in1k,1,412,NaN,chair,chair,0,0412_ske_dnn_0_chair_00_chair-0052-sketch-0.png
swag_vit_b16_in1k,1,413,NaN,chair,chair,0,0413_ske_dnn_0_chair_00_chair-0055-sketch-11.png
swag_vit_b16_in1k,1,414,NaN,chair,chair,0,0414_ske_dnn_0_chair_00_chair-0060-sketch-16.png
swag_vit_b16_in1k,1,415,NaN,chair,chair,0,0415_ske_dnn_0_chair_00_chair-0062-sketch-18.png
swag_vit_b16_in1k,1,416,NaN,chair,chair,0,0416_ske_dnn_0_chair_00_chair-0063-sketch-19.png
swag_vit_b16_in1k,1,417,NaN,chair,chair,0,0417_ske_dnn_0_chair_00_chair-0064-sketch-2.png
swag_vit_b16_in1k,1,418,NaN,chair,chair,0,0418_ske_dnn_0_chair_00_chair-0066-sketch-21.png
swag_vit_b16_in1k,1,419,NaN,chair,chair,0,0419_ske_dnn_0_chair_00_chair-0067-sketch-22.png
swag_vit_b16_in1k,1,420,NaN,chair,chair,0,0420_ske_dnn_0_chair_00_chair-0071-sketch-26.png
swag_vit_b16_in1k,1,421,NaN,chair,chair,0,0421_ske_dnn_0_chair_00_chair-0072-sketch-27.png
swag_vit_b16_in1k,1,422,NaN,chair,chair,0,0422_ske_dnn_0_chair_00_chair-0076-sketch-30.png
swag_vit_b16_in1k,1,423,NaN,chair,chair,0,0423_ske_dnn_0_chair_00_chair-0079-sketch-33.png
swag_vit_b16_in1k,1,424,NaN,chair,chair,0,0424_ske_dnn_0_chair_00_chair-0083-sketch-37.png
swag_vit_b16_in1k,1,425,NaN,chair,chair,0,0425_ske_dnn_0_chair_00_chair-0088-sketch-41.png
swag_vit_b16_in1k,1,426,NaN,chair,chair,0,0426_ske_dnn_0_chair_00_chair-0094-sketch-47.png
swag_vit_b16_in1k,1,427,NaN,chair,chair,0,0427_ske_dnn_0_chair_00_chair-0105-sketch-11.png
swag_vit_b16_in1k,1,428,NaN,chair,chair,0,0428_ske_dnn_0_chair_00_chair-0118-sketch-23.png
swag_vit_b16_in1k,1,429,NaN,chair,chair,0,0429_ske_dnn_0_chair_00_chair-0122-sketch-27.png
swag_vit_b16_in1k,1,430,NaN,chair,chair,0,0430_ske_dnn_0_chair_00_chair-0124-sketch-29.png
swag_vit_b16_in1k,1,431,NaN,chair,chair,0,0431_ske_dnn_0_chair_00_chair-0125-sketch-3.png
swag_vit_b16_in1k,1,432,NaN,chair,chair,0,0432_ske_dnn_0_chair_00_chair-0127-sketch-31.png
swag_vit_b16_in1k,1,433,NaN,chair,chair,0,0433_ske_dnn_0_chair_00_chair-0129-sketch-33.png
swag_vit_b16_in1k,1,434,NaN,chair,chair,0,0434_ske_dnn_0_chair_00_chair-0130-sketch-34.png
swag_vit_b16_in1k,1,435,NaN,chair,chair,0,0435_ske_dnn_0_chair_00_chair-0131-sketch-35.png
swag_vit_b16_in1k,1,436,NaN,chair,chair,0,0436_ske_dnn_0_chair_00_chair-0135-sketch-39.png
swag_vit_b16_in1k,1,437,NaN,chair,chair,0,0437_ske_dnn_0_chair_00_chair-0144-sketch-47.png
swag_vit_b16_in1k,1,438,NaN,chair,chair,0,0438_ske_dnn_0_chair_00_chair-0145-sketch-48.png
swag_vit_b16_in1k,1,439,NaN,chair,chair,0,0439_ske_dnn_0_chair_00_chair-0153-sketch-0.png
swag_vit_b16_in1k,1,440,NaN,chair,chair,0,0440_ske_dnn_0_chair_00_chair-0155-sketch-10.png
swag_vit_b16_in1k,1,441,NaN,chair,chair,0,0441_ske_dnn_0_chair_00_chair-0163-sketch-18.png
swag_vit_b16_in1k,1,442,NaN,chair,chair,0,0442_ske_dnn_0_chair_00_chair-0166-sketch-20.png
swag_vit_b16_in1k,1,443,NaN,chair,chair,0,0443_ske_dnn_0_chair_00_chair-0167-sketch-21.png
swag_vit_b16_in1k,1,444,NaN,chair,chair,0,0444_ske_dnn_0_chair_00_chair-0168-sketch-22.png
swag_vit_b16_in1k,1,445,NaN,chair,chair,0,0445_ske_dnn_0_chair_00_chair-0175-sketch-29.png
swag_vit_b16_in1k,1,446,NaN,chair,chair,0,0446_ske_dnn_0_chair_00_chair-0176-sketch-3.png
swag_vit_b16_in1k,1,447,NaN,chair,chair,0,0447_ske_dnn_0_chair_00_chair-0178-sketch-31.png
swag_vit_b16_in1k,1,448,NaN,chair,chair,0,0448_ske_dnn_0_chair_00_chair-0180-sketch-33.png
swag_vit_b16_in1k,1,449,NaN,chair,chair,0,0449_ske_dnn_0_chair_00_chair-0197-sketch-49.png
swag_vit_b16_in1k,1,450,NaN,chair,chair,0,0450_ske_dnn_0_chair_00_chair-0200-sketch-6.png
swag_vit_b16_in1k,1,451,NaN,clock,clock,0,0451_ske_dnn_0_clock_00_clock-0005-sketch-12.png
swag_vit_b16_in1k,1,452,NaN,clock,clock,0,0452_ske_dnn_0_clock_00_clock-0007-sketch-14.png
swag_vit_b16_in1k,1,453,NaN,clock,clock,0,0453_ske_dnn_0_clock_00_clock-0015-sketch-21.png
swag_vit_b16_in1k,1,454,NaN,clock,clock,0,0454_ske_dnn_0_clock_00_clock-0017-sketch-23.png
swag_vit_b16_in1k,1,455,NaN,clock,clock,0,0455_ske_dnn_0_clock_00_clock-0018-sketch-24.png
swag_vit_b16_in1k,1,456,NaN,clock,clock,0,0456_ske_dnn_0_clock_00_clock-0021-sketch-27.png
swag_vit_b16_in1k,1,457,NaN,clock,clock,0,0457_ske_dnn_0_clock_00_clock-0022-sketch-28.png
swag_vit_b16_in1k,1,458,NaN,clock,clock,0,0458_ske_dnn_0_clock_00_clock-0027-sketch-32.png
swag_vit_b16_in1k,1,459,NaN,clock,clock,0,0459_ske_dnn_0_clock_00_clock-0028-sketch-33.png
swag_vit_b16_in1k,1,460,NaN,clock,clock,0,0460_ske_dnn_0_clock_00_clock-0030-sketch-35.png
swag_vit_b16_in1k,1,461,NaN,clock,clock,0,0461_ske_dnn_0_clock_00_clock-0033-sketch-38.png
swag_vit_b16_in1k,1,462,NaN,clock,clock,0,0462_ske_dnn_0_clock_00_clock-0035-sketch-4.png
swag_vit_b16_in1k,1,463,NaN,clock,clock,0,0463_ske_dnn_0_clock_00_clock-0044-sketch-48.png
swag_vit_b16_in1k,1,464,NaN,clock,clock,0,0464_ske_dnn_0_clock_00_clock-0046-sketch-5.png
swag_vit_b16_in1k,1,465,NaN,clock,clock,0,0465_ske_dnn_0_clock_00_clock-0049-sketch-7.png
swag_vit_b16_in1k,1,466,NaN,clock,clock,0,0466_ske_dnn_0_clock_00_clock-0057-sketch-13.png
swag_vit_b16_in1k,1,467,NaN,clock,clock,0,0467_ske_dnn_0_clock_00_clock-0059-sketch-15.png
swag_vit_b16_in1k,1,468,NaN,clock,clock,0,0468_ske_dnn_0_clock_00_clock-0060-sketch-16.png
swag_vit_b16_in1k,1,469,NaN,clock,clock,0,0469_ske_dnn_0_clock_00_clock-0067-sketch-22.png
swag_vit_b16_in1k,1,470,NaN,clock,clock,0,0470_ske_dnn_0_clock_00_clock-0069-sketch-24.png
swag_vit_b16_in1k,1,471,NaN,keyboard,clock,0,0471_ske_dnn_0_clock_00_clock-0070-sketch-25.png
swag_vit_b16_in1k,1,472,NaN,clock,clock,0,0472_ske_dnn_0_clock_00_clock-0071-sketch-26.png
swag_vit_b16_in1k,1,473,NaN,clock,clock,0,0473_ske_dnn_0_clock_00_clock-0073-sketch-28.png
swag_vit_b16_in1k,1,474,NaN,clock,clock,0,0474_ske_dnn_0_clock_00_clock-0074-sketch-29.png
swag_vit_b16_in1k,1,475,NaN,clock,clock,0,0475_ske_dnn_0_clock_00_clock-0076-sketch-30.png
swag_vit_b16_in1k,1,476,NaN,clock,clock,0,0476_ske_dnn_0_clock_00_clock-0077-sketch-31.png
swag_vit_b16_in1k,1,477,NaN,clock,clock,0,0477_ske_dnn_0_clock_00_clock-0078-sketch-32.png
swag_vit_b16_in1k,1,478,NaN,clock,clock,0,0478_ske_dnn_0_clock_00_clock-0081-sketch-35.png
swag_vit_b16_in1k,1,479,NaN,clock,clock,0,0479_ske_dnn_0_clock_00_clock-0085-sketch-39.png
swag_vit_b16_in1k,1,480,NaN,clock,clock,0,0480_ske_dnn_0_clock_00_clock-0087-sketch-40.png
swag_vit_b16_in1k,1,481,NaN,clock,clock,0,0481_ske_dnn_0_clock_00_clock-0092-sketch-45.png
swag_vit_b16_in1k,1,482,NaN,clock,clock,0,0482_ske_dnn_0_clock_00_clock-0093-sketch-46.png
swag_vit_b16_in1k,1,483,NaN,clock,clock,0,0483_ske_dnn_0_clock_00_clock-0095-sketch-48.png
swag_vit_b16_in1k,1,484,NaN,clock,clock,0,0484_ske_dnn_0_clock_00_clock-0099-sketch-6.png
swag_vit_b16_in1k,1,485,NaN,clock,clock,0,0485_ske_dnn_0_clock_00_clock-0110-sketch-15.png
swag_vit_b16_in1k,1,486,NaN,clock,clock,0,0486_ske_dnn_0_clock_00_clock-0112-sketch-17.png
swag_vit_b16_in1k,1,487,NaN,clock,clock,0,0487_ske_dnn_0_clock_00_clock-0115-sketch-2.png
swag_vit_b16_in1k,1,488,NaN,clock,clock,0,0488_ske_dnn_0_clock_00_clock-0118-sketch-22.png
swag_vit_b16_in1k,1,489,NaN,clock,clock,0,0489_ske_dnn_0_clock_00_clock-0123-sketch-27.png
swag_vit_b16_in1k,1,490,NaN,clock,clock,0,0490_ske_dnn_0_clock_00_clock-0127-sketch-30.png
swag_vit_b16_in1k,1,491,NaN,clock,clock,0,0491_ske_dnn_0_clock_00_clock-0131-sketch-34.png
swag_vit_b16_in1k,1,492,NaN,clock,clock,0,0492_ske_dnn_0_clock_00_clock-0132-sketch-35.png
swag_vit_b16_in1k,1,493,NaN,clock,clock,0,0493_ske_dnn_0_clock_00_clock-0133-sketch-36.png
swag_vit_b16_in1k,1,494,NaN,clock,clock,0,0494_ske_dnn_0_clock_00_clock-0136-sketch-39.png
swag_vit_b16_in1k,1,495,NaN,clock,clock,0,0495_ske_dnn_0_clock_00_clock-0137-sketch-4.png
swag_vit_b16_in1k,1,496,NaN,clock,clock,0,0496_ske_dnn_0_clock_00_clock-0138-sketch-40.png
swag_vit_b16_in1k,1,497,NaN,clock,clock,0,0497_ske_dnn_0_clock_00_clock-0141-sketch-43.png
swag_vit_b16_in1k,1,498,NaN,clock,clock,0,0498_ske_dnn_0_clock_00_clock-0143-sketch-45.png
swag_vit_b16_in1k,1,499,NaN,clock,clock,0,0499_ske_dnn_0_clock_00_clock-0144-sketch-46.png
swag_vit_b16_in1k,1,500,NaN,clock,clock,0,0500_ske_dnn_0_clock_00_clock-0150-sketch-6.png
swag_vit_b16_in1k,1,501,NaN,dog,dog,0,0501_ske_dnn_0_dog_00_dog-0011-sketch-18.png
swag_vit_b16_in1k,1,502,NaN,dog,dog,0,0502_ske_dnn_0_dog_00_dog-0111-sketch-17.png
swag_vit_b16_in1k,1,503,NaN,dog,dog,0,0503_ske_dnn_0_dog_00_dog-0215-sketch-19.png
swag_vit_b16_in1k,1,504,NaN,dog,dog,0,0504_ske_dnn_0_dog_00_dog-0243-sketch-44.png
swag_vit_b16_in1k,1,505,NaN,dog,dog,0,0505_ske_dnn_0_dog_00_dog-0476-sketch-26.png
swag_vit_b16_in1k,1,506,NaN,dog,dog,0,0506_ske_dnn_0_dog_00_dog-0607-sketch-8.png
swag_vit_b16_in1k,1,507,NaN,dog,dog,0,0507_ske_dnn_0_dog_00_dog-0630-sketch-28.png
swag_vit_b16_in1k,1,508,NaN,dog,dog,0,0508_ske_dnn_0_dog_00_dog-1035-sketch-27.png
swag_vit_b16_in1k,1,509,NaN,dog,dog,0,0509_ske_dnn_0_dog_00_dog-1292-sketch-3.png
swag_vit_b16_in1k,1,510,NaN,dog,dog,0,0510_ske_dnn_0_dog_00_dog-1393-sketch-3.png
swag_vit_b16_in1k,1,511,NaN,dog,dog,0,0511_ske_dnn_0_dog_00_dog-1460-sketch-44.png
swag_vit_b16_in1k,1,512,NaN,dog,dog,0,0512_ske_dnn_0_dog_00_dog-1617-sketch-48.png
swag_vit_b16_in1k,1,513,NaN,dog,dog,0,0513_ske_dnn_0_dog_00_dog-1657-sketch-38.png
swag_vit_b16_in1k,1,514,NaN,dog,dog,0,0514_ske_dnn_0_dog_00_dog-1711-sketch-40.png
swag_vit_b16_in1k,1,515,NaN,dog,dog,0,0515_ske_dnn_0_dog_00_dog-1759-sketch-38.png
swag_vit_b16_in1k,1,516,NaN,dog,dog,0,0516_ske_dnn_0_dog_00_dog-1797-sketch-26.png
swag_vit_b16_in1k,1,517,NaN,dog,dog,0,0517_ske_dnn_0_dog_00_dog-1973-sketch-47.png
swag_vit_b16_in1k,1,518,NaN,dog,dog,0,0518_ske_dnn_0_dog_00_dog-2150-sketch-22.png
swag_vit_b16_in1k,1,519,NaN,knife,dog,0,0519_ske_dnn_0_dog_00_dog-2198-sketch-20.png
swag_vit_b16_in1k,1,520,NaN,dog,dog,0,0520_ske_dnn_0_dog_00_dog-2291-sketch-12.png
swag_vit_b16_in1k,1,521,NaN,dog,dog,0,0521_ske_dnn_0_dog_00_dog-2323-sketch-41.png
swag_vit_b16_in1k,1,522,NaN,dog,dog,0,0522_ske_dnn_0_dog_00_dog-2454-sketch-21.png
swag_vit_b16_in1k,1,523,NaN,dog,dog,0,0523_ske_dnn_0_dog_00_dog-2506-sketch-23.png
swag_vit_b16_in1k,1,524,NaN,dog,dog,0,0524_ske_dnn_0_dog_00_dog-2541-sketch-0.png
swag_vit_b16_in1k,1,525,NaN,dog,dog,0,0525_ske_dnn_0_dog_00_dog-2615-sketch-3.png
swag_vit_b16_in1k,1,526,NaN,dog,dog,0,0526_ske_dnn_0_dog_00_dog-2948-sketch-10.png
swag_vit_b16_in1k,1,527,NaN,dog,dog,0,0527_ske_dnn_0_dog_00_dog-3000-sketch-11.png
swag_vit_b16_in1k,1,528,NaN,clock,dog,0,0528_ske_dnn_0_dog_00_dog-3153-sketch-11.png
swag_vit_b16_in1k,1,529,NaN,dog,dog,0,0529_ske_dnn_0_dog_00_dog-3251-sketch-9.png
swag_vit_b16_in1k,1,530,NaN,dog,dog,0,0530_ske_dnn_0_dog_00_dog-3303-sketch-0.png
swag_vit_b16_in1k,1,531,NaN,dog,dog,0,0531_ske_dnn_0_dog_00_dog-3338-sketch-40.png
swag_vit_b16_in1k,1,532,NaN,dog,dog,0,0532_ske_dnn_0_dog_00_dog-3417-sketch-2.png
swag_vit_b16_in1k,1,533,NaN,dog,dog,0,0533_ske_dnn_0_dog_00_dog-3503-sketch-6.png
swag_vit_b16_in1k,1,534,NaN,dog,dog,0,0534_ske_dnn_0_dog_00_dog-3573-sketch-22.png
swag_vit_b16_in1k,1,535,NaN,dog,dog,0,0535_ske_dnn_0_dog_00_dog-3646-sketch-42.png
swag_vit_b16_in1k,1,536,NaN,dog,dog,0,0536_ske_dnn_0_dog_00_dog-3695-sketch-40.png
swag_vit_b16_in1k,1,537,NaN,dog,dog,0,0537_ske_dnn_0_dog_00_dog-3915-sketch-0.png
swag_vit_b16_in1k,1,538,NaN,dog,dog,0,0538_ske_dnn_0_dog_00_dog-4202-sketch-4.png
swag_vit_b16_in1k,1,539,NaN,dog,dog,0,0539_ske_dnn_0_dog_00_dog-4208-sketch-45.png
swag_vit_b16_in1k,1,540,NaN,dog,dog,0,0540_ske_dnn_0_dog_00_dog-4325-sketch-13.png
swag_vit_b16_in1k,1,541,NaN,dog,dog,0,0541_ske_dnn_0_dog_00_dog-4475-sketch-11.png
swag_vit_b16_in1k,1,542,NaN,cat,dog,0,0542_ske_dnn_0_dog_00_dog-4499-sketch-33.png
swag_vit_b16_in1k,1,543,NaN,dog,dog,0,0543_ske_dnn_0_dog_00_dog-4581-sketch-16.png
swag_vit_b16_in1k,1,544,NaN,dog,dog,0,0544_ske_dnn_0_dog_00_dog-4709-sketch-4.png
swag_vit_b16_in1k,1,545,NaN,dog,dog,0,0545_ske_dnn_0_dog_00_dog-4909-sketch-37.png
swag_vit_b16_in1k,1,546,NaN,dog,dog,0,0546_ske_dnn_0_dog_00_dog-5028-sketch-8.png
swag_vit_b16_in1k,1,547,NaN,dog,dog,0,0547_ske_dnn_0_dog_00_dog-5084-sketch-11.png
swag_vit_b16_in1k,1,548,NaN,dog,dog,0,0548_ske_dnn_0_dog_00_dog-5223-sketch-45.png
swag_vit_b16_in1k,1,549,NaN,dog,dog,0,0549_ske_dnn_0_dog_00_dog-5325-sketch-45.png
swag_vit_b16_in1k,1,550,NaN,dog,dog,0,0550_ske_dnn_0_dog_00_dog-5354-sketch-25.png
swag_vit_b16_in1k,1,551,NaN,elephant,elephant,0,0551_ske_dnn_0_elephant_00_elephant-0001-sketch-0.png
swag_vit_b16_in1k,1,552,NaN,elephant,elephant,0,0552_ske_dnn_0_elephant_00_elephant-0002-sketch-1.png
swag_vit_b16_in1k,1,553,NaN,elephant,elephant,0,0553_ske_dnn_0_elephant_00_elephant-0006-sketch-13.png
swag_vit_b16_in1k,1,554,NaN,elephant,elephant,0,0554_ske_dnn_0_elephant_00_elephant-0011-sketch-18.png
swag_vit_b16_in1k,1,555,NaN,elephant,elephant,0,0555_ske_dnn_0_elephant_00_elephant-0012-sketch-19.png
swag_vit_b16_in1k,1,556,NaN,elephant,elephant,0,0556_ske_dnn_0_elephant_00_elephant-0013-sketch-2.png
swag_vit_b16_in1k,1,557,NaN,elephant,elephant,0,0557_ske_dnn_0_elephant_00_elephant-0014-sketch-20.png
swag_vit_b16_in1k,1,558,NaN,elephant,elephant,0,0558_ske_dnn_0_elephant_00_elephant-0015-sketch-21.png
swag_vit_b16_in1k,1,559,NaN,elephant,elephant,0,0559_ske_dnn_0_elephant_00_elephant-0016-sketch-22.png
swag_vit_b16_in1k,1,560,NaN,elephant,elephant,0,0560_ske_dnn_0_elephant_00_elephant-0019-sketch-25.png
swag_vit_b16_in1k,1,561,NaN,elephant,elephant,0,0561_ske_dnn_0_elephant_00_elephant-0020-sketch-26.png
swag_vit_b16_in1k,1,562,NaN,elephant,elephant,0,0562_ske_dnn_0_elephant_00_elephant-0021-sketch-27.png
swag_vit_b16_in1k,1,563,NaN,elephant,elephant,0,0563_ske_dnn_0_elephant_00_elephant-0022-sketch-28.png
swag_vit_b16_in1k,1,564,NaN,elephant,elephant,0,0564_ske_dnn_0_elephant_00_elephant-0025-sketch-30.png
swag_vit_b16_in1k,1,565,NaN,elephant,elephant,0,0565_ske_dnn_0_elephant_00_elephant-0028-sketch-33.png
swag_vit_b16_in1k,1,566,NaN,elephant,elephant,0,0566_ske_dnn_0_elephant_00_elephant-0029-sketch-34.png
swag_vit_b16_in1k,1,567,NaN,elephant,elephant,0,0567_ske_dnn_0_elephant_00_elephant-0030-sketch-35.png
swag_vit_b16_in1k,1,568,NaN,elephant,elephant,0,0568_ske_dnn_0_elephant_00_elephant-0032-sketch-37.png
swag_vit_b16_in1k,1,569,NaN,elephant,elephant,0,0569_ske_dnn_0_elephant_00_elephant-0033-sketch-38.png
swag_vit_b16_in1k,1,570,NaN,elephant,elephant,0,0570_ske_dnn_0_elephant_00_elephant-0037-sketch-41.png
swag_vit_b16_in1k,1,571,NaN,elephant,elephant,0,0571_ske_dnn_0_elephant_00_elephant-0039-sketch-43.png
swag_vit_b16_in1k,1,572,NaN,elephant,elephant,0,0572_ske_dnn_0_elephant_00_elephant-0040-sketch-44.png
swag_vit_b16_in1k,1,573,NaN,elephant,elephant,0,0573_ske_dnn_0_elephant_00_elephant-0043-sketch-47.png
swag_vit_b16_in1k,1,574,NaN,elephant,elephant,0,0574_ske_dnn_0_elephant_00_elephant-0044-sketch-48.png
swag_vit_b16_in1k,1,575,NaN,elephant,elephant,0,0575_ske_dnn_0_elephant_00_elephant-0046-sketch-5.png
swag_vit_b16_in1k,1,576,NaN,elephant,elephant,0,0576_ske_dnn_0_elephant_00_elephant-0047-sketch-50.png
swag_vit_b16_in1k,1,577,NaN,elephant,elephant,0,0577_ske_dnn_0_elephant_00_elephant-0048-sketch-6.png
swag_vit_b16_in1k,1,578,NaN,elephant,elephant,0,0578_ske_dnn_0_elephant_00_elephant-0050-sketch-8.png
swag_vit_b16_in1k,1,579,NaN,elephant,elephant,0,0579_ske_dnn_0_elephant_00_elephant-0052-sketch-0.png
swag_vit_b16_in1k,1,580,NaN,elephant,elephant,0,0580_ske_dnn_0_elephant_00_elephant-0054-sketch-10.png
swag_vit_b16_in1k,1,581,NaN,elephant,elephant,0,0581_ske_dnn_0_elephant_00_elephant-0055-sketch-11.png
swag_vit_b16_in1k,1,582,NaN,elephant,elephant,0,0582_ske_dnn_0_elephant_00_elephant-0057-sketch-13.png
swag_vit_b16_in1k,1,583,NaN,elephant,elephant,0,0583_ske_dnn_0_elephant_00_elephant-0058-sketch-14.png
swag_vit_b16_in1k,1,584,NaN,elephant,elephant,0,0584_ske_dnn_0_elephant_00_elephant-0061-sketch-17.png
swag_vit_b16_in1k,1,585,NaN,elephant,elephant,0,0585_ske_dnn_0_elephant_00_elephant-0062-sketch-18.png
swag_vit_b16_in1k,1,586,NaN,elephant,elephant,0,0586_ske_dnn_0_elephant_00_elephant-0065-sketch-20.png
swag_vit_b16_in1k,1,587,NaN,elephant,elephant,0,0587_ske_dnn_0_elephant_00_elephant-0066-sketch-21.png
swag_vit_b16_in1k,1,588,NaN,elephant,elephant,0,0588_ske_dnn_0_elephant_00_elephant-0071-sketch-26.png
swag_vit_b16_in1k,1,589,NaN,elephant,elephant,0,0589_ske_dnn_0_elephant_00_elephant-0075-sketch-3.png
swag_vit_b16_in1k,1,590,NaN,elephant,elephant,0,0590_ske_dnn_0_elephant_00_elephant-0076-sketch-30.png
swag_vit_b16_in1k,1,591,NaN,elephant,elephant,0,0591_ske_dnn_0_elephant_00_elephant-0077-sketch-31.png
swag_vit_b16_in1k,1,592,NaN,elephant,elephant,0,0592_ske_dnn_0_elephant_00_elephant-0079-sketch-33.png
swag_vit_b16_in1k,1,593,NaN,elephant,elephant,0,0593_ske_dnn_0_elephant_00_elephant-0080-sketch-34.png
swag_vit_b16_in1k,1,594,NaN,elephant,elephant,0,0594_ske_dnn_0_elephant_00_elephant-0082-sketch-36.png
swag_vit_b16_in1k,1,595,NaN,elephant,elephant,0,0595_ske_dnn_0_elephant_00_elephant-0086-sketch-4.png
swag_vit_b16_in1k,1,596,NaN,elephant,elephant,0,0596_ske_dnn_0_elephant_00_elephant-0090-sketch-43.png
swag_vit_b16_in1k,1,597,NaN,elephant,elephant,0,0597_ske_dnn_0_elephant_00_elephant-0094-sketch-47.png
swag_vit_b16_in1k,1,598,NaN,elephant,elephant,0,0598_ske_dnn_0_elephant_00_elephant-0098-sketch-50.png
swag_vit_b16_in1k,1,599,NaN,elephant,elephant,0,0599_ske_dnn_0_elephant_00_elephant-0100-sketch-7.png
swag_vit_b16_in1k,1,600,NaN,elephant,elephant,0,0600_ske_dnn_0_elephant_00_elephant-0101-sketch-8.png
swag_vit_b16_in1k,1,601,NaN,keyboard,keyboard,0,0601_ske_dnn_0_keyboard_00_keyboard-0002-sketch-1.png
swag_vit_b16_in1k,1,602,NaN,keyboard,keyboard,0,0602_ske_dnn_0_keyboard_00_keyboard-0003-sketch-10.png
swag_vit_b16_in1k,1,603,NaN,keyboard,keyboard,0,0603_ske_dnn_0_keyboard_00_keyboard-0004-sketch-11.png
swag_vit_b16_in1k,1,604,NaN,keyboard,keyboard,0,0604_ske_dnn_0_keyboard_00_keyboard-0005-sketch-12.png
swag_vit_b16_in1k,1,605,NaN,keyboard,keyboard,0,0605_ske_dnn_0_keyboard_00_keyboard-0006-sketch-13.png
swag_vit_b16_in1k,1,606,NaN,keyboard,keyboard,0,0606_ske_dnn_0_keyboard_00_keyboard-0007-sketch-14.png
swag_vit_b16_in1k,1,607,NaN,keyboard,keyboard,0,0607_ske_dnn_0_keyboard_00_keyboard-0008-sketch-15.png
swag_vit_b16_in1k,1,608,NaN,keyboard,keyboard,0,0608_ske_dnn_0_keyboard_00_keyboard-0009-sketch-16.png
swag_vit_b16_in1k,1,609,NaN,keyboard,keyboard,0,0609_ske_dnn_0_keyboard_00_keyboard-0010-sketch-17.png
swag_vit_b16_in1k,1,610,NaN,keyboard,keyboard,0,0610_ske_dnn_0_keyboard_00_keyboard-0014-sketch-20.png
swag_vit_b16_in1k,1,611,NaN,keyboard,keyboard,0,0611_ske_dnn_0_keyboard_00_keyboard-0016-sketch-22.png
swag_vit_b16_in1k,1,612,NaN,keyboard,keyboard,0,0612_ske_dnn_0_keyboard_00_keyboard-0017-sketch-23.png
swag_vit_b16_in1k,1,613,NaN,keyboard,keyboard,0,0613_ske_dnn_0_keyboard_00_keyboard-0019-sketch-25.png
swag_vit_b16_in1k,1,614,NaN,keyboard,keyboard,0,0614_ske_dnn_0_keyboard_00_keyboard-0022-sketch-28.png
swag_vit_b16_in1k,1,615,NaN,keyboard,keyboard,0,0615_ske_dnn_0_keyboard_00_keyboard-0023-sketch-29.png
swag_vit_b16_in1k,1,616,NaN,keyboard,keyboard,0,0616_ske_dnn_0_keyboard_00_keyboard-0026-sketch-31.png
swag_vit_b16_in1k,1,617,NaN,clock,keyboard,0,0617_ske_dnn_0_keyboard_00_keyboard-0028-sketch-33.png
swag_vit_b16_in1k,1,618,NaN,keyboard,keyboard,0,0618_ske_dnn_0_keyboard_00_keyboard-0029-sketch-34.png
swag_vit_b16_in1k,1,619,NaN,keyboard,keyboard,0,0619_ske_dnn_0_keyboard_00_keyboard-0031-sketch-36.png
swag_vit_b16_in1k,1,620,NaN,keyboard,keyboard,0,0620_ske_dnn_0_keyboard_00_keyboard-0033-sketch-38.png
swag_vit_b16_in1k,1,621,NaN,keyboard,keyboard,0,0621_ske_dnn_0_keyboard_00_keyboard-0034-sketch-39.png
swag_vit_b16_in1k,1,622,NaN,keyboard,keyboard,0,0622_ske_dnn_0_keyboard_00_keyboard-0035-sketch-4.png
swag_vit_b16_in1k,1,623,NaN,keyboard,keyboard,0,0623_ske_dnn_0_keyboard_00_keyboard-0037-sketch-41.png
swag_vit_b16_in1k,1,624,NaN,keyboard,keyboard,0,0624_ske_dnn_0_keyboard_00_keyboard-0038-sketch-42.png
swag_vit_b16_in1k,1,625,NaN,keyboard,keyboard,0,0625_ske_dnn_0_keyboard_00_keyboard-0039-sketch-43.png
swag_vit_b16_in1k,1,626,NaN,keyboard,keyboard,0,0626_ske_dnn_0_keyboard_00_keyboard-0041-sketch-45.png
swag_vit_b16_in1k,1,627,NaN,keyboard,keyboard,0,0627_ske_dnn_0_keyboard_00_keyboard-0042-sketch-46.png
swag_vit_b16_in1k,1,628,NaN,keyboard,keyboard,0,0628_ske_dnn_0_keyboard_00_keyboard-0043-sketch-47.png
swag_vit_b16_in1k,1,629,NaN,keyboard,keyboard,0,0629_ske_dnn_0_keyboard_00_keyboard-0044-sketch-48.png
swag_vit_b16_in1k,1,630,NaN,keyboard,keyboard,0,0630_ske_dnn_0_keyboard_00_keyboard-0045-sketch-49.png
swag_vit_b16_in1k,1,631,NaN,keyboard,keyboard,0,0631_ske_dnn_0_keyboard_00_keyboard-0047-sketch-50.png
swag_vit_b16_in1k,1,632,NaN,keyboard,keyboard,0,0632_ske_dnn_0_keyboard_00_keyboard-0049-sketch-7.png
swag_vit_b16_in1k,1,633,NaN,keyboard,keyboard,0,0633_ske_dnn_0_keyboard_00_keyboard-0052-sketch-0.png
swag_vit_b16_in1k,1,634,NaN,keyboard,keyboard,0,0634_ske_dnn_0_keyboard_00_keyboard-0053-sketch-1.png
swag_vit_b16_in1k,1,635,NaN,keyboard,keyboard,0,0635_ske_dnn_0_keyboard_00_keyboard-0059-sketch-15.png
swag_vit_b16_in1k,1,636,NaN,keyboard,keyboard,0,0636_ske_dnn_0_keyboard_00_keyboard-0061-sketch-17.png
swag_vit_b16_in1k,1,637,NaN,keyboard,keyboard,0,0637_ske_dnn_0_keyboard_00_keyboard-0062-sketch-18.png
swag_vit_b16_in1k,1,638,NaN,keyboard,keyboard,0,0638_ske_dnn_0_keyboard_00_keyboard-0063-sketch-19.png
swag_vit_b16_in1k,1,639,NaN,keyboard,keyboard,0,0639_ske_dnn_0_keyboard_00_keyboard-0064-sketch-2.png
swag_vit_b16_in1k,1,640,NaN,keyboard,keyboard,0,0640_ske_dnn_0_keyboard_00_keyboard-0068-sketch-23.png
swag_vit_b16_in1k,1,641,NaN,keyboard,keyboard,0,0641_ske_dnn_0_keyboard_00_keyboard-0071-sketch-26.png
swag_vit_b16_in1k,1,642,NaN,keyboard,keyboard,0,0642_ske_dnn_0_keyboard_00_keyboard-0074-sketch-29.png
swag_vit_b16_in1k,1,643,NaN,keyboard,keyboard,0,0643_ske_dnn_0_keyboard_00_keyboard-0076-sketch-30.png
swag_vit_b16_in1k,1,644,NaN,keyboard,keyboard,0,0644_ske_dnn_0_keyboard_00_keyboard-0084-sketch-38.png
swag_vit_b16_in1k,1,645,NaN,keyboard,keyboard,0,0645_ske_dnn_0_keyboard_00_keyboard-0085-sketch-39.png
swag_vit_b16_in1k,1,646,NaN,keyboard,keyboard,0,0646_ske_dnn_0_keyboard_00_keyboard-0086-sketch-4.png
swag_vit_b16_in1k,1,647,NaN,keyboard,keyboard,0,0647_ske_dnn_0_keyboard_00_keyboard-0087-sketch-40.png
swag_vit_b16_in1k,1,648,NaN,keyboard,keyboard,0,0648_ske_dnn_0_keyboard_00_keyboard-0088-sketch-41.png
swag_vit_b16_in1k,1,649,NaN,keyboard,keyboard,0,0649_ske_dnn_0_keyboard_00_keyboard-0091-sketch-44.png
swag_vit_b16_in1k,1,650,NaN,keyboard,keyboard,0,0650_ske_dnn_0_keyboard_00_keyboard-0098-sketch-50.png
swag_vit_b16_in1k,1,651,NaN,knife,knife,0,0651_ske_dnn_0_knife_00_knife-0001-sketch-0.png
swag_vit_b16_in1k,1,652,NaN,knife,knife,0,0652_ske_dnn_0_knife_00_knife-0002-sketch-1.png
swag_vit_b16_in1k,1,653,NaN,knife,knife,0,0653_ske_dnn_0_knife_00_knife-0004-sketch-11.png
swag_vit_b16_in1k,1,654,NaN,knife,knife,0,0654_ske_dnn_0_knife_00_knife-0005-sketch-12.png
swag_vit_b16_in1k,1,655,NaN,knife,knife,0,0655_ske_dnn_0_knife_00_knife-0006-sketch-13.png
swag_vit_b16_in1k,1,656,NaN,knife,knife,0,0656_ske_dnn_0_knife_00_knife-0007-sketch-14.png
swag_vit_b16_in1k,1,657,NaN,knife,knife,0,0657_ske_dnn_0_knife_00_knife-0008-sketch-15.png
swag_vit_b16_in1k,1,658,NaN,knife,knife,0,0658_ske_dnn_0_knife_00_knife-0009-sketch-16.png
swag_vit_b16_in1k,1,659,NaN,knife,knife,0,0659_ske_dnn_0_knife_00_knife-0010-sketch-17.png
swag_vit_b16_in1k,1,660,NaN,knife,knife,0,0660_ske_dnn_0_knife_00_knife-0011-sketch-18.png
swag_vit_b16_in1k,1,661,NaN,knife,knife,0,0661_ske_dnn_0_knife_00_knife-0012-sketch-19.png
swag_vit_b16_in1k,1,662,NaN,knife,knife,0,0662_ske_dnn_0_knife_00_knife-0013-sketch-2.png
swag_vit_b16_in1k,1,663,NaN,knife,knife,0,0663_ske_dnn_0_knife_00_knife-0014-sketch-20.png
swag_vit_b16_in1k,1,664,NaN,knife,knife,0,0664_ske_dnn_0_knife_00_knife-0015-sketch-21.png
swag_vit_b16_in1k,1,665,NaN,knife,knife,0,0665_ske_dnn_0_knife_00_knife-0016-sketch-22.png
swag_vit_b16_in1k,1,666,NaN,knife,knife,0,0666_ske_dnn_0_knife_00_knife-0017-sketch-23.png
swag_vit_b16_in1k,1,667,NaN,knife,knife,0,0667_ske_dnn_0_knife_00_knife-0018-sketch-24.png
swag_vit_b16_in1k,1,668,NaN,knife,knife,0,0668_ske_dnn_0_knife_00_knife-0019-sketch-25.png
swag_vit_b16_in1k,1,669,NaN,knife,knife,0,0669_ske_dnn_0_knife_00_knife-0020-sketch-26.png
swag_vit_b16_in1k,1,670,NaN,knife,knife,0,0670_ske_dnn_0_knife_00_knife-0021-sketch-27.png
swag_vit_b16_in1k,1,671,NaN,knife,knife,0,0671_ske_dnn_0_knife_00_knife-0022-sketch-28.png
swag_vit_b16_in1k,1,672,NaN,knife,knife,0,0672_ske_dnn_0_knife_00_knife-0023-sketch-29.png
swag_vit_b16_in1k,1,673,NaN,knife,knife,0,0673_ske_dnn_0_knife_00_knife-0024-sketch-3.png
swag_vit_b16_in1k,1,674,NaN,knife,knife,0,0674_ske_dnn_0_knife_00_knife-0025-sketch-30.png
swag_vit_b16_in1k,1,675,NaN,knife,knife,0,0675_ske_dnn_0_knife_00_knife-0026-sketch-31.png
swag_vit_b16_in1k,1,676,NaN,knife,knife,0,0676_ske_dnn_0_knife_00_knife-0027-sketch-32.png
swag_vit_b16_in1k,1,677,NaN,knife,knife,0,0677_ske_dnn_0_knife_00_knife-0028-sketch-33.png
swag_vit_b16_in1k,1,678,NaN,knife,knife,0,0678_ske_dnn_0_knife_00_knife-0029-sketch-34.png
swag_vit_b16_in1k,1,679,NaN,knife,knife,0,0679_ske_dnn_0_knife_00_knife-0030-sketch-35.png
swag_vit_b16_in1k,1,680,NaN,knife,knife,0,0680_ske_dnn_0_knife_00_knife-0031-sketch-36.png
swag_vit_b16_in1k,1,681,NaN,knife,knife,0,0681_ske_dnn_0_knife_00_knife-0032-sketch-37.png
swag_vit_b16_in1k,1,682,NaN,knife,knife,0,0682_ske_dnn_0_knife_00_knife-0033-sketch-38.png
swag_vit_b16_in1k,1,683,NaN,knife,knife,0,0683_ske_dnn_0_knife_00_knife-0034-sketch-39.png
swag_vit_b16_in1k,1,684,NaN,knife,knife,0,0684_ske_dnn_0_knife_00_knife-0035-sketch-4.png
swag_vit_b16_in1k,1,685,NaN,knife,knife,0,0685_ske_dnn_0_knife_00_knife-0036-sketch-40.png
swag_vit_b16_in1k,1,686,NaN,knife,knife,0,0686_ske_dnn_0_knife_00_knife-0037-sketch-41.png
swag_vit_b16_in1k,1,687,NaN,knife,knife,0,0687_ske_dnn_0_knife_00_knife-0038-sketch-42.png
swag_vit_b16_in1k,1,688,NaN,knife,knife,0,0688_ske_dnn_0_knife_00_knife-0039-sketch-43.png
swag_vit_b16_in1k,1,689,NaN,knife,knife,0,0689_ske_dnn_0_knife_00_knife-0040-sketch-44.png
swag_vit_b16_in1k,1,690,NaN,knife,knife,0,0690_ske_dnn_0_knife_00_knife-0041-sketch-45.png
swag_vit_b16_in1k,1,691,NaN,knife,knife,0,0691_ske_dnn_0_knife_00_knife-0042-sketch-46.png
swag_vit_b16_in1k,1,692,NaN,knife,knife,0,0692_ske_dnn_0_knife_00_knife-0043-sketch-47.png
swag_vit_b16_in1k,1,693,NaN,knife,knife,0,0693_ske_dnn_0_knife_00_knife-0044-sketch-48.png
swag_vit_b16_in1k,1,694,NaN,knife,knife,0,0694_ske_dnn_0_knife_00_knife-0045-sketch-49.png
swag_vit_b16_in1k,1,695,NaN,knife,knife,0,0695_ske_dnn_0_knife_00_knife-0046-sketch-5.png
swag_vit_b16_in1k,1,696,NaN,knife,knife,0,0696_ske_dnn_0_knife_00_knife-0047-sketch-50.png
swag_vit_b16_in1k,1,697,NaN,knife,knife,0,0697_ske_dnn_0_knife_00_knife-0048-sketch-6.png
swag_vit_b16_in1k,1,698,NaN,knife,knife,0,0698_ske_dnn_0_knife_00_knife-0049-sketch-7.png
swag_vit_b16_in1k,1,699,NaN,knife,knife,0,0699_ske_dnn_0_knife_00_knife-0050-sketch-8.png
swag_vit_b16_in1k,1,700,NaN,knife,knife,0,0700_ske_dnn_0_knife_00_knife-0051-sketch-9.png
swag_vit_b16_in1k,1,701,NaN,knife,oven,0,0701_ske_dnn_0_oven_00_oven-0001-sketch-0.png
swag_vit_b16_in1k,1,702,NaN,knife,oven,0,0702_ske_dnn_0_oven_00_oven-0002-sketch-1.png
swag_vit_b16_in1k,1,703,NaN,oven,oven,0,0703_ske_dnn_0_oven_00_oven-0003-sketch-10.png
swag_vit_b16_in1k,1,704,NaN,knife,oven,0,0704_ske_dnn_0_oven_00_oven-0004-sketch-11.png
swag_vit_b16_in1k,1,705,NaN,knife,oven,0,0705_ske_dnn_0_oven_00_oven-0005-sketch-12.png
swag_vit_b16_in1k,1,706,NaN,clock,oven,0,0706_ske_dnn_0_oven_00_oven-0006-sketch-13.png
swag_vit_b16_in1k,1,707,NaN,knife,oven,0,0707_ske_dnn_0_oven_00_oven-0007-sketch-14.png
swag_vit_b16_in1k,1,708,NaN,knife,oven,0,0708_ske_dnn_0_oven_00_oven-0008-sketch-15.png
swag_vit_b16_in1k,1,709,NaN,knife,oven,0,0709_ske_dnn_0_oven_00_oven-0009-sketch-16.png
swag_vit_b16_in1k,1,710,NaN,knife,oven,0,0710_ske_dnn_0_oven_00_oven-0010-sketch-17.png
swag_vit_b16_in1k,1,711,NaN,oven,oven,0,0711_ske_dnn_0_oven_00_oven-0011-sketch-18.png
swag_vit_b16_in1k,1,712,NaN,oven,oven,0,0712_ske_dnn_0_oven_00_oven-0012-sketch-19.png
swag_vit_b16_in1k,1,713,NaN,knife,oven,0,0713_ske_dnn_0_oven_00_oven-0013-sketch-2.png
swag_vit_b16_in1k,1,714,NaN,knife,oven,0,0714_ske_dnn_0_oven_00_oven-0014-sketch-20.png
swag_vit_b16_in1k,1,715,NaN,knife,oven,0,0715_ske_dnn_0_oven_00_oven-0015-sketch-21.png
swag_vit_b16_in1k,1,716,NaN,knife,oven,0,0716_ske_dnn_0_oven_00_oven-0016-sketch-22.png
swag_vit_b16_in1k,1,717,NaN,knife,oven,0,0717_ske_dnn_0_oven_00_oven-0018-sketch-24.png
swag_vit_b16_in1k,1,718,NaN,knife,oven,0,0718_ske_dnn_0_oven_00_oven-0019-sketch-25.png
swag_vit_b16_in1k,1,719,NaN,knife,oven,0,0719_ske_dnn_0_oven_00_oven-0020-sketch-26.png
swag_vit_b16_in1k,1,720,NaN,knife,oven,0,0720_ske_dnn_0_oven_00_oven-0021-sketch-27.png
swag_vit_b16_in1k,1,721,NaN,oven,oven,0,0721_ske_dnn_0_oven_00_oven-0022-sketch-28.png
swag_vit_b16_in1k,1,722,NaN,knife,oven,0,0722_ske_dnn_0_oven_00_oven-0023-sketch-29.png
swag_vit_b16_in1k,1,723,NaN,oven,oven,0,0723_ske_dnn_0_oven_00_oven-0024-sketch-3.png
swag_vit_b16_in1k,1,724,NaN,knife,oven,0,0724_ske_dnn_0_oven_00_oven-0025-sketch-30.png
swag_vit_b16_in1k,1,725,NaN,bottle,oven,0,0725_ske_dnn_0_oven_00_oven-0026-sketch-31.png
swag_vit_b16_in1k,1,726,NaN,oven,oven,0,0726_ske_dnn_0_oven_00_oven-0027-sketch-32.png
swag_vit_b16_in1k,1,727,NaN,oven,oven,0,0727_ske_dnn_0_oven_00_oven-0028-sketch-33.png
swag_vit_b16_in1k,1,728,NaN,knife,oven,0,0728_ske_dnn_0_oven_00_oven-0029-sketch-34.png
swag_vit_b16_in1k,1,729,NaN,oven,oven,0,0729_ske_dnn_0_oven_00_oven-0030-sketch-35.png
swag_vit_b16_in1k,1,730,NaN,knife,oven,0,0730_ske_dnn_0_oven_00_oven-0031-sketch-36.png
swag_vit_b16_in1k,1,731,NaN,oven,oven,0,0731_ske_dnn_0_oven_00_oven-0032-sketch-37.png
swag_vit_b16_in1k,1,732,NaN,knife,oven,0,0732_ske_dnn_0_oven_00_oven-0033-sketch-38.png
swag_vit_b16_in1k,1,733,NaN,knife,oven,0,0733_ske_dnn_0_oven_00_oven-0034-sketch-39.png
swag_vit_b16_in1k,1,734,NaN,knife,oven,0,0734_ske_dnn_0_oven_00_oven-0035-sketch-4.png
swag_vit_b16_in1k,1,735,NaN,knife,oven,0,0735_ske_dnn_0_oven_00_oven-0036-sketch-40.png
swag_vit_b16_in1k,1,736,NaN,oven,oven,0,0736_ske_dnn_0_oven_00_oven-0037-sketch-41.png
swag_vit_b16_in1k,1,737,NaN,knife,oven,0,0737_ske_dnn_0_oven_00_oven-0038-sketch-42.png
swag_vit_b16_in1k,1,738,NaN,bottle,oven,0,0738_ske_dnn_0_oven_00_oven-0039-sketch-43.png
swag_vit_b16_in1k,1,739,NaN,knife,oven,0,0739_ske_dnn_0_oven_00_oven-0040-sketch-44.png
swag_vit_b16_in1k,1,740,NaN,cat,oven,0,0740_ske_dnn_0_oven_00_oven-0041-sketch-45.png
swag_vit_b16_in1k,1,741,NaN,oven,oven,0,0741_ske_dnn_0_oven_00_oven-0042-sketch-46.png
swag_vit_b16_in1k,1,742,NaN,oven,oven,0,0742_ske_dnn_0_oven_00_oven-0043-sketch-47.png
swag_vit_b16_in1k,1,743,NaN,oven,oven,0,0743_ske_dnn_0_oven_00_oven-0044-sketch-48.png
swag_vit_b16_in1k,1,744,NaN,knife,oven,0,0744_ske_dnn_0_oven_00_oven-0045-sketch-49.png
swag_vit_b16_in1k,1,745,NaN,bottle,oven,0,0745_ske_dnn_0_oven_00_oven-0046-sketch-5.png
swag_vit_b16_in1k,1,746,NaN,knife,oven,0,0746_ske_dnn_0_oven_00_oven-0047-sketch-50.png
swag_vit_b16_in1k,1,747,NaN,knife,oven,0,0747_ske_dnn_0_oven_00_oven-0048-sketch-6.png
swag_vit_b16_in1k,1,748,NaN,cat,oven,0,0748_ske_dnn_0_oven_00_oven-0049-sketch-7.png
swag_vit_b16_in1k,1,749,NaN,oven,oven,0,0749_ske_dnn_0_oven_00_oven-0050-sketch-8.png
swag_vit_b16_in1k,1,750,NaN,oven,oven,0,0750_ske_dnn_0_oven_00_oven-0051-sketch-9.png
swag_vit_b16_in1k,1,751,NaN,oven,truck,0,0751_ske_dnn_0_truck_00_truck-0007-sketch-14.png
swag_vit_b16_in1k,1,752,NaN,truck,truck,0,0752_ske_dnn_0_truck_00_truck-0012-sketch-19.png
swag_vit_b16_in1k,1,753,NaN,truck,truck,0,0753_ske_dnn_0_truck_00_truck-0025-sketch-30.png
swag_vit_b16_in1k,1,754,NaN,truck,truck,0,0754_ske_dnn_0_truck_00_truck-0029-sketch-34.png
swag_vit_b16_in1k,1,755,NaN,truck,truck,0,0755_ske_dnn_0_truck_00_truck-0034-sketch-39.png
swag_vit_b16_in1k,1,756,NaN,truck,truck,0,0756_ske_dnn_0_truck_00_truck-0045-sketch-49.png
swag_vit_b16_in1k,1,757,NaN,truck,truck,0,0757_ske_dnn_0_truck_00_truck-0050-sketch-8.png
swag_vit_b16_in1k,1,758,NaN,truck,truck,0,0758_ske_dnn_0_truck_00_truck-0075-sketch-3.png
swag_vit_b16_in1k,1,759,NaN,truck,truck,0,0759_ske_dnn_0_truck_00_truck-0076-sketch-30.png
swag_vit_b16_in1k,1,760,NaN,truck,truck,0,0760_ske_dnn_0_truck_00_truck-0079-sketch-33.png
swag_vit_b16_in1k,1,761,NaN,truck,truck,0,0761_ske_dnn_0_truck_00_truck-0088-sketch-41.png
swag_vit_b16_in1k,1,762,NaN,truck,truck,0,0762_ske_dnn_0_truck_00_truck-0112-sketch-17.png
swag_vit_b16_in1k,1,763,NaN,truck,truck,0,0763_ske_dnn_0_truck_00_truck-0115-sketch-2.png
swag_vit_b16_in1k,1,764,NaN,car,truck,0,0764_ske_dnn_0_truck_00_truck-0131-sketch-34.png
swag_vit_b16_in1k,1,765,NaN,car,truck,0,0765_ske_dnn_0_truck_00_truck-0132-sketch-35.png
swag_vit_b16_in1k,1,766,NaN,car,truck,0,0766_ske_dnn_0_truck_00_truck-0134-sketch-37.png
swag_vit_b16_in1k,1,767,NaN,car,truck,0,0767_ske_dnn_0_truck_00_truck-0135-sketch-38.png
swag_vit_b16_in1k,1,768,NaN,truck,truck,0,0768_ske_dnn_0_truck_00_truck-0136-sketch-39.png
swag_vit_b16_in1k,1,769,NaN,truck,truck,0,0769_ske_dnn_0_truck_00_truck-0154-sketch-0.png
swag_vit_b16_in1k,1,770,NaN,truck,truck,0,0770_ske_dnn_0_truck_00_truck-0157-sketch-11.png
swag_vit_b16_in1k,1,771,NaN,knife,truck,0,0771_ske_dnn_0_truck_00_truck-0161-sketch-15.png
swag_vit_b16_in1k,1,772,NaN,truck,truck,0,0772_ske_dnn_0_truck_00_truck-0167-sketch-20.png
swag_vit_b16_in1k,1,773,NaN,truck,truck,0,0773_ske_dnn_0_truck_00_truck-0192-sketch-43.png
swag_vit_b16_in1k,1,774,NaN,oven,truck,0,0774_ske_dnn_0_truck_00_truck-0196-sketch-47.png
swag_vit_b16_in1k,1,775,NaN,truck,truck,0,0775_ske_dnn_0_truck_00_truck-0213-sketch-16.png
swag_vit_b16_in1k,1,776,NaN,truck,truck,0,0776_ske_dnn_0_truck_00_truck-0221-sketch-23.png
swag_vit_b16_in1k,1,777,NaN,truck,truck,0,0777_ske_dnn_0_truck_00_truck-0232-sketch-33.png
swag_vit_b16_in1k,1,778,NaN,truck,truck,0,0778_ske_dnn_0_truck_00_truck-0243-sketch-43.png
swag_vit_b16_in1k,1,779,NaN,truck,truck,0,0779_ske_dnn_0_truck_00_truck-0244-sketch-44.png
swag_vit_b16_in1k,1,780,NaN,truck,truck,0,0780_ske_dnn_0_truck_00_truck-0249-sketch-49.png
swag_vit_b16_in1k,1,781,NaN,car,truck,0,0781_ske_dnn_0_truck_00_truck-0255-sketch-9.png
swag_vit_b16_in1k,1,782,NaN,knife,truck,0,0782_ske_dnn_0_truck_00_truck-0266-sketch-18.png
swag_vit_b16_in1k,1,783,NaN,truck,truck,0,0783_ske_dnn_0_truck_00_truck-0275-sketch-26.png
swag_vit_b16_in1k,1,784,NaN,car,truck,0,0784_ske_dnn_0_truck_00_truck-0286-sketch-36.png
swag_vit_b16_in1k,1,785,NaN,car,truck,0,0785_ske_dnn_0_truck_00_truck-0289-sketch-39.png
swag_vit_b16_in1k,1,786,NaN,truck,truck,0,0786_ske_dnn_0_truck_00_truck-0301-sketch-5.png
swag_vit_b16_in1k,1,787,NaN,car,truck,0,0787_ske_dnn_0_truck_00_truck-0302-sketch-50.png
swag_vit_b16_in1k,1,788,NaN,truck,truck,0,0788_ske_dnn_0_truck_00_truck-0303-sketch-6.png
swag_vit_b16_in1k,1,789,NaN,truck,truck,0,0789_ske_dnn_0_truck_00_truck-0307-sketch-0.png
swag_vit_b16_in1k,1,790,NaN,truck,truck,0,0790_ske_dnn_0_truck_00_truck-0308-sketch-1.png
swag_vit_b16_in1k,1,791,NaN,truck,truck,0,0791_ske_dnn_0_truck_00_truck-0312-sketch-13.png
swag_vit_b16_in1k,1,792,NaN,car,truck,0,0792_ske_dnn_0_truck_00_truck-0336-sketch-35.png
swag_vit_b16_in1k,1,793,NaN,knife,truck,0,0793_ske_dnn_0_truck_00_truck-0342-sketch-40.png
swag_vit_b16_in1k,1,794,NaN,truck,truck,0,0794_ske_dnn_0_truck_00_truck-0348-sketch-46.png
swag_vit_b16_in1k,1,795,NaN,truck,truck,0,0795_ske_dnn_0_truck_00_truck-0355-sketch-7.png
swag_vit_b16_in1k,1,796,NaN,clock,truck,0,0796_ske_dnn_0_truck_00_truck-0368-sketch-18.png
swag_vit_b16_in1k,1,797,NaN,knife,truck,0,0797_ske_dnn_0_truck_00_truck-0369-sketch-19.png
swag_vit_b16_in1k,1,798,NaN,truck,truck,0,0798_ske_dnn_0_truck_00_truck-0384-sketch-32.png
swag_vit_b16_in1k,1,799,NaN,truck,truck,0,0799_ske_dnn_0_truck_00_truck-0385-sketch-33.png
swag_vit_b16_in1k,1,800,NaN,truck,truck,0,0800_ske_dnn_0_truck_00_truck-0386-sketch-34.png
