subj,session,trial,rt,object_response,category,condition,imagename
subject-03,1,1,0.887437105178833,bird,bird,0,0001_ske_s03_0_bird_00_bird-0325-sketch-25.png
subject-03,1,2,0.886656999588013,boat,boat,0,0002_ske_s03_0_boat_00_boat-0002-sketch-1.png
subject-03,1,3,0.794683933258057,car,car,0,0003_ske_s03_0_car_00_car-0151-sketch-7.png
subject-03,1,4,0.874161005020142,bottle,bottle,0,0004_ske_s03_0_bottle_00_bottle-0126-sketch-30.png
subject-03,1,5,1.13202810287476,chair,chair,0,0005_ske_s03_0_chair_00_chair-0040-sketch-44.png
subject-03,1,6,0.859868049621582,car,boat,0,0006_ske_s03_0_boat_00_boat-0180-sketch-32.png
subject-03,1,7,1.08573222160339,knife,knife,0,0007_ske_s03_0_knife_00_knife-0006-sketch-13.png
subject-03,1,8,1.10162591934204,bicycle,bicycle,0,0008_ske_s03_0_bicycle_00_bicycle-0044-sketch-48.png
subject-03,1,9,0.883802175521851,elephant,elephant,0,0009_ske_s03_0_elephant_00_elephant-0021-sketch-27.png
subject-03,1,10,1.04308581352234,airplane,airplane,0,0010_ske_s03_0_airplane_00_airplane-0008-sketch-15.png
subject-03,1,11,1.23910689353943,bird,oven,0,0011_ske_s03_0_oven_00_oven-0019-sketch-25.png
subject-03,1,12,0.68513298034668,keyboard,keyboard,0,0012_ske_s03_0_keyboard_00_keyboard-0047-sketch-50.png
subject-03,1,13,1.18259596824646,oven,oven,0,0013_ske_s03_0_oven_00_oven-0012-sketch-19.png
subject-03,1,14,0.868941783905029,keyboard,keyboard,0,0014_ske_s03_0_keyboard_00_keyboard-0016-sketch-22.png
subject-03,1,15,1.12601494789124,elephant,elephant,0,0015_ske_s03_0_elephant_00_elephant-0098-sketch-50.png
subject-03,1,16,0.778137922286987,bicycle,bicycle,0,0016_ske_s03_0_bicycle_00_bicycle-0048-sketch-6.png
subject-03,1,17,1.10391902923584,knife,knife,0,0017_ske_s03_0_knife_00_knife-0026-sketch-31.png
subject-03,1,18,1.40555310249329,knife,knife,0,0018_ske_s03_0_knife_00_knife-0039-sketch-43.png
subject-03,1,19,NaN,na,truck,0,0019_ske_s03_0_truck_00_truck-0034-sketch-39.png
subject-03,1,20,1.017746925354,oven,oven,0,0020_ske_s03_0_oven_00_oven-0007-sketch-14.png
subject-03,1,21,0.889271020889282,bear,bear,0,0021_ske_s03_0_bear_00_bear-0171-sketch-25.png
subject-03,1,22,0.806807041168213,bird,bird,0,0022_ske_s03_0_bird_00_bird-0316-sketch-17.png
subject-03,1,23,1.25673484802246,cat,cat,0,0023_ske_s03_0_cat_00_cat-0293-sketch-43.png
subject-03,1,24,0.802420854568481,oven,oven,0,0024_ske_s03_0_oven_00_oven-0006-sketch-13.png
subject-03,1,25,0.782407999038696,bear,bear,0,0025_ske_s03_0_bear_00_bear-0073-sketch-29.png
subject-03,1,26,0.757997989654541,oven,oven,0,0026_ske_s03_0_oven_00_oven-0033-sketch-38.png
subject-03,1,27,0.794059038162231,chair,chair,0,0027_ske_s03_0_chair_00_chair-0062-sketch-18.png
subject-03,1,28,0.880177021026611,truck,truck,0,0028_ske_s03_0_truck_00_truck-0384-sketch-32.png
subject-03,1,29,0.835742950439453,chair,chair,0,0029_ske_s03_0_chair_00_chair-0168-sketch-22.png
subject-03,1,30,1.29130482673645,dog,dog,0,0030_ske_s03_0_dog_00_dog-4909-sketch-37.png
subject-03,1,31,1.1272280216217,truck,truck,0,0031_ske_s03_0_truck_00_truck-0154-sketch-0.png
subject-03,1,32,0.777285099029541,bottle,bottle,0,0032_ske_s03_0_bottle_00_bottle-0050-sketch-9.png
subject-03,1,33,0.98492693901062,chair,chair,0,0033_ske_s03_0_chair_00_chair-0052-sketch-0.png
subject-03,1,34,0.822595119476318,keyboard,keyboard,0,0034_ske_s03_0_keyboard_00_keyboard-0044-sketch-48.png
subject-03,1,35,0.78695821762085,car,truck,0,0035_ske_s03_0_truck_00_truck-0286-sketch-36.png
subject-03,1,36,0.940181016921997,knife,knife,0,0036_ske_s03_0_knife_00_knife-0029-sketch-34.png
subject-03,1,37,0.980216026306152,airplane,airplane,0,0037_ske_s03_0_airplane_00_airplane-0001-sketch-0.png
subject-03,1,38,0.921823978424072,clock,clock,0,0038_ske_s03_0_clock_00_clock-0141-sketch-43.png
subject-03,1,39,0.831786155700684,car,truck,0,0039_ske_s03_0_truck_00_truck-0131-sketch-34.png
subject-03,1,40,1.15541911125183,bird,dog,0,0040_ske_s03_0_dog_00_dog-1797-sketch-26.png
subject-03,1,41,1.38536787033081,dog,dog,0,0041_ske_s03_0_dog_00_dog-4709-sketch-4.png
subject-03,1,42,1.33178901672363,bottle,bottle,0,0042_ske_s03_0_bottle_00_bottle-0066-sketch-22.png
subject-03,1,43,0.912822008132935,keyboard,keyboard,0,0043_ske_s03_0_keyboard_00_keyboard-0006-sketch-13.png
subject-03,1,44,1.31484699249268,dog,dog,0,0044_ske_s03_0_dog_00_dog-3503-sketch-6.png
subject-03,1,45,1.07655096054077,bird,bird,0,0045_ske_s03_0_bird_00_bird-1510-sketch-39.png
subject-03,1,46,NaN,na,bird,0,0046_ske_s03_0_bird_00_bird-1702-sketch-29.png
subject-03,1,47,1.18634700775146,car,car,0,0047_ske_s03_0_car_00_car-0040-sketch-44.png
subject-03,1,48,0.801998853683472,car,car,0,0048_ske_s03_0_car_00_car-0129-sketch-32.png
subject-03,1,49,1.12383008003235,truck,truck,0,0049_ske_s03_0_truck_00_truck-0307-sketch-0.png
subject-03,1,50,0.883821964263916,airplane,airplane,0,0050_ske_s03_0_airplane_00_airplane-0035-sketch-4.png
subject-03,1,51,1.01385092735291,boat,boat,0,0051_ske_s03_0_boat_00_boat-0052-sketch-0.png
subject-03,1,52,1.08733701705933,dog,dog,0,0052_ske_s03_0_dog_00_dog-1711-sketch-40.png
subject-03,1,53,1.03953003883362,dog,cat,0,0053_ske_s03_0_cat_00_cat-0279-sketch-30.png
subject-03,1,54,0.773329973220825,bird,bird,0,0054_ske_s03_0_bird_00_bird-0491-sketch-37.png
subject-03,1,55,0.911224126815796,cat,oven,0,0055_ske_s03_0_oven_00_oven-0030-sketch-35.png
subject-03,1,56,0.676440000534058,bear,bear,0,0056_ske_s03_0_bear_00_bear-0086-sketch-40.png
subject-03,1,57,0.794598817825317,bottle,bottle,0,0057_ske_s03_0_bottle_00_bottle-0002-sketch-1.png
subject-03,1,58,1.50010681152344,elephant,bottle,0,0058_ske_s03_0_bottle_00_bottle-0243-sketch-44.png
subject-03,1,59,1.10445308685303,truck,truck,0,0059_ske_s03_0_truck_00_truck-0312-sketch-13.png
subject-03,1,60,0.701785087585449,chair,chair,0,0060_ske_s03_0_chair_00_chair-0088-sketch-41.png
subject-03,1,61,0.857735157012939,chair,chair,0,0061_ske_s03_0_chair_00_chair-0145-sketch-48.png
subject-03,1,62,0.877470970153809,bird,bird,0,0062_ske_s03_0_bird_00_bird-1033-sketch-20.png
subject-03,1,63,0.86525297164917,bird,bird,0,0063_ske_s03_0_bird_00_bird-0640-sketch-33.png
subject-03,1,64,0.84509801864624,oven,clock,0,0064_ske_s03_0_clock_00_clock-0099-sketch-6.png
subject-03,1,65,0.794754981994629,car,car,0,0065_ske_s03_0_car_00_car-0043-sketch-47.png
subject-03,1,66,0.89660906791687,clock,clock,0,0066_ske_s03_0_clock_00_clock-0018-sketch-24.png
subject-03,1,67,0.955014944076538,bear,bear,0,0067_ske_s03_0_bear_00_bear-0187-sketch-4.png
subject-03,1,68,0.770602941513062,bird,bird,0,0068_ske_s03_0_bird_00_bird-1740-sketch-17.png
subject-03,1,69,0.961979150772095,knife,knife,0,0069_ske_s03_0_knife_00_knife-0041-sketch-45.png
subject-03,1,70,0.86982798576355,boat,boat,0,0070_ske_s03_0_boat_00_boat-0113-sketch-18.png
subject-03,1,71,0.913639068603516,bicycle,bicycle,0,0071_ske_s03_0_bicycle_00_bicycle-0046-sketch-5.png
subject-03,1,72,0.877439022064209,car,truck,0,0072_ske_s03_0_truck_00_truck-0289-sketch-39.png
subject-03,1,73,0.765464067459106,keyboard,keyboard,0,0073_ske_s03_0_keyboard_00_keyboard-0064-sketch-2.png
subject-03,1,74,1.0194787979126,bicycle,bicycle,0,0074_ske_s03_0_bicycle_00_bicycle-0037-sketch-41.png
subject-03,1,75,0.959051132202148,cat,cat,0,0075_ske_s03_0_cat_00_cat-0059-sketch-16.png
subject-03,1,76,0.832929134368896,bottle,bottle,0,0076_ske_s03_0_bottle_00_bottle-0090-sketch-44.png
subject-03,1,77,0.968614816665649,airplane,airplane,0,0077_ske_s03_0_airplane_00_airplane-0023-sketch-29.png
subject-03,1,78,0.890485048294067,bear,dog,0,0078_ske_s03_0_dog_00_dog-1759-sketch-38.png
subject-03,1,79,0.856202840805054,airplane,airplane,0,0079_ske_s03_0_airplane_00_airplane-0027-sketch-32.png
subject-03,1,80,1.29004693031311,knife,knife,0,0080_ske_s03_0_knife_00_knife-0036-sketch-40.png
subject-03,1,81,0.921708106994629,knife,knife,0,0081_ske_s03_0_knife_00_knife-0002-sketch-1.png
subject-03,1,82,1.05958700180054,keyboard,keyboard,0,0082_ske_s03_0_keyboard_00_keyboard-0063-sketch-19.png
subject-03,1,83,1.32588791847229,keyboard,dog,0,0083_ske_s03_0_dog_00_dog-3153-sketch-11.png
subject-03,1,84,1.1592710018158,bottle,bottle,0,0084_ske_s03_0_bottle_00_bottle-0003-sketch-10.png
subject-03,1,85,0.713358163833618,bear,bear,0,0085_ske_s03_0_bear_00_bear-0007-sketch-14.png
subject-03,1,86,0.872881889343262,bird,bird,0,0086_ske_s03_0_bird_00_bird-1721-sketch-46.png
subject-03,1,87,0.828890085220337,car,truck,0,0087_ske_s03_0_truck_00_truck-0132-sketch-35.png
subject-03,1,88,0.878592014312744,oven,oven,0,0088_ske_s03_0_oven_00_oven-0024-sketch-3.png
subject-03,1,89,0.718225002288818,car,car,0,0089_ske_s03_0_car_00_car-0117-sketch-21.png
subject-03,1,90,0.832163095474243,chair,chair,0,0090_ske_s03_0_chair_00_chair-0125-sketch-3.png
subject-03,1,91,0.902011871337891,car,truck,0,0091_ske_s03_0_truck_00_truck-0192-sketch-43.png
subject-03,1,92,0.905930995941162,clock,clock,0,0092_ske_s03_0_clock_00_clock-0150-sketch-6.png
subject-03,1,93,0.909569978713989,elephant,elephant,0,0093_ske_s03_0_elephant_00_elephant-0076-sketch-30.png
subject-03,1,94,1.18765497207642,car,car,0,0094_ske_s03_0_car_00_car-0002-sketch-1.png
subject-03,1,95,0.835463047027588,airplane,airplane,0,0095_ske_s03_0_airplane_00_airplane-0009-sketch-16.png
subject-03,1,96,0.843055009841919,bird,bird,0,0096_ske_s03_0_bird_00_bird-1096-sketch-31.png
subject-03,1,97,1.01868605613708,bottle,bottle,0,0097_ske_s03_0_bottle_00_bottle-0030-sketch-35.png
subject-03,1,98,0.758701086044312,bicycle,bicycle,0,0098_ske_s03_0_bicycle_00_bicycle-0066-sketch-21.png
subject-03,1,99,0.990680932998657,bicycle,bicycle,0,0099_ske_s03_0_bicycle_00_bicycle-0102-sketch-9.png
subject-03,1,100,1.06816792488098,airplane,airplane,0,0100_ske_s03_0_airplane_00_airplane-0029-sketch-34.png
subject-03,1,101,0.916078090667725,keyboard,keyboard,0,0101_ske_s03_0_keyboard_00_keyboard-0026-sketch-31.png
subject-03,1,102,0.75416111946106,bottle,bottle,0,0102_ske_s03_0_bottle_00_bottle-0162-sketch-17.png
subject-03,1,103,1.05571389198303,bear,bear,0,0103_ske_s03_0_bear_00_bear-0087-sketch-41.png
subject-03,1,104,0.919940948486328,airplane,airplane,0,0104_ske_s03_0_airplane_00_airplane-0047-sketch-50.png
subject-03,1,105,0.777263879776001,keyboard,keyboard,0,0105_ske_s03_0_keyboard_00_keyboard-0010-sketch-17.png
subject-03,1,106,0.959155797958374,chair,chair,0,0106_ske_s03_0_chair_00_chair-0051-sketch-9.png
subject-03,1,107,0.767254114151001,knife,knife,0,0107_ske_s03_0_knife_00_knife-0019-sketch-25.png
subject-03,1,108,1.05072498321533,cat,cat,0,0108_ske_s03_0_cat_00_cat-0082-sketch-37.png
subject-03,1,109,0.982531070709229,keyboard,car,0,0109_ske_s03_0_car_00_car-0032-sketch-37.png
subject-03,1,110,0.806463956832886,clock,clock,0,0110_ske_s03_0_clock_00_clock-0136-sketch-39.png
subject-03,1,111,0.996337890625,knife,boat,0,0111_ske_s03_0_boat_00_boat-0068-sketch-23.png
subject-03,1,112,1.50018906593323,oven,boat,0,0112_ske_s03_0_boat_00_boat-0194-sketch-45.png
subject-03,1,113,0.942099094390869,cat,cat,0,0113_ske_s03_0_cat_00_cat-0128-sketch-32.png
subject-03,1,114,0.812103986740112,bottle,chair,0,0114_ske_s03_0_chair_00_chair-0178-sketch-31.png
subject-03,1,115,1.0497841835022,car,car,0,0115_ske_s03_0_car_00_car-0096-sketch-49.png
subject-03,1,116,1.04125595092773,boat,boat,0,0116_ske_s03_0_boat_00_boat-0029-sketch-34.png
subject-03,1,117,0.881250858306885,bear,bear,0,0117_ske_s03_0_bear_00_bear-0112-sketch-18.png
subject-03,1,118,0.672859907150269,oven,oven,0,0118_ske_s03_0_oven_00_oven-0038-sketch-42.png
subject-03,1,119,0.822829961776733,keyboard,keyboard,0,0119_ske_s03_0_keyboard_00_keyboard-0045-sketch-49.png
subject-03,1,120,0.659181833267212,oven,oven,0,0120_ske_s03_0_oven_00_oven-0041-sketch-45.png
subject-03,1,121,0.718407869338989,bottle,bottle,0,0121_ske_s03_0_bottle_00_bottle-0313-sketch-15.png
subject-03,1,122,1.08808398246765,chair,chair,0,0122_ske_s03_0_chair_00_chair-0013-sketch-2.png
subject-03,1,123,1.02199387550354,chair,chair,0,0123_ske_s03_0_chair_00_chair-0167-sketch-21.png
subject-03,1,124,NaN,na,airplane,0,0124_ske_s03_0_airplane_00_airplane-0016-sketch-22.png
subject-03,1,125,0.815705060958862,clock,clock,0,0125_ske_s03_0_clock_00_clock-0044-sketch-48.png
subject-03,1,126,0.897409915924072,elephant,elephant,0,0126_ske_s03_0_elephant_00_elephant-0025-sketch-30.png
subject-03,1,127,NaN,na,bird,0,0127_ske_s03_0_bird_00_bird-1148-sketch-32.png
subject-03,1,128,1.17897605895996,oven,dog,0,0128_ske_s03_0_dog_00_dog-1973-sketch-47.png
subject-03,1,129,0.928920984268188,airplane,airplane,0,0129_ske_s03_0_airplane_00_airplane-0015-sketch-21.png
subject-03,1,130,0.800819158554077,bird,bird,0,0130_ske_s03_0_bird_00_bird-2262-sketch-28.png
subject-03,1,131,0.780415058135986,oven,oven,0,0131_ske_s03_0_oven_00_oven-0014-sketch-20.png
subject-03,1,132,1.14445090293884,bottle,bottle,0,0132_ske_s03_0_bottle_00_bottle-0071-sketch-27.png
subject-03,1,133,0.940001010894775,car,car,0,0133_ske_s03_0_car_00_car-0064-sketch-2.png
subject-03,1,134,0.995919942855835,car,car,0,0134_ske_s03_0_car_00_car-0013-sketch-2.png
subject-03,1,135,0.773811817169189,bicycle,bicycle,0,0135_ske_s03_0_bicycle_00_bicycle-0071-sketch-26.png
subject-03,1,136,1.02342796325684,car,car,0,0136_ske_s03_0_car_00_car-0139-sketch-41.png
subject-03,1,137,0.701507091522217,keyboard,keyboard,0,0137_ske_s03_0_keyboard_00_keyboard-0002-sketch-1.png
subject-03,1,138,1.22100019454956,airplane,airplane,0,0138_ske_s03_0_airplane_00_airplane-0038-sketch-42.png
subject-03,1,139,0.757035970687866,elephant,elephant,0,0139_ske_s03_0_elephant_00_elephant-0001-sketch-0.png
subject-03,1,140,1.02102494239807,bird,bird,0,0140_ske_s03_0_bird_00_bird-1201-sketch-34.png
subject-03,1,141,0.668498039245605,keyboard,keyboard,0,0141_ske_s03_0_keyboard_00_keyboard-0007-sketch-14.png
subject-03,1,142,0.818737983703613,bird,dog,0,0142_ske_s03_0_dog_00_dog-0011-sketch-18.png
subject-03,1,143,1.21221089363098,dog,cat,0,0143_ske_s03_0_cat_00_cat-0265-sketch-18.png
subject-03,1,144,0.95001482963562,boat,boat,0,0144_ske_s03_0_boat_00_boat-0036-sketch-40.png
subject-03,1,145,1.11804389953613,bird,bird,0,0145_ske_s03_0_bird_00_bird-0384-sketch-32.png
subject-03,1,146,0.87384295463562,chair,chair,0,0146_ske_s03_0_chair_00_chair-0067-sketch-22.png
subject-03,1,147,1.05344676971436,elephant,elephant,0,0147_ske_s03_0_elephant_00_elephant-0086-sketch-4.png
subject-03,1,148,0.94731593132019,dog,dog,0,0148_ske_s03_0_dog_00_dog-2615-sketch-3.png
subject-03,1,149,0.825202226638794,knife,knife,0,0149_ske_s03_0_knife_00_knife-0040-sketch-44.png
subject-03,1,150,0.836965084075928,elephant,elephant,0,0150_ske_s03_0_elephant_00_elephant-0039-sketch-43.png
subject-03,1,151,0.934651136398315,elephant,elephant,0,0151_ske_s03_0_elephant_00_elephant-0071-sketch-26.png
subject-03,1,152,0.854979038238525,bottle,bottle,0,0152_ske_s03_0_bottle_00_bottle-0280-sketch-31.png
subject-03,1,153,0.926328182220459,elephant,elephant,0,0153_ske_s03_0_elephant_00_elephant-0037-sketch-41.png
subject-03,1,154,1.20639514923096,dog,dog,0,0154_ske_s03_0_dog_00_dog-2198-sketch-20.png
subject-03,1,155,1.0219259262085,truck,truck,0,0155_ske_s03_0_truck_00_truck-0076-sketch-30.png
subject-03,1,156,0.991894960403442,car,car,0,0156_ske_s03_0_car_00_car-0017-sketch-23.png
subject-03,1,157,0.85383415222168,clock,clock,0,0157_ske_s03_0_clock_00_clock-0092-sketch-45.png
subject-03,1,158,0.787301063537598,dog,dog,0,0158_ske_s03_0_dog_00_dog-0607-sketch-8.png
subject-03,1,159,0.853168964385986,keyboard,keyboard,0,0159_ske_s03_0_keyboard_00_keyboard-0035-sketch-4.png
subject-03,1,160,1.00704097747803,knife,knife,0,0160_ske_s03_0_knife_00_knife-0025-sketch-30.png
subject-03,1,161,0.884428977966309,chair,chair,0,0161_ske_s03_0_chair_00_chair-0176-sketch-3.png
subject-03,1,162,1.10407114028931,truck,truck,0,0162_ske_s03_0_truck_00_truck-0308-sketch-1.png
subject-03,1,163,1.12406277656555,boat,boat,0,0163_ske_s03_0_boat_00_boat-0107-sketch-12.png
subject-03,1,164,0.690140962600708,boat,boat,0,0164_ske_s03_0_boat_00_boat-0051-sketch-9.png
subject-03,1,165,0.76401686668396,chair,chair,0,0165_ske_s03_0_chair_00_chair-0011-sketch-18.png
subject-03,1,166,0.853792905807495,airplane,airplane,0,0166_ske_s03_0_airplane_00_airplane-0049-sketch-7.png
subject-03,1,167,0.867419958114624,chair,chair,0,0167_ske_s03_0_chair_00_chair-0005-sketch-12.png
subject-03,1,168,0.795001983642578,airplane,airplane,0,0168_ske_s03_0_airplane_00_airplane-0013-sketch-2.png
subject-03,1,169,0.900812149047852,boat,boat,0,0169_ske_s03_0_boat_00_boat-0010-sketch-17.png
subject-03,1,170,0.854511022567749,knife,knife,0,0170_ske_s03_0_knife_00_knife-0009-sketch-16.png
subject-03,1,171,1.25646018981934,truck,truck,0,0171_ske_s03_0_truck_00_truck-0301-sketch-5.png
subject-03,1,172,1.27642893791199,bear,bear,0,0172_ske_s03_0_bear_00_bear-0037-sketch-41.png
subject-03,1,173,0.704218864440918,chair,chair,0,0173_ske_s03_0_chair_00_chair-0124-sketch-29.png
subject-03,1,174,0.820353984832764,bicycle,bicycle,0,0174_ske_s03_0_bicycle_00_bicycle-0101-sketch-8.png
subject-03,1,175,1.03956818580627,bicycle,bicycle,0,0175_ske_s03_0_bicycle_00_bicycle-0083-sketch-37.png
subject-03,1,176,1.32344794273376,cat,cat,0,0176_ske_s03_0_cat_00_cat-0009-sketch-16.png
subject-03,1,177,1.23938202857971,airplane,boat,0,0177_ske_s03_0_boat_00_boat-0165-sketch-19.png
subject-03,1,178,0.851339101791382,chair,chair,0,0178_ske_s03_0_chair_00_chair-0017-sketch-23.png
subject-03,1,179,0.924848079681396,bear,cat,0,0179_ske_s03_0_cat_00_cat-0027-sketch-32.png
subject-03,1,180,1.11663794517517,bear,bear,0,0180_ske_s03_0_bear_00_bear-0045-sketch-49.png
subject-03,1,181,0.790750980377197,oven,clock,0,0181_ske_s03_0_clock_00_clock-0076-sketch-30.png
subject-03,1,182,1.07031321525574,truck,truck,0,0182_ske_s03_0_truck_00_truck-0012-sketch-19.png
subject-03,1,183,1.05421781539917,keyboard,keyboard,0,0183_ske_s03_0_keyboard_00_keyboard-0059-sketch-15.png
subject-03,1,184,1.10592079162598,knife,knife,0,0184_ske_s03_0_knife_00_knife-0034-sketch-39.png
subject-03,1,185,0.959838151931763,elephant,elephant,0,0185_ske_s03_0_elephant_00_elephant-0032-sketch-37.png
subject-03,1,186,0.743727922439575,bicycle,bicycle,0,0186_ske_s03_0_bicycle_00_bicycle-0004-sketch-11.png
subject-03,1,187,1.19734597206116,cat,cat,0,0187_ske_s03_0_cat_00_cat-0048-sketch-7.png
subject-03,1,188,1.11125302314758,boat,boat,0,0188_ske_s03_0_boat_00_boat-0166-sketch-2.png
subject-03,1,189,0.795214891433716,bottle,bottle,0,0189_ske_s03_0_bottle_00_bottle-0245-sketch-46.png
subject-03,1,190,0.946850061416626,bird,oven,0,0190_ske_s03_0_oven_00_oven-0050-sketch-8.png
subject-03,1,191,1.00674796104431,car,truck,0,0191_ske_s03_0_truck_00_truck-0302-sketch-50.png
subject-03,1,192,1.04453706741333,knife,knife,0,0192_ske_s03_0_knife_00_knife-0014-sketch-20.png
subject-03,1,193,1.0567319393158,bear,elephant,0,0193_ske_s03_0_elephant_00_elephant-0057-sketch-13.png
subject-03,1,194,1.31221914291382,boat,airplane,0,0194_ske_s03_0_airplane_00_airplane-0004-sketch-11.png
subject-03,1,195,0.735902070999146,chair,chair,0,0195_ske_s03_0_chair_00_chair-0071-sketch-26.png
subject-03,1,196,0.911785840988159,boat,boat,0,0196_ske_s03_0_boat_00_boat-0130-sketch-33.png
subject-03,1,197,0.773474931716919,bottle,bottle,0,0197_ske_s03_0_bottle_00_bottle-0150-sketch-7.png
subject-03,1,198,1.0372269153595,chair,chair,0,0198_ske_s03_0_chair_00_chair-0166-sketch-20.png
subject-03,1,199,1.00123691558838,elephant,elephant,0,0199_ske_s03_0_elephant_00_elephant-0043-sketch-47.png
subject-03,1,200,0.821146965026855,car,truck,0,0200_ske_s03_0_truck_00_truck-0303-sketch-6.png
subject-03,1,201,0.796751022338867,clock,clock,0,0201_ske_s03_0_clock_00_clock-0085-sketch-39.png
subject-03,1,202,0.674611806869507,bottle,bottle,0,0202_ske_s03_0_bottle_00_bottle-0054-sketch-11.png
subject-03,1,203,0.886693000793457,bird,bird,0,0203_ske_s03_0_bird_00_bird-0685-sketch-28.png
subject-03,1,204,0.838405132293701,elephant,elephant,0,0204_ske_s03_0_elephant_00_elephant-0028-sketch-33.png
subject-03,1,205,1.26864004135132,elephant,elephant,0,0205_ske_s03_0_elephant_00_elephant-0022-sketch-28.png
subject-03,1,206,0.990076065063477,boat,car,0,0206_ske_s03_0_car_00_car-0022-sketch-28.png
subject-03,1,207,0.979764938354492,bear,bear,0,0207_ske_s03_0_bear_00_bear-0123-sketch-28.png
subject-03,1,208,0.919774055480957,airplane,airplane,0,0208_ske_s03_0_airplane_00_airplane-0032-sketch-37.png
subject-03,1,209,0.919323921203613,bear,bird,0,0209_ske_s03_0_bird_00_bird-1565-sketch-43.png
subject-03,1,210,1.07106900215149,bicycle,bicycle,0,0210_ske_s03_0_bicycle_00_bicycle-0070-sketch-25.png
subject-03,1,211,0.747286081314087,chair,chair,0,0211_ske_s03_0_chair_00_chair-0083-sketch-37.png
subject-03,1,212,0.722795009613037,bicycle,bicycle,0,0212_ske_s03_0_bicycle_00_bicycle-0099-sketch-6.png
subject-03,1,213,0.656517028808594,chair,chair,0,0213_ske_s03_0_chair_00_chair-0094-sketch-47.png
subject-03,1,214,0.762501955032349,car,car,0,0214_ske_s03_0_car_00_car-0100-sketch-7.png
subject-03,1,215,0.810559988021851,airplane,airplane,0,0215_ske_s03_0_airplane_00_airplane-0010-sketch-17.png
subject-03,1,216,0.804067850112915,boat,boat,0,0216_ske_s03_0_boat_00_boat-0239-sketch-4.png
subject-03,1,217,1.28585004806519,dog,dog,0,0217_ske_s03_0_dog_00_dog-4581-sketch-16.png
subject-03,1,218,1.12616801261902,dog,cat,0,0218_ske_s03_0_cat_00_cat-0160-sketch-15.png
subject-03,1,219,1.18341493606567,bottle,bottle,0,0219_ske_s03_0_bottle_00_bottle-0237-sketch-39.png
subject-03,1,220,0.939423084259033,chair,chair,0,0220_ske_s03_0_chair_00_chair-0076-sketch-30.png
subject-03,1,221,1.50006103515625,elephant,boat,0,0221_ske_s03_0_boat_00_boat-0123-sketch-27.png
subject-03,1,222,0.676897048950195,boat,boat,0,0222_ske_s03_0_boat_00_boat-0099-sketch-6.png
subject-03,1,223,0.916798114776611,dog,dog,0,0223_ske_s03_0_dog_00_dog-1460-sketch-44.png
subject-03,1,224,1.07462596893311,bird,bird,0,0224_ske_s03_0_bird_00_bird-2313-sketch-28.png
subject-03,1,225,1.50003600120544,cat,car,0,0225_ske_s03_0_car_00_car-0025-sketch-30.png
subject-03,1,226,1.16822099685669,boat,boat,0,0226_ske_s03_0_boat_00_boat-0178-sketch-30.png
subject-03,1,227,0.803789138793945,airplane,airplane,0,0227_ske_s03_0_airplane_00_airplane-0014-sketch-20.png
subject-03,1,228,1.06385493278503,bear,bear,0,0228_ske_s03_0_bear_00_bear-0199-sketch-50.png
subject-03,1,229,0.919580936431885,knife,knife,0,0229_ske_s03_0_knife_00_knife-0046-sketch-5.png
subject-03,1,230,0.84934401512146,cat,cat,0,0230_ske_s03_0_cat_00_cat-0149-sketch-6.png
subject-03,1,231,0.875149965286255,car,car,0,0231_ske_s03_0_car_00_car-0112-sketch-17.png
subject-03,1,232,0.791090965270996,cat,cat,0,0232_ske_s03_0_cat_00_cat-0090-sketch-44.png
subject-03,1,233,0.758761882781982,airplane,airplane,0,0233_ske_s03_0_airplane_00_airplane-0019-sketch-25.png
subject-03,1,234,0.68452000617981,cat,cat,0,0234_ske_s03_0_cat_00_cat-0085-sketch-4.png
subject-03,1,235,0.602438926696777,clock,clock,0,0235_ske_s03_0_clock_00_clock-0028-sketch-33.png
subject-03,1,236,1.23632597923279,oven,cat,0,0236_ske_s03_0_cat_00_cat-0233-sketch-35.png
subject-03,1,237,1.4121470451355,cat,dog,0,0237_ske_s03_0_dog_00_dog-4202-sketch-4.png
subject-03,1,238,0.789860963821411,oven,oven,0,0238_ske_s03_0_oven_00_oven-0013-sketch-2.png
subject-03,1,239,0.646023988723755,clock,clock,0,0239_ske_s03_0_clock_00_clock-0112-sketch-17.png
subject-03,1,240,0.79141902923584,bird,bird,0,0240_ske_s03_0_bird_00_bird-0578-sketch-23.png
subject-03,1,241,0.685209035873413,clock,clock,0,0241_ske_s03_0_clock_00_clock-0073-sketch-28.png
subject-03,1,242,0.707241058349609,oven,oven,0,0242_ske_s03_0_oven_00_oven-0028-sketch-33.png
subject-03,1,243,0.734961032867432,boat,boat,0,0243_ske_s03_0_boat_00_boat-0197-sketch-48.png
subject-03,1,244,0.742735862731934,boat,boat,0,0244_ske_s03_0_boat_00_boat-0059-sketch-15.png
subject-03,1,245,1.17694401741028,bottle,oven,0,0245_ske_s03_0_oven_00_oven-0018-sketch-24.png
subject-03,1,246,0.698570013046265,clock,clock,0,0246_ske_s03_0_clock_00_clock-0131-sketch-34.png
subject-03,1,247,0.790412902832031,airplane,airplane,0,0247_ske_s03_0_airplane_00_airplane-0036-sketch-40.png
subject-03,1,248,0.990046977996826,knife,knife,0,0248_ske_s03_0_knife_00_knife-0021-sketch-27.png
subject-03,1,249,NaN,na,truck,0,0249_ske_s03_0_truck_00_truck-0368-sketch-18.png
subject-03,1,250,0.789706945419312,knife,knife,0,0250_ske_s03_0_knife_00_knife-0047-sketch-50.png
subject-03,1,251,0.957557916641235,dog,dog,0,0251_ske_s03_0_dog_00_dog-3000-sketch-11.png
subject-03,1,252,0.985147953033447,keyboard,keyboard,0,0252_ske_s03_0_keyboard_00_keyboard-0053-sketch-1.png
subject-03,1,253,NaN,na,bear,0,0253_ske_s03_0_bear_00_bear-0030-sketch-35.png
subject-03,1,254,0.937379121780396,bottle,bottle,0,0254_ske_s03_0_bottle_00_bottle-0189-sketch-41.png
subject-03,1,255,0.893404006958008,dog,dog,0,0255_ske_s03_0_dog_00_dog-3646-sketch-42.png
subject-03,1,256,1.12482190132141,elephant,cat,0,0256_ske_s03_0_cat_00_cat-0260-sketch-13.png
subject-03,1,257,0.846522092819214,bottle,bottle,0,0257_ske_s03_0_bottle_00_bottle-0019-sketch-25.png
subject-03,1,258,0.716295003890991,bicycle,bicycle,0,0258_ske_s03_0_bicycle_00_bicycle-0084-sketch-38.png
subject-03,1,259,0.846160173416138,knife,knife,0,0259_ske_s03_0_knife_00_knife-0045-sketch-49.png
subject-03,1,260,0.604230880737305,bottle,bottle,0,0260_ske_s03_0_bottle_00_bottle-0184-sketch-37.png
subject-03,1,261,0.659796953201294,clock,clock,0,0261_ske_s03_0_clock_00_clock-0070-sketch-25.png
subject-03,1,262,0.859380006790161,clock,clock,0,0262_ske_s03_0_clock_00_clock-0078-sketch-32.png
subject-03,1,263,0.627101898193359,chair,chair,0,0263_ske_s03_0_chair_00_chair-0079-sketch-33.png
subject-03,1,264,1.0589451789856,chair,chair,0,0264_ske_s03_0_chair_00_chair-0006-sketch-13.png
subject-03,1,265,1.11097502708435,bird,oven,0,0265_ske_s03_0_oven_00_oven-0031-sketch-36.png
subject-03,1,266,0.900825023651123,elephant,elephant,0,0266_ske_s03_0_elephant_00_elephant-0075-sketch-3.png
subject-03,1,267,0.826689958572388,bicycle,bicycle,0,0267_ske_s03_0_bicycle_00_bicycle-0056-sketch-12.png
subject-03,1,268,0.820419073104858,bird,bear,0,0268_ske_s03_0_bear_00_bear-0070-sketch-26.png
subject-03,1,269,0.756057024002075,bottle,bottle,0,0269_ske_s03_0_bottle_00_bottle-0086-sketch-40.png
subject-03,1,270,0.978028059005737,bird,bird,0,0270_ske_s03_0_bird_00_bird-2169-sketch-36.png
subject-03,1,271,1.05972695350647,car,car,0,0271_ske_s03_0_car_00_car-0014-sketch-20.png
subject-03,1,272,0.93152904510498,bird,bird,0,0272_ske_s03_0_bird_00_bird-1562-sketch-40.png
subject-03,1,273,0.723430156707764,elephant,elephant,0,0273_ske_s03_0_elephant_00_elephant-0029-sketch-34.png
subject-03,1,274,0.931241035461426,airplane,airplane,0,0274_ske_s03_0_airplane_00_airplane-0045-sketch-49.png
subject-03,1,275,0.976921081542969,dog,dog,0,0275_ske_s03_0_dog_00_dog-4475-sketch-11.png
subject-03,1,276,0.919163942337036,bird,cat,0,0276_ske_s03_0_cat_00_cat-0245-sketch-46.png
subject-03,1,277,1.05070900917053,car,car,0,0277_ske_s03_0_car_00_car-0138-sketch-40.png
subject-03,1,278,1.00047397613525,bird,cat,0,0278_ske_s03_0_cat_00_cat-0062-sketch-19.png
subject-03,1,279,0.934251070022583,bear,bear,0,0279_ske_s03_0_bear_00_bear-0085-sketch-4.png
subject-03,1,280,NaN,na,dog,0,0280_ske_s03_0_dog_00_dog-2323-sketch-41.png
subject-03,1,281,0.87405800819397,clock,clock,0,0281_ske_s03_0_clock_00_clock-0087-sketch-40.png
subject-03,1,282,0.907747030258179,truck,truck,0,0282_ske_s03_0_truck_00_truck-0167-sketch-20.png
subject-03,1,283,0.821307182312012,cat,knife,0,0283_ske_s03_0_knife_00_knife-0030-sketch-35.png
subject-03,1,284,0.835322856903076,elephant,elephant,0,0284_ske_s03_0_elephant_00_elephant-0080-sketch-34.png
subject-03,1,285,0.715689897537231,car,car,0,0285_ske_s03_0_car_00_car-0021-sketch-27.png
subject-03,1,286,0.728775978088379,bicycle,bicycle,0,0286_ske_s03_0_bicycle_00_bicycle-0068-sketch-23.png
subject-03,1,287,1.04670190811157,cat,cat,0,0287_ske_s03_0_cat_00_cat-0274-sketch-26.png
subject-03,1,288,0.826957941055298,keyboard,keyboard,0,0288_ske_s03_0_keyboard_00_keyboard-0068-sketch-23.png
subject-03,1,289,1.01027417182922,bicycle,bicycle,0,0289_ske_s03_0_bicycle_00_bicycle-0002-sketch-1.png
subject-03,1,290,1.09232902526855,bicycle,bicycle,0,0290_ske_s03_0_bicycle_00_bicycle-0026-sketch-31.png
subject-03,1,291,0.736378908157349,elephant,elephant,0,0291_ske_s03_0_elephant_00_elephant-0006-sketch-13.png
subject-03,1,292,0.839820861816406,bird,oven,0,0292_ske_s03_0_oven_00_oven-0032-sketch-37.png
subject-03,1,293,0.967680931091309,dog,dog,0,0293_ske_s03_0_dog_00_dog-3695-sketch-40.png
subject-03,1,294,1.08999180793762,chair,chair,0,0294_ske_s03_0_chair_00_chair-0144-sketch-47.png
subject-03,1,295,0.9272620677948,bottle,bottle,0,0295_ske_s03_0_bottle_00_bottle-0294-sketch-44.png
subject-03,1,296,0.683013916015625,clock,clock,0,0296_ske_s03_0_clock_00_clock-0143-sketch-45.png
subject-03,1,297,0.786965131759644,bird,oven,0,0297_ske_s03_0_oven_00_oven-0027-sketch-32.png
subject-03,1,298,0.770966053009033,bottle,bottle,0,0298_ske_s03_0_bottle_00_bottle-0082-sketch-37.png
subject-03,1,299,0.684761047363281,bicycle,bicycle,0,0299_ske_s03_0_bicycle_00_bicycle-0075-sketch-3.png
subject-03,1,300,1.08420586585999,truck,truck,0,0300_ske_s03_0_truck_00_truck-0342-sketch-40.png
subject-03,1,301,0.846379995346069,bear,bear,0,0301_ske_s03_0_bear_00_bear-0023-sketch-29.png
subject-03,1,302,1.05772590637207,bird,oven,0,0302_ske_s03_0_oven_00_oven-0008-sketch-15.png
subject-03,1,303,0.799659967422485,elephant,elephant,0,0303_ske_s03_0_elephant_00_elephant-0020-sketch-26.png
subject-03,1,304,0.841582059860229,cat,cat,0,0304_ske_s03_0_cat_00_cat-0304-sketch-8.png
subject-03,1,305,0.791355848312378,car,car,0,0305_ske_s03_0_car_00_car-0029-sketch-34.png
subject-03,1,306,1.26550698280334,dog,cat,0,0306_ske_s03_0_cat_00_cat-0207-sketch-11.png
subject-03,1,307,0.766830921173096,bicycle,bicycle,0,0307_ske_s03_0_bicycle_00_bicycle-0019-sketch-25.png
subject-03,1,308,0.878760814666748,knife,knife,0,0308_ske_s03_0_knife_00_knife-0027-sketch-32.png
subject-03,1,309,0.918594121932983,bear,bear,0,0309_ske_s03_0_bear_00_bear-0195-sketch-47.png
subject-03,1,310,0.878497123718262,car,car,0,0310_ske_s03_0_car_00_car-0055-sketch-11.png
subject-03,1,311,0.944173812866211,bear,dog,0,0311_ske_s03_0_dog_00_dog-5223-sketch-45.png
subject-03,1,312,0.950208187103271,bird,bird,0,0312_ske_s03_0_bird_00_bird-0274-sketch-25.png
subject-03,1,313,1.01593208312988,knife,boat,0,0313_ske_s03_0_boat_00_boat-0126-sketch-3.png
subject-03,1,314,0.721734046936035,oven,oven,0,0314_ske_s03_0_oven_00_oven-0015-sketch-21.png
subject-03,1,315,1.06963992118835,knife,knife,0,0315_ske_s03_0_knife_00_knife-0013-sketch-2.png
subject-03,1,316,0.943695068359375,boat,boat,0,0316_ske_s03_0_boat_00_boat-0108-sketch-13.png
subject-03,1,317,0.987029075622559,car,boat,0,0317_ske_s03_0_boat_00_boat-0128-sketch-31.png
subject-03,1,318,0.766776084899902,keyboard,keyboard,0,0318_ske_s03_0_keyboard_00_keyboard-0031-sketch-36.png
subject-03,1,319,0.802602052688599,boat,airplane,0,0319_ske_s03_0_airplane_00_airplane-0046-sketch-5.png
subject-03,1,320,0.688491821289062,clock,clock,0,0320_ske_s03_0_clock_00_clock-0093-sketch-46.png
subject-03,1,321,0.863895893096924,knife,knife,0,0321_ske_s03_0_knife_00_knife-0012-sketch-19.png
subject-03,1,322,0.71158504486084,clock,clock,0,0322_ske_s03_0_clock_00_clock-0030-sketch-35.png
subject-03,1,323,0.809575080871582,bear,dog,0,0323_ske_s03_0_dog_00_dog-3303-sketch-0.png
subject-03,1,324,0.931327104568481,knife,knife,0,0324_ske_s03_0_knife_00_knife-0032-sketch-37.png
subject-03,1,325,0.831279039382935,bird,bird,0,0325_ske_s03_0_bird_00_bird-0357-sketch-9.png
subject-03,1,326,0.962789058685303,dog,dog,0,0326_ske_s03_0_dog_00_dog-0111-sketch-17.png
subject-03,1,327,1.06052684783936,clock,truck,0,0327_ske_s03_0_truck_00_truck-0157-sketch-11.png
subject-03,1,328,0.698434829711914,bicycle,bicycle,0,0328_ske_s03_0_bicycle_00_bicycle-0058-sketch-14.png
subject-03,1,329,0.716173887252808,bottle,bottle,0,0329_ske_s03_0_bottle_00_bottle-0268-sketch-20.png
subject-03,1,330,0.87630295753479,car,car,0,0330_ske_s03_0_car_00_car-0047-sketch-50.png
subject-03,1,331,1.06778216362,elephant,elephant,0,0331_ske_s03_0_elephant_00_elephant-0048-sketch-6.png
subject-03,1,332,1.29338312149048,cat,cat,0,0332_ske_s03_0_cat_00_cat-0150-sketch-7.png
subject-03,1,333,0.753470897674561,clock,clock,0,0333_ske_s03_0_clock_00_clock-0059-sketch-15.png
subject-03,1,334,0.733101844787598,boat,boat,0,0334_ske_s03_0_boat_00_boat-0070-sketch-25.png
subject-03,1,335,0.859046936035156,car,car,0,0335_ske_s03_0_car_00_car-0044-sketch-48.png
subject-03,1,336,1.09676289558411,bear,bear,0,0336_ske_s03_0_bear_00_bear-0041-sketch-45.png
subject-03,1,337,0.87846302986145,clock,clock,0,0337_ske_s03_0_clock_00_clock-0081-sketch-35.png
subject-03,1,338,0.89049506187439,bird,bird,0,0338_ske_s03_0_bird_00_bird-0880-sketch-2.png
subject-03,1,339,0.932315111160278,car,truck,0,0339_ske_s03_0_truck_00_truck-0244-sketch-44.png
subject-03,1,340,1.03372406959534,knife,knife,0,0340_ske_s03_0_knife_00_knife-0050-sketch-8.png
subject-03,1,341,0.939910173416138,bottle,oven,0,0341_ske_s03_0_oven_00_oven-0047-sketch-50.png
subject-03,1,342,1.13776016235352,knife,knife,0,0342_ske_s03_0_knife_00_knife-0035-sketch-4.png
subject-03,1,343,1.28389000892639,clock,keyboard,0,0343_ske_s03_0_keyboard_00_keyboard-0088-sketch-41.png
subject-03,1,344,1.08333492279053,airplane,airplane,0,0344_ske_s03_0_airplane_00_airplane-0024-sketch-3.png
subject-03,1,345,0.890927076339722,boat,boat,0,0345_ske_s03_0_boat_00_boat-0085-sketch-39.png
subject-03,1,346,0.680805921554565,keyboard,keyboard,0,0346_ske_s03_0_keyboard_00_keyboard-0014-sketch-20.png
subject-03,1,347,1.01290583610535,bicycle,bicycle,0,0347_ske_s03_0_bicycle_00_bicycle-0057-sketch-13.png
subject-03,1,348,1.29064083099365,bear,cat,0,0348_ske_s03_0_cat_00_cat-0152-sketch-9.png
subject-03,1,349,1.27880787849426,bear,bear,0,0349_ske_s03_0_bear_00_bear-0059-sketch-16.png
subject-03,1,350,0.98014497756958,airplane,airplane,0,0350_ske_s03_0_airplane_00_airplane-0022-sketch-28.png
subject-03,1,351,1.10995101928711,bicycle,bicycle,0,0351_ske_s03_0_bicycle_00_bicycle-0016-sketch-22.png
subject-03,1,352,1.19776606559753,boat,boat,0,0352_ske_s03_0_boat_00_boat-0074-sketch-29.png
subject-03,1,353,1.01410293579102,bear,bear,0,0353_ske_s03_0_bear_00_bear-0038-sketch-42.png
subject-03,1,354,1.19938993453979,knife,knife,0,0354_ske_s03_0_knife_00_knife-0004-sketch-11.png
subject-03,1,355,1.3411660194397,airplane,airplane,0,0355_ske_s03_0_airplane_00_airplane-0040-sketch-44.png
subject-03,1,356,1.1350109577179,dog,dog,0,0356_ske_s03_0_dog_00_dog-0215-sketch-19.png
subject-03,1,357,0.910835027694702,knife,knife,0,0357_ske_s03_0_knife_00_knife-0043-sketch-47.png
subject-03,1,358,1.18861389160156,knife,knife,0,0358_ske_s03_0_knife_00_knife-0042-sketch-46.png
subject-03,1,359,NaN,na,dog,0,0359_ske_s03_0_dog_00_dog-1292-sketch-3.png
subject-03,1,360,0.810640811920166,bicycle,bicycle,0,0360_ske_s03_0_bicycle_00_bicycle-0090-sketch-43.png
subject-03,1,361,0.828159093856812,bear,bear,0,0361_ske_s03_0_bear_00_bear-0033-sketch-38.png
subject-03,1,362,0.965975046157837,elephant,elephant,0,0362_ske_s03_0_elephant_00_elephant-0077-sketch-31.png
subject-03,1,363,0.813845157623291,car,car,0,0363_ske_s03_0_car_00_car-0009-sketch-16.png
subject-03,1,364,1.03549098968506,bear,bear,0,0364_ske_s03_0_bear_00_bear-0081-sketch-36.png
subject-03,1,365,0.781480073928833,oven,oven,0,0365_ske_s03_0_oven_00_oven-0049-sketch-7.png
subject-03,1,366,1.0232629776001,cat,bicycle,0,0366_ske_s03_0_bicycle_00_bicycle-0031-sketch-36.png
subject-03,1,367,0.847495079040527,bird,bird,0,0367_ske_s03_0_bird_00_bird-0694-sketch-36.png
subject-03,1,368,0.80287504196167,keyboard,keyboard,0,0368_ske_s03_0_keyboard_00_keyboard-0029-sketch-34.png
subject-03,1,369,0.764602899551392,oven,oven,0,0369_ske_s03_0_oven_00_oven-0043-sketch-47.png
subject-03,1,370,1.0263819694519,keyboard,bear,0,0370_ske_s03_0_bear_00_bear-0201-sketch-7.png
subject-03,1,371,1.39028716087341,cat,dog,0,0371_ske_s03_0_dog_00_dog-3573-sketch-22.png
subject-03,1,372,1.17412304878235,elephant,bottle,0,0372_ske_s03_0_bottle_00_bottle-0217-sketch-20.png
subject-03,1,373,1.01386117935181,elephant,elephant,0,0373_ske_s03_0_elephant_00_elephant-0046-sketch-5.png
subject-03,1,374,1.05803108215332,cat,cat,0,0374_ske_s03_0_cat_00_cat-0104-sketch-10.png
subject-03,1,375,0.677571058273315,boat,boat,0,0375_ske_s03_0_boat_00_boat-0152-sketch-8.png
subject-03,1,376,0.86928391456604,elephant,elephant,0,0376_ske_s03_0_elephant_00_elephant-0055-sketch-11.png
subject-03,1,377,0.873507976531982,bird,bird,0,0377_ske_s03_0_bird_00_bird-2372-sketch-36.png
subject-03,1,378,0.814947843551636,chair,chair,0,0378_ske_s03_0_chair_00_chair-0060-sketch-16.png
subject-03,1,379,0.700637102127075,clock,clock,0,0379_ske_s03_0_clock_00_clock-0071-sketch-26.png
subject-03,1,380,0.892419099807739,knife,knife,0,0380_ske_s03_0_knife_00_knife-0038-sketch-42.png
subject-03,1,381,0.930660009384155,bicycle,bicycle,0,0381_ske_s03_0_bicycle_00_bicycle-0098-sketch-50.png
subject-03,1,382,1.15012383460999,bear,bear,0,0382_ske_s03_0_bear_00_bear-0049-sketch-8.png
subject-03,1,383,0.907887935638428,dog,dog,0,0383_ske_s03_0_dog_00_dog-0630-sketch-28.png
subject-03,1,384,0.959995985031128,truck,truck,0,0384_ske_s03_0_truck_00_truck-0050-sketch-8.png
subject-03,1,385,0.82176399230957,oven,truck,0,0385_ske_s03_0_truck_00_truck-0196-sketch-47.png
subject-03,1,386,0.743580102920532,clock,clock,0,0386_ske_s03_0_clock_00_clock-0007-sketch-14.png
subject-03,1,387,1.12335300445557,bear,bear,0,0387_ske_s03_0_bear_00_bear-0090-sketch-44.png
subject-03,1,388,1.20344710350037,bird,chair,0,0388_ske_s03_0_chair_00_chair-0200-sketch-6.png
subject-03,1,389,0.792865991592407,keyboard,keyboard,0,0389_ske_s03_0_keyboard_00_keyboard-0003-sketch-10.png
subject-03,1,390,1.15269207954407,airplane,airplane,0,0390_ske_s03_0_airplane_00_airplane-0041-sketch-45.png
subject-03,1,391,1.21272802352905,airplane,airplane,0,0391_ske_s03_0_airplane_00_airplane-0034-sketch-39.png
subject-03,1,392,0.896294116973877,clock,clock,0,0392_ske_s03_0_clock_00_clock-0057-sketch-13.png
subject-03,1,393,1.39203286170959,knife,knife,0,0393_ske_s03_0_knife_00_knife-0022-sketch-28.png
subject-03,1,394,0.793900966644287,oven,oven,0,0394_ske_s03_0_oven_00_oven-0044-sketch-48.png
subject-03,1,395,0.789840936660767,keyboard,keyboard,0,0395_ske_s03_0_keyboard_00_keyboard-0084-sketch-38.png
subject-03,1,396,0.709798812866211,clock,clock,0,0396_ske_s03_0_clock_00_clock-0077-sketch-31.png
subject-03,1,397,1.0397961139679,bicycle,bicycle,0,0397_ske_s03_0_bicycle_00_bicycle-0040-sketch-44.png
subject-03,1,398,1.15115904808044,bear,bear,0,0398_ske_s03_0_bear_00_bear-0005-sketch-12.png
subject-03,1,399,0.967178821563721,bear,bear,0,0399_ske_s03_0_bear_00_bear-0188-sketch-40.png
subject-03,1,400,0.83875298500061,oven,car,0,0400_ske_s03_0_car_00_car-0034-sketch-39.png
subject-03,1,401,0.816548109054565,chair,chair,0,0401_ske_s03_0_chair_00_chair-0122-sketch-27.png
subject-03,1,402,0.882438182830811,airplane,airplane,0,0402_ske_s03_0_airplane_00_airplane-0006-sketch-13.png
subject-03,1,403,0.742363929748535,bird,bird,0,0403_ske_s03_0_bird_00_bird-0030-sketch-35.png
subject-03,1,404,0.965970039367676,truck,truck,0,0404_ske_s03_0_truck_00_truck-0029-sketch-34.png
subject-03,1,405,0.933796167373657,cat,dog,0,0405_ske_s03_0_dog_00_dog-3915-sketch-0.png
subject-03,1,406,1.12366604804993,bear,cat,0,0406_ske_s03_0_cat_00_cat-0289-sketch-4.png
subject-03,1,407,1.29755592346191,bicycle,bicycle,0,0407_ske_s03_0_bicycle_00_bicycle-0025-sketch-30.png
subject-03,1,408,0.831352949142456,bird,cat,0,0408_ske_s03_0_cat_00_cat-0067-sketch-23.png
subject-03,1,409,1.09309101104736,truck,car,0,0409_ske_s03_0_car_00_car-0005-sketch-12.png
subject-03,1,410,1.50003504753113,cat,bird,0,0410_ske_s03_0_bird_00_bird-0809-sketch-48.png
subject-03,1,411,1.50010895729065,cat,bicycle,0,0411_ske_s03_0_bicycle_00_bicycle-0020-sketch-26.png
subject-03,1,412,0.786832094192505,boat,boat,0,0412_ske_s03_0_boat_00_boat-0079-sketch-33.png
subject-03,1,413,0.934616088867188,knife,knife,0,0413_ske_s03_0_knife_00_knife-0011-sketch-18.png
subject-03,1,414,0.970376014709473,elephant,elephant,0,0414_ske_s03_0_elephant_00_elephant-0058-sketch-14.png
subject-03,1,415,1.08181405067444,knife,boat,0,0415_ske_s03_0_boat_00_boat-0124-sketch-28.png
subject-03,1,416,0.749713897705078,bird,bird,0,0416_ske_s03_0_bird_00_bird-0415-sketch-14.png
subject-03,1,417,0.871808052062988,bird,bird,0,0417_ske_s03_0_bird_00_bird-1756-sketch-31.png
subject-03,1,418,0.907536029815674,bear,dog,0,0418_ske_s03_0_dog_00_dog-3251-sketch-9.png
subject-03,1,419,0.825361013412476,bird,bird,0,0419_ske_s03_0_bird_00_bird-0479-sketch-26.png
subject-03,1,420,0.789025068283081,chair,chair,0,0420_ske_s03_0_chair_00_chair-0153-sketch-0.png
subject-03,1,421,0.894876956939697,dog,dog,0,0421_ske_s03_0_dog_00_dog-1657-sketch-38.png
subject-03,1,422,0.948659896850586,bottle,bottle,0,0422_ske_s03_0_bottle_00_bottle-0330-sketch-30.png
subject-03,1,423,0.846800088882446,cat,cat,0,0423_ske_s03_0_cat_00_cat-0052-sketch-1.png
subject-03,1,424,1.01242589950562,bear,dog,0,0424_ske_s03_0_dog_00_dog-1035-sketch-27.png
subject-03,1,425,1.13420605659485,chair,chair,0,0425_ske_s03_0_chair_00_chair-0063-sketch-19.png
subject-03,1,426,1.11394190788269,dog,bear,0,0426_ske_s03_0_bear_00_bear-0135-sketch-39.png
subject-03,1,427,0.851748943328857,oven,oven,0,0427_ske_s03_0_oven_00_oven-0021-sketch-27.png
subject-03,1,428,0.909458875656128,dog,dog,0,0428_ske_s03_0_dog_00_dog-2291-sketch-12.png
subject-03,1,429,0.979261875152588,elephant,elephant,0,0429_ske_s03_0_elephant_00_elephant-0040-sketch-44.png
subject-03,1,430,0.973090887069702,knife,bird,0,0430_ske_s03_0_bird_00_bird-2312-sketch-27.png
subject-03,1,431,0.965519905090332,bicycle,bicycle,0,0431_ske_s03_0_bicycle_00_bicycle-0054-sketch-10.png
subject-03,1,432,0.76697301864624,chair,chair,0,0432_ske_s03_0_chair_00_chair-0197-sketch-49.png
subject-03,1,433,0.828712940216064,knife,knife,0,0433_ske_s03_0_knife_00_knife-0049-sketch-7.png
subject-03,1,434,0.854350090026855,car,truck,0,0434_ske_s03_0_truck_00_truck-0232-sketch-33.png
subject-03,1,435,1.03828907012939,cat,bear,0,0435_ske_s03_0_bear_00_bear-0053-sketch-10.png
subject-03,1,436,0.772110939025879,keyboard,keyboard,0,0436_ske_s03_0_keyboard_00_keyboard-0008-sketch-15.png
subject-03,1,437,0.806404113769531,boat,boat,0,0437_ske_s03_0_boat_00_boat-0212-sketch-15.png
subject-03,1,438,0.75206184387207,clock,clock,0,0438_ske_s03_0_clock_00_clock-0021-sketch-27.png
subject-03,1,439,0.763975858688354,oven,oven,0,0439_ske_s03_0_oven_00_oven-0016-sketch-22.png
subject-03,1,440,0.855250120162964,bottle,bottle,0,0440_ske_s03_0_bottle_00_bottle-0038-sketch-42.png
subject-03,1,441,0.809186935424805,boat,boat,0,0441_ske_s03_0_boat_00_boat-0146-sketch-48.png
subject-03,1,442,0.999098062515259,airplane,airplane,0,0442_ske_s03_0_airplane_00_airplane-0030-sketch-35.png
subject-03,1,443,0.936759948730469,bear,bear,0,0443_ske_s03_0_bear_00_bear-0198-sketch-5.png
subject-03,1,444,0.674582958221436,bottle,bottle,0,0444_ske_s03_0_bottle_00_bottle-0301-sketch-50.png
subject-03,1,445,0.748539924621582,clock,clock,0,0445_ske_s03_0_clock_00_clock-0115-sketch-2.png
subject-03,1,446,0.980370998382568,airplane,airplane,0,0446_ske_s03_0_airplane_00_airplane-0039-sketch-43.png
subject-03,1,447,0.839972972869873,elephant,elephant,0,0447_ske_s03_0_elephant_00_elephant-0019-sketch-25.png
subject-03,1,448,1.39597702026367,keyboard,keyboard,0,0448_ske_s03_0_keyboard_00_keyboard-0071-sketch-26.png
subject-03,1,449,0.689783096313477,oven,oven,0,0449_ske_s03_0_oven_00_oven-0045-sketch-49.png
subject-03,1,450,0.919523000717163,bird,bird,0,0450_ske_s03_0_bird_00_bird-0228-sketch-3.png
subject-03,1,451,0.619389057159424,clock,clock,0,0451_ske_s03_0_clock_00_clock-0133-sketch-36.png
subject-03,1,452,0.885622978210449,knife,knife,0,0452_ske_s03_0_knife_00_knife-0023-sketch-29.png
subject-03,1,453,0.661263942718506,bottle,bottle,0,0453_ske_s03_0_bottle_00_bottle-0041-sketch-45.png
subject-03,1,454,1.02511215209961,truck,truck,0,0454_ske_s03_0_truck_00_truck-0355-sketch-7.png
subject-03,1,455,0.762484073638916,clock,clock,0,0455_ske_s03_0_clock_00_clock-0022-sketch-28.png
subject-03,1,456,1.0483090877533,elephant,elephant,0,0456_ske_s03_0_elephant_00_elephant-0090-sketch-43.png
subject-03,1,457,0.864039897918701,airplane,airplane,0,0457_ske_s03_0_airplane_00_airplane-0005-sketch-12.png
subject-03,1,458,0.955966949462891,car,car,0,0458_ske_s03_0_car_00_car-0092-sketch-45.png
subject-03,1,459,1.2741539478302,bear,bear,0,0459_ske_s03_0_bear_00_bear-0026-sketch-31.png
subject-03,1,460,1.11957097053528,bear,bear,0,0460_ske_s03_0_bear_00_bear-0079-sketch-34.png
subject-03,1,461,1.11182689666748,knife,knife,0,0461_ske_s03_0_knife_00_knife-0010-sketch-17.png
subject-03,1,462,0.683089971542358,cat,cat,0,0462_ske_s03_0_cat_00_cat-0042-sketch-46.png
subject-03,1,463,0.781299829483032,car,car,0,0463_ske_s03_0_car_00_car-0120-sketch-24.png
subject-03,1,464,0.612959146499634,oven,oven,0,0464_ske_s03_0_oven_00_oven-0011-sketch-18.png
subject-03,1,465,0.640759944915771,oven,oven,0,0465_ske_s03_0_oven_00_oven-0003-sketch-10.png
subject-03,1,466,0.964791059494019,bird,chair,0,0466_ske_s03_0_chair_00_chair-0180-sketch-33.png
subject-03,1,467,0.97623085975647,cat,bird,0,0467_ske_s03_0_bird_00_bird-0834-sketch-24.png
subject-03,1,468,1.20210790634155,truck,truck,0,0468_ske_s03_0_truck_00_truck-0385-sketch-33.png
subject-03,1,469,1.03209495544434,bird,cat,0,0469_ske_s03_0_cat_00_cat-0241-sketch-42.png
subject-03,1,470,0.943587064743042,knife,knife,0,0470_ske_s03_0_knife_00_knife-0007-sketch-14.png
subject-03,1,471,0.797881126403809,oven,oven,0,0471_ske_s03_0_oven_00_oven-0029-sketch-34.png
subject-03,1,472,0.825299978256226,airplane,airplane,0,0472_ske_s03_0_airplane_00_airplane-0017-sketch-23.png
subject-03,1,473,1.33734607696533,boat,car,0,0473_ske_s03_0_car_00_car-0018-sketch-24.png
subject-03,1,474,0.925368070602417,bicycle,bicycle,0,0474_ske_s03_0_bicycle_00_bicycle-0062-sketch-18.png
subject-03,1,475,1.43081188201904,airplane,airplane,0,0475_ske_s03_0_airplane_00_airplane-0002-sketch-1.png
subject-03,1,476,0.760627031326294,car,truck,0,0476_ske_s03_0_truck_00_truck-0275-sketch-26.png
subject-03,1,477,0.674401044845581,oven,oven,0,0477_ske_s03_0_oven_00_oven-0039-sketch-43.png
subject-03,1,478,1.02650594711304,knife,knife,0,0478_ske_s03_0_knife_00_knife-0001-sketch-0.png
subject-03,1,479,0.970103979110718,car,truck,0,0479_ske_s03_0_truck_00_truck-0135-sketch-38.png
subject-03,1,480,0.893907070159912,airplane,airplane,0,0480_ske_s03_0_airplane_00_airplane-0044-sketch-48.png
subject-03,1,481,1.14288687705994,bear,cat,0,0481_ske_s03_0_cat_00_cat-0295-sketch-45.png
subject-03,1,482,0.840728998184204,keyboard,keyboard,0,0482_ske_s03_0_keyboard_00_keyboard-0041-sketch-45.png
subject-03,1,483,0.804196119308472,car,car,0,0483_ske_s03_0_car_00_car-0153-sketch-9.png
subject-03,1,484,0.778532028198242,bear,bear,0,0484_ske_s03_0_bear_00_bear-0107-sketch-13.png
subject-03,1,485,0.866016149520874,bicycle,bicycle,0,0485_ske_s03_0_bicycle_00_bicycle-0045-sketch-49.png
subject-03,1,486,1.01020383834839,cat,bear,0,0486_ske_s03_0_bear_00_bear-0170-sketch-24.png
subject-03,1,487,0.963729858398438,truck,truck,0,0487_ske_s03_0_truck_00_truck-0112-sketch-17.png
subject-03,1,488,0.927411079406738,boat,boat,0,0488_ske_s03_0_boat_00_boat-0110-sketch-15.png
subject-03,1,489,1.01913213729858,elephant,elephant,0,0489_ske_s03_0_elephant_00_elephant-0052-sketch-0.png
subject-03,1,490,0.745265960693359,boat,boat,0,0490_ske_s03_0_boat_00_boat-0132-sketch-35.png
subject-03,1,491,0.767053127288818,bottle,bottle,0,0491_ske_s03_0_bottle_00_bottle-0202-sketch-8.png
subject-03,1,492,0.831159114837646,chair,chair,0,0492_ske_s03_0_chair_00_chair-0127-sketch-31.png
subject-03,1,493,0.876467227935791,bird,bird,0,0493_ske_s03_0_bird_00_bird-0474-sketch-21.png
subject-03,1,494,1.00446701049805,bear,bear,0,0494_ske_s03_0_bear_00_bear-0068-sketch-24.png
subject-03,1,495,0.788071870803833,bottle,bottle,0,0495_ske_s03_0_bottle_00_bottle-0321-sketch-22.png
subject-03,1,496,0.88988184928894,oven,oven,0,0496_ske_s03_0_oven_00_oven-0009-sketch-16.png
subject-03,1,497,0.827913045883179,airplane,airplane,0,0497_ske_s03_0_airplane_00_airplane-0012-sketch-19.png
subject-03,1,498,0.8856520652771,elephant,elephant,0,0498_ske_s03_0_elephant_00_elephant-0044-sketch-48.png
subject-03,1,499,1.08151507377625,keyboard,keyboard,0,0499_ske_s03_0_keyboard_00_keyboard-0076-sketch-30.png
subject-03,1,500,0.991215944290161,bicycle,bicycle,0,0500_ske_s03_0_bicycle_00_bicycle-0078-sketch-32.png
subject-03,1,501,0.992872953414917,bottle,bottle,0,0501_ske_s03_0_bottle_00_bottle-0215-sketch-19.png
subject-03,1,502,0.715157985687256,boat,boat,0,0502_ske_s03_0_boat_00_boat-0094-sketch-47.png
subject-03,1,503,0.826752901077271,bicycle,bicycle,0,0503_ske_s03_0_bicycle_00_bicycle-0013-sketch-2.png
subject-03,1,504,0.7588791847229,oven,oven,0,0504_ske_s03_0_oven_00_oven-0037-sketch-41.png
subject-03,1,505,0.894266843795776,bicycle,bicycle,0,0505_ske_s03_0_bicycle_00_bicycle-0053-sketch-1.png
subject-03,1,506,0.96811580657959,dog,dog,0,0506_ske_s03_0_dog_00_dog-4208-sketch-45.png
subject-03,1,507,1.12980318069458,bird,oven,0,0507_ske_s03_0_oven_00_oven-0002-sketch-1.png
subject-03,1,508,0.741688966751099,boat,boat,0,0508_ske_s03_0_boat_00_boat-0064-sketch-2.png
subject-03,1,509,1.25753998756409,truck,truck,0,0509_ske_s03_0_truck_00_truck-0348-sketch-46.png
subject-03,1,510,0.975633144378662,dog,dog,0,0510_ske_s03_0_dog_00_dog-3338-sketch-40.png
subject-03,1,511,0.861278057098389,boat,boat,0,0511_ske_s03_0_boat_00_boat-0173-sketch-26.png
subject-03,1,512,0.848960161209106,clock,clock,0,0512_ske_s03_0_clock_00_clock-0074-sketch-29.png
subject-03,1,513,0.878766059875488,dog,dog,0,0513_ske_s03_0_dog_00_dog-0243-sketch-44.png
subject-03,1,514,0.96665096282959,cat,cat,0,0514_ske_s03_0_cat_00_cat-0053-sketch-10.png
subject-03,1,515,1.1924889087677,truck,truck,0,0515_ske_s03_0_truck_00_truck-0007-sketch-14.png
subject-03,1,516,0.820268154144287,chair,chair,0,0516_ske_s03_0_chair_00_chair-0014-sketch-20.png
subject-03,1,517,0.806122064590454,oven,oven,0,0517_ske_s03_0_oven_00_oven-0026-sketch-31.png
subject-03,1,518,1.08388495445251,car,truck,0,0518_ske_s03_0_truck_00_truck-0266-sketch-18.png
subject-03,1,519,0.859641790390015,chair,chair,0,0519_ske_s03_0_chair_00_chair-0029-sketch-34.png
subject-03,1,520,1.08549809455872,bottle,bottle,0,0520_ske_s03_0_bottle_00_bottle-0305-sketch-9.png
subject-03,1,521,0.939506053924561,bear,bear,0,0521_ske_s03_0_bear_00_bear-0149-sketch-6.png
subject-03,1,522,0.827019214630127,clock,clock,0,0522_ske_s03_0_clock_00_clock-0005-sketch-12.png
subject-03,1,523,1.20083117485046,bear,dog,0,0523_ske_s03_0_dog_00_dog-4499-sketch-33.png
subject-03,1,524,0.942759037017822,car,car,0,0524_ske_s03_0_car_00_car-0076-sketch-30.png
subject-03,1,525,0.804391860961914,bottle,bottle,0,0525_ske_s03_0_bottle_00_bottle-0292-sketch-42.png
subject-03,1,526,0.840250015258789,chair,keyboard,0,0526_ske_s03_0_keyboard_00_keyboard-0074-sketch-29.png
subject-03,1,527,0.648247003555298,boat,boat,0,0527_ske_s03_0_boat_00_boat-0115-sketch-2.png
subject-03,1,528,0.770074844360352,oven,oven,0,0528_ske_s03_0_oven_00_oven-0042-sketch-46.png
subject-03,1,529,1.10987997055054,dog,dog,0,0529_ske_s03_0_dog_00_dog-4325-sketch-13.png
subject-03,1,530,1.08958387374878,bottle,bottle,0,0530_ske_s03_0_bottle_00_bottle-0143-sketch-46.png
subject-03,1,531,1.07124495506287,elephant,elephant,0,0531_ske_s03_0_elephant_00_elephant-0012-sketch-19.png
subject-03,1,532,1.09309887886047,dog,cat,0,0532_ske_s03_0_cat_00_cat-0269-sketch-21.png
subject-03,1,533,1.08703112602234,keyboard,keyboard,0,0533_ske_s03_0_keyboard_00_keyboard-0038-sketch-42.png
subject-03,1,534,0.895015954971313,elephant,elephant,0,0534_ske_s03_0_elephant_00_elephant-0054-sketch-10.png
subject-03,1,535,0.952666997909546,car,truck,0,0535_ske_s03_0_truck_00_truck-0336-sketch-35.png
subject-03,1,536,0.88053297996521,car,car,0,0536_ske_s03_0_car_00_car-0050-sketch-8.png
subject-03,1,537,0.702308893203735,oven,oven,0,0537_ske_s03_0_oven_00_oven-0004-sketch-11.png
subject-03,1,538,0.7725510597229,cat,cat,0,0538_ske_s03_0_cat_00_cat-0002-sketch-1.png
subject-03,1,539,0.794209003448486,bird,bird,0,0539_ske_s03_0_bird_00_bird-0292-sketch-41.png
subject-03,1,540,0.953667879104614,chair,keyboard,0,0540_ske_s03_0_keyboard_00_keyboard-0062-sketch-18.png
subject-03,1,541,1.31762194633484,airplane,clock,0,0541_ske_s03_0_clock_00_clock-0017-sketch-23.png
subject-03,1,542,0.993767976760864,clock,clock,0,0542_ske_s03_0_clock_00_clock-0067-sketch-22.png
subject-03,1,543,1.17709493637085,cat,bottle,0,0543_ske_s03_0_bottle_00_bottle-0135-sketch-39.png
subject-03,1,544,0.996829032897949,chair,chair,0,0544_ske_s03_0_chair_00_chair-0155-sketch-10.png
subject-03,1,545,1.28263211250305,car,car,0,0545_ske_s03_0_car_00_car-0083-sketch-37.png
subject-03,1,546,0.744649171829224,oven,oven,0,0546_ske_s03_0_oven_00_oven-0020-sketch-26.png
subject-03,1,547,0.992462873458862,truck,truck,0,0547_ske_s03_0_truck_00_truck-0386-sketch-34.png
subject-03,1,548,0.982143878936768,cat,cat,0,0548_ske_s03_0_cat_00_cat-0044-sketch-48.png
subject-03,1,549,0.862077951431274,boat,car,0,0549_ske_s03_0_car_00_car-0079-sketch-33.png
subject-03,1,550,0.949876070022583,knife,knife,0,0550_ske_s03_0_knife_00_knife-0051-sketch-9.png
subject-03,1,551,0.921664953231812,bird,cat,0,0551_ske_s03_0_cat_00_cat-0229-sketch-31.png
subject-03,1,552,0.905478000640869,bird,bird,0,0552_ske_s03_0_bird_00_bird-0748-sketch-39.png
subject-03,1,553,0.79936408996582,bird,bird,0,0553_ske_s03_0_bird_00_bird-1937-sketch-10.png
subject-03,1,554,0.885114908218384,boat,boat,0,0554_ske_s03_0_boat_00_boat-0253-sketch-7.png
subject-03,1,555,0.956991910934448,bear,cat,0,0555_ske_s03_0_cat_00_cat-0124-sketch-29.png
subject-03,1,556,0.804532051086426,chair,chair,0,0556_ske_s03_0_chair_00_chair-0072-sketch-27.png
subject-03,1,557,0.878965854644775,car,bicycle,0,0557_ske_s03_0_bicycle_00_bicycle-0039-sketch-43.png
subject-03,1,558,0.898386001586914,bear,bear,0,0558_ske_s03_0_bear_00_bear-0161-sketch-16.png
subject-03,1,559,0.714070081710815,bottle,bottle,0,0559_ske_s03_0_bottle_00_bottle-0031-sketch-36.png
subject-03,1,560,0.861847162246704,boat,boat,0,0560_ske_s03_0_boat_00_boat-0034-sketch-39.png
subject-03,1,561,1.05367493629456,cat,oven,0,0561_ske_s03_0_oven_00_oven-0034-sketch-39.png
subject-03,1,562,0.853543043136597,bear,bear,0,0562_ske_s03_0_bear_00_bear-0048-sketch-7.png
subject-03,1,563,0.859430074691772,bicycle,bicycle,0,0563_ske_s03_0_bicycle_00_bicycle-0080-sketch-34.png
subject-03,1,564,1.35522389411926,knife,knife,0,0564_ske_s03_0_knife_00_knife-0017-sketch-23.png
subject-03,1,565,0.952937841415405,keyboard,keyboard,0,0565_ske_s03_0_keyboard_00_keyboard-0023-sketch-29.png
subject-03,1,566,0.807179927825928,keyboard,keyboard,0,0566_ske_s03_0_keyboard_00_keyboard-0085-sketch-39.png
subject-03,1,567,0.778656005859375,keyboard,keyboard,0,0567_ske_s03_0_keyboard_00_keyboard-0052-sketch-0.png
subject-03,1,568,0.774503946304321,oven,oven,0,0568_ske_s03_0_oven_00_oven-0001-sketch-0.png
subject-03,1,569,0.740483045578003,boat,boat,0,0569_ske_s03_0_boat_00_boat-0228-sketch-3.png
subject-03,1,570,0.790103912353516,cat,cat,0,0570_ske_s03_0_cat_00_cat-0016-sketch-22.png
subject-03,1,571,0.896291971206665,knife,knife,0,0571_ske_s03_0_knife_00_knife-0020-sketch-26.png
subject-03,1,572,0.867717027664185,keyboard,keyboard,0,0572_ske_s03_0_keyboard_00_keyboard-0005-sketch-12.png
subject-03,1,573,1.33361101150513,dog,dog,0,0573_ske_s03_0_dog_00_dog-5354-sketch-25.png
subject-03,1,574,1.15735387802124,elephant,elephant,0,0574_ske_s03_0_elephant_00_elephant-0101-sketch-8.png
subject-03,1,575,0.776100158691406,clock,clock,0,0575_ske_s03_0_clock_00_clock-0095-sketch-48.png
subject-03,1,576,0.79093599319458,elephant,elephant,0,0576_ske_s03_0_elephant_00_elephant-0013-sketch-2.png
subject-03,1,577,0.778774976730347,oven,oven,0,0577_ske_s03_0_oven_00_oven-0040-sketch-44.png
subject-03,1,578,0.916674852371216,chair,chair,0,0578_ske_s03_0_chair_00_chair-0175-sketch-29.png
subject-03,1,579,1.108393907547,oven,oven,0,0579_ske_s03_0_oven_00_oven-0036-sketch-40.png
subject-03,1,580,1.06448793411255,bear,cat,0,0580_ske_s03_0_cat_00_cat-0264-sketch-17.png
subject-03,1,581,0.904013156890869,dog,cat,0,0581_ske_s03_0_cat_00_cat-0250-sketch-50.png
subject-03,1,582,1.07596898078918,cat,dog,0,0582_ske_s03_0_dog_00_dog-0476-sketch-26.png
subject-03,1,583,0.845849990844727,boat,truck,0,0583_ske_s03_0_truck_00_truck-0079-sketch-33.png
subject-03,1,584,1.04546999931335,bear,bear,0,0584_ske_s03_0_bear_00_bear-0103-sketch-1.png
subject-03,1,585,0.899383068084717,bird,bird,0,0585_ske_s03_0_bird_00_bird-0072-sketch-27.png
subject-03,1,586,0.905168056488037,car,car,0,0586_ske_s03_0_car_00_car-0136-sketch-39.png
subject-03,1,587,0.851334095001221,airplane,airplane,0,0587_ske_s03_0_airplane_00_airplane-0025-sketch-30.png
subject-03,1,588,0.890606880187988,bird,bird,0,0588_ske_s03_0_bird_00_bird-0733-sketch-25.png
subject-03,1,589,0.682854890823364,clock,clock,0,0589_ske_s03_0_clock_00_clock-0138-sketch-40.png
subject-03,1,590,1.14828491210938,bear,bear,0,0590_ske_s03_0_bear_00_bear-0036-sketch-40.png
subject-03,1,591,0.918231964111328,car,car,0,0591_ske_s03_0_car_00_car-0145-sketch-47.png
subject-03,1,592,1.17388415336609,bear,bear,0,0592_ske_s03_0_bear_00_bear-0027-sketch-32.png
subject-03,1,593,0.740180969238281,clock,clock,0,0593_ske_s03_0_clock_00_clock-0132-sketch-35.png
subject-03,1,594,0.977540016174316,car,truck,0,0594_ske_s03_0_truck_00_truck-0213-sketch-16.png
subject-03,1,595,1.00556397438049,bird,bird,0,0595_ske_s03_0_bird_00_bird-0646-sketch-39.png
subject-03,1,596,0.743317842483521,oven,bicycle,0,0596_ske_s03_0_bicycle_00_bicycle-0022-sketch-28.png
subject-03,1,597,0.75113320350647,clock,clock,0,0597_ske_s03_0_clock_00_clock-0118-sketch-22.png
subject-03,1,598,0.866897106170654,elephant,elephant,0,0598_ske_s03_0_elephant_00_elephant-0061-sketch-17.png
subject-03,1,599,1.03270196914673,bird,oven,0,0599_ske_s03_0_oven_00_oven-0023-sketch-29.png
subject-03,1,600,1.20035886764526,cat,cat,0,0600_ske_s03_0_cat_00_cat-0073-sketch-29.png
subject-03,1,601,1.03233098983765,keyboard,keyboard,0,0601_ske_s03_0_keyboard_00_keyboard-0033-sketch-38.png
subject-03,1,602,1.25251698493958,boat,boat,0,0602_ske_s03_0_boat_00_boat-0016-sketch-22.png
subject-03,1,603,0.771996021270752,bicycle,bicycle,0,0603_ske_s03_0_bicycle_00_bicycle-0008-sketch-15.png
subject-03,1,604,0.697649002075195,chair,chair,0,0604_ske_s03_0_chair_00_chair-0055-sketch-11.png
subject-03,1,605,0.803613901138306,car,car,0,0605_ske_s03_0_car_00_car-0125-sketch-29.png
subject-03,1,606,0.767238140106201,oven,oven,0,0606_ske_s03_0_oven_00_oven-0051-sketch-9.png
subject-03,1,607,1.11518597602844,elephant,elephant,0,0607_ske_s03_0_elephant_00_elephant-0015-sketch-21.png
subject-03,1,608,0.802908897399902,knife,knife,0,0608_ske_s03_0_knife_00_knife-0015-sketch-21.png
subject-03,1,609,1.3066828250885,knife,knife,0,0609_ske_s03_0_knife_00_knife-0005-sketch-12.png
subject-03,1,610,0.734433174133301,chair,chair,0,0610_ske_s03_0_chair_00_chair-0118-sketch-23.png
subject-03,1,611,0.776627063751221,oven,oven,0,0611_ske_s03_0_oven_00_oven-0025-sketch-30.png
subject-03,1,612,0.804227113723755,bear,bear,0,0612_ske_s03_0_bear_00_bear-0110-sketch-16.png
subject-03,1,613,0.750041007995605,keyboard,keyboard,0,0613_ske_s03_0_keyboard_00_keyboard-0086-sketch-4.png
subject-03,1,614,0.917834043502808,clock,clock,0,0614_ske_s03_0_clock_00_clock-0110-sketch-15.png
subject-03,1,615,0.93558406829834,dog,dog,0,0615_ske_s03_0_dog_00_dog-5084-sketch-11.png
subject-03,1,616,0.771458864212036,knife,knife,0,0616_ske_s03_0_knife_00_knife-0024-sketch-3.png
subject-03,1,617,0.791296005249023,boat,boat,0,0617_ske_s03_0_boat_00_boat-0088-sketch-41.png
subject-03,1,618,1.48904800415039,cat,bear,0,0618_ske_s03_0_bear_00_bear-0166-sketch-20.png
subject-03,1,619,0.655025959014893,clock,clock,0,0619_ske_s03_0_clock_00_clock-0137-sketch-4.png
subject-03,1,620,1.09683394432068,airplane,airplane,0,0620_ske_s03_0_airplane_00_airplane-0028-sketch-33.png
subject-03,1,621,1.420578956604,dog,bear,0,0621_ske_s03_0_bear_00_bear-0137-sketch-40.png
subject-03,1,622,0.95451021194458,car,car,0,0622_ske_s03_0_car_00_car-0114-sketch-19.png
subject-03,1,623,0.914077997207642,car,car,0,0623_ske_s03_0_car_00_car-0030-sketch-35.png
subject-03,1,624,0.917862176895142,boat,boat,0,0624_ske_s03_0_boat_00_boat-0233-sketch-34.png
subject-03,1,625,0.819646120071411,airplane,airplane,0,0625_ske_s03_0_airplane_00_airplane-0048-sketch-6.png
subject-03,1,626,1.24199891090393,bicycle,bicycle,0,0626_ske_s03_0_bicycle_00_bicycle-0095-sketch-48.png
subject-03,1,627,1.12928199768066,dog,bicycle,0,0627_ske_s03_0_bicycle_00_bicycle-0034-sketch-39.png
subject-03,1,628,0.953232049942017,elephant,elephant,0,0628_ske_s03_0_elephant_00_elephant-0066-sketch-21.png
subject-03,1,629,1.08499598503113,bicycle,bicycle,0,0629_ske_s03_0_bicycle_00_bicycle-0038-sketch-42.png
subject-03,1,630,0.799027919769287,keyboard,keyboard,0,0630_ske_s03_0_keyboard_00_keyboard-0009-sketch-16.png
subject-03,1,631,0.840602874755859,cat,cat,0,0631_ske_s03_0_cat_00_cat-0011-sketch-18.png
subject-03,1,632,0.876452922821045,bird,bear,0,0632_ske_s03_0_bear_00_bear-0117-sketch-22.png
subject-03,1,633,0.998378038406372,bird,bird,0,0633_ske_s03_0_bird_00_bird-0954-sketch-40.png
subject-03,1,634,0.866461038589478,knife,knife,0,0634_ske_s03_0_knife_00_knife-0018-sketch-24.png
subject-03,1,635,1.17404818534851,knife,knife,0,0635_ske_s03_0_knife_00_knife-0031-sketch-36.png
subject-03,1,636,0.78623104095459,car,truck,0,0636_ske_s03_0_truck_00_truck-0134-sketch-37.png
subject-03,1,637,0.797832012176514,chair,chair,0,0637_ske_s03_0_chair_00_chair-0105-sketch-11.png
subject-03,1,638,0.935393095016479,bear,dog,0,0638_ske_s03_0_dog_00_dog-3417-sketch-2.png
subject-03,1,639,0.801270008087158,bird,bird,0,0639_ske_s03_0_bird_00_bird-2010-sketch-30.png
subject-03,1,640,0.703118801116943,boat,boat,0,0640_ske_s03_0_boat_00_boat-0080-sketch-34.png
subject-03,1,641,0.900089979171753,airplane,airplane,0,0641_ske_s03_0_airplane_00_airplane-0050-sketch-8.png
subject-03,1,642,0.766026020050049,bird,bird,0,0642_ske_s03_0_bird_00_bird-0939-sketch-27.png
subject-03,1,643,0.827713012695312,elephant,elephant,0,0643_ske_s03_0_elephant_00_elephant-0014-sketch-20.png
subject-03,1,644,0.791774034500122,bear,cat,0,0644_ske_s03_0_cat_00_cat-0302-sketch-6.png
subject-03,1,645,0.917160034179688,bird,bird,0,0645_ske_s03_0_bird_00_bird-1860-sketch-33.png
subject-03,1,646,0.837263822555542,elephant,elephant,0,0646_ske_s03_0_elephant_00_elephant-0050-sketch-8.png
subject-03,1,647,1.06720185279846,dog,dog,0,0647_ske_s03_0_dog_00_dog-1393-sketch-3.png
subject-03,1,648,0.946985960006714,car,car,0,0648_ske_s03_0_car_00_car-0132-sketch-35.png
subject-03,1,649,0.744450092315674,clock,clock,0,0649_ske_s03_0_clock_00_clock-0015-sketch-21.png
subject-03,1,650,0.748225927352905,keyboard,keyboard,0,0650_ske_s03_0_keyboard_00_keyboard-0034-sketch-39.png
subject-03,1,651,1.03823304176331,dog,dog,0,0651_ske_s03_0_dog_00_dog-2150-sketch-22.png
subject-03,1,652,0.745945930480957,clock,clock,0,0652_ske_s03_0_clock_00_clock-0049-sketch-7.png
subject-03,1,653,0.787899017333984,bottle,bottle,0,0653_ske_s03_0_bottle_00_bottle-0133-sketch-37.png
subject-03,1,654,0.811432123184204,keyboard,keyboard,0,0654_ske_s03_0_keyboard_00_keyboard-0091-sketch-44.png
subject-03,1,655,0.799497842788696,bicycle,bicycle,0,0655_ske_s03_0_bicycle_00_bicycle-0023-sketch-29.png
subject-03,1,656,0.693126201629639,oven,oven,0,0656_ske_s03_0_oven_00_oven-0035-sketch-4.png
subject-03,1,657,0.86943507194519,bear,bear,0,0657_ske_s03_0_bear_00_bear-0039-sketch-43.png
subject-03,1,658,1.29509806632996,dog,bear,0,0658_ske_s03_0_bear_00_bear-0148-sketch-50.png
subject-03,1,659,0.728899955749512,clock,clock,0,0659_ske_s03_0_clock_00_clock-0144-sketch-46.png
subject-03,1,660,0.770704984664917,chair,chair,0,0660_ske_s03_0_chair_00_chair-0129-sketch-33.png
subject-03,1,661,1.37631702423096,dog,dog,0,0661_ske_s03_0_dog_00_dog-2541-sketch-0.png
subject-03,1,662,0.758274078369141,car,car,0,0662_ske_s03_0_car_00_car-0024-sketch-3.png
subject-03,1,663,0.767807006835938,keyboard,keyboard,0,0663_ske_s03_0_keyboard_00_keyboard-0019-sketch-25.png
subject-03,1,664,0.881661176681519,bottle,bottle,0,0664_ske_s03_0_bottle_00_bottle-0165-sketch-2.png
subject-03,1,665,0.837644100189209,keyboard,keyboard,0,0665_ske_s03_0_keyboard_00_keyboard-0049-sketch-7.png
subject-03,1,666,0.787346124649048,boat,boat,0,0666_ske_s03_0_boat_00_boat-0067-sketch-22.png
subject-03,1,667,0.767271041870117,boat,boat,0,0667_ske_s03_0_boat_00_boat-0065-sketch-20.png
subject-03,1,668,1.08709383010864,truck,truck,0,0668_ske_s03_0_truck_00_truck-0136-sketch-39.png
subject-03,1,669,0.71067214012146,oven,oven,0,0669_ske_s03_0_oven_00_oven-0010-sketch-17.png
subject-03,1,670,0.980645895004272,elephant,elephant,0,0670_ske_s03_0_elephant_00_elephant-0062-sketch-18.png
subject-03,1,671,0.894742012023926,knife,knife,0,0671_ske_s03_0_knife_00_knife-0008-sketch-15.png
subject-03,1,672,0.870421171188354,keyboard,keyboard,0,0672_ske_s03_0_keyboard_00_keyboard-0043-sketch-47.png
subject-03,1,673,1.14013409614563,oven,boat,0,0673_ske_s03_0_boat_00_boat-0125-sketch-29.png
subject-03,1,674,0.79980993270874,bird,bird,0,0674_ske_s03_0_bird_00_bird-1749-sketch-25.png
subject-03,1,675,1.12010312080383,bear,cat,0,0675_ske_s03_0_cat_00_cat-0258-sketch-11.png
subject-03,1,676,1.14985203742981,dog,dog,0,0676_ske_s03_0_dog_00_dog-2454-sketch-21.png
subject-03,1,677,1.27770113945007,car,car,0,0677_ske_s03_0_car_00_car-0124-sketch-28.png
subject-03,1,678,0.921044111251831,knife,knife,0,0678_ske_s03_0_knife_00_knife-0037-sketch-41.png
subject-03,1,679,0.939377069473267,clock,clock,0,0679_ske_s03_0_clock_00_clock-0027-sketch-32.png
subject-03,1,680,0.744554042816162,bottle,bottle,0,0680_ske_s03_0_bottle_00_bottle-0039-sketch-43.png
subject-03,1,681,0.864474058151245,bicycle,bicycle,0,0681_ske_s03_0_bicycle_00_bicycle-0047-sketch-50.png
subject-03,1,682,0.978445053100586,car,car,0,0682_ske_s03_0_car_00_car-0004-sketch-11.png
subject-03,1,683,0.934190034866333,bicycle,bicycle,0,0683_ske_s03_0_bicycle_00_bicycle-0011-sketch-18.png
subject-03,1,684,0.801988124847412,bottle,bottle,0,0684_ske_s03_0_bottle_00_bottle-0338-sketch-38.png
subject-03,1,685,0.885823011398315,airplane,airplane,0,0685_ske_s03_0_airplane_00_airplane-0021-sketch-27.png
subject-03,1,686,0.895961999893188,boat,boat,0,0686_ske_s03_0_boat_00_boat-0237-sketch-38.png
subject-03,1,687,0.845320224761963,bird,bird,0,0687_ske_s03_0_bird_00_bird-1342-sketch-24.png
subject-03,1,688,0.887308835983276,bicycle,bicycle,0,0688_ske_s03_0_bicycle_00_bicycle-0060-sketch-16.png
subject-03,1,689,0.735070943832397,chair,chair,0,0689_ske_s03_0_chair_00_chair-0135-sketch-39.png
subject-03,1,690,0.804991960525513,airplane,airplane,0,0690_ske_s03_0_airplane_00_airplane-0051-sketch-9.png
subject-03,1,691,0.950757026672363,car,car,0,0691_ske_s03_0_car_00_car-0069-sketch-24.png
subject-03,1,692,0.838413953781128,chair,chair,0,0692_ske_s03_0_chair_00_chair-0066-sketch-21.png
subject-03,1,693,0.810264110565186,car,truck,0,0693_ske_s03_0_truck_00_truck-0255-sketch-9.png
subject-03,1,694,0.840279102325439,car,truck,0,0694_ske_s03_0_truck_00_truck-0221-sketch-23.png
subject-03,1,695,0.971919059753418,bicycle,bicycle,0,0695_ske_s03_0_bicycle_00_bicycle-0081-sketch-35.png
subject-03,1,696,0.789783000946045,chair,chair,0,0696_ske_s03_0_chair_00_chair-0131-sketch-35.png
subject-03,1,697,0.905409812927246,chair,chair,0,0697_ske_s03_0_chair_00_chair-0163-sketch-18.png
subject-03,1,698,0.877357006072998,truck,truck,0,0698_ske_s03_0_truck_00_truck-0088-sketch-41.png
subject-03,1,699,0.889601945877075,airplane,airplane,0,0699_ske_s03_0_airplane_00_airplane-0007-sketch-14.png
subject-03,1,700,0.983116149902344,bear,bear,0,0700_ske_s03_0_bear_00_bear-0017-sketch-23.png
subject-03,1,701,0.922662973403931,car,truck,0,0701_ske_s03_0_truck_00_truck-0243-sketch-43.png
subject-03,1,702,1.08056807518005,airplane,airplane,0,0702_ske_s03_0_airplane_00_airplane-0018-sketch-24.png
subject-03,1,703,0.842288970947266,cat,cat,0,0703_ske_s03_0_cat_00_cat-0021-sketch-27.png
subject-03,1,704,0.784256935119629,keyboard,keyboard,0,0704_ske_s03_0_keyboard_00_keyboard-0037-sketch-41.png
subject-03,1,705,1.19438982009888,knife,knife,0,0705_ske_s03_0_knife_00_knife-0028-sketch-33.png
subject-03,1,706,0.841763973236084,dog,dog,0,0706_ske_s03_0_dog_00_dog-2948-sketch-10.png
subject-03,1,707,0.79985499382019,cat,cat,0,0707_ske_s03_0_cat_00_cat-0175-sketch-29.png
subject-03,1,708,0.760014057159424,bottle,bottle,0,0708_ske_s03_0_bottle_00_bottle-0107-sketch-13.png
subject-03,1,709,0.811253070831299,keyboard,keyboard,0,0709_ske_s03_0_keyboard_00_keyboard-0098-sketch-50.png
subject-03,1,710,0.759023904800415,boat,boat,0,0710_ske_s03_0_boat_00_boat-0234-sketch-35.png
subject-03,1,711,0.692992925643921,bottle,bottle,0,0711_ske_s03_0_bottle_00_bottle-0185-sketch-38.png
subject-03,1,712,0.822777032852173,knife,knife,0,0712_ske_s03_0_knife_00_knife-0016-sketch-22.png
subject-03,1,713,0.82841682434082,keyboard,keyboard,0,0713_ske_s03_0_keyboard_00_keyboard-0087-sketch-40.png
subject-03,1,714,0.92267894744873,bicycle,bicycle,0,0714_ske_s03_0_bicycle_00_bicycle-0087-sketch-40.png
subject-03,1,715,0.686186075210571,chair,chair,0,0715_ske_s03_0_chair_00_chair-0130-sketch-34.png
subject-03,1,716,0.854021072387695,airplane,airplane,0,0716_ske_s03_0_airplane_00_airplane-0033-sketch-38.png
subject-03,1,717,0.775706052780151,oven,oven,0,0717_ske_s03_0_oven_00_oven-0022-sketch-28.png
subject-03,1,718,1.00562381744385,elephant,elephant,0,0718_ske_s03_0_elephant_00_elephant-0002-sketch-1.png
subject-03,1,719,0.77550196647644,bottle,bottle,0,0719_ske_s03_0_bottle_00_bottle-0296-sketch-46.png
subject-03,1,720,0.935073852539062,bottle,bottle,0,0720_ske_s03_0_bottle_00_bottle-0207-sketch-11.png
subject-03,1,721,0.926941871643066,elephant,elephant,0,0721_ske_s03_0_elephant_00_elephant-0030-sketch-35.png
subject-03,1,722,0.848881006240845,clock,clock,0,0722_ske_s03_0_clock_00_clock-0060-sketch-16.png
subject-03,1,723,0.940764904022217,boat,boat,0,0723_ske_s03_0_boat_00_boat-0001-sketch-0.png
subject-03,1,724,0.912467002868652,bottle,bottle,0,0724_ske_s03_0_bottle_00_bottle-0097-sketch-50.png
subject-03,1,725,1.13211417198181,bottle,bottle,0,0725_ske_s03_0_bottle_00_bottle-0131-sketch-35.png
subject-03,1,726,0.7761390209198,airplane,airplane,0,0726_ske_s03_0_airplane_00_airplane-0011-sketch-18.png
subject-03,1,727,0.795811891555786,bottle,bottle,0,0727_ske_s03_0_bottle_00_bottle-0145-sketch-48.png
subject-03,1,728,0.995862007141113,bird,dog,0,0728_ske_s03_0_dog_00_dog-1617-sketch-48.png
subject-03,1,729,0.787759065628052,cat,cat,0,0729_ske_s03_0_cat_00_cat-0043-sketch-47.png
subject-03,1,730,0.743276119232178,bottle,bottle,0,0730_ske_s03_0_bottle_00_bottle-0045-sketch-49.png
subject-03,1,731,1.00357580184937,elephant,elephant,0,0731_ske_s03_0_elephant_00_elephant-0016-sketch-22.png
subject-03,1,732,0.697003126144409,clock,clock,0,0732_ske_s03_0_clock_00_clock-0046-sketch-5.png
subject-03,1,733,0.860656023025513,cat,keyboard,0,0733_ske_s03_0_keyboard_00_keyboard-0028-sketch-33.png
subject-03,1,734,1.03246402740479,knife,truck,0,0734_ske_s03_0_truck_00_truck-0161-sketch-15.png
subject-03,1,735,0.768486022949219,bird,bird,0,0735_ske_s03_0_bird_00_bird-0749-sketch-4.png
subject-03,1,736,1.09615111351013,bird,cat,0,0736_ske_s03_0_cat_00_cat-0251-sketch-6.png
subject-03,1,737,0.952062129974365,truck,truck,0,0737_ske_s03_0_truck_00_truck-0045-sketch-49.png
subject-03,1,738,1.06396698951721,truck,truck,0,0738_ske_s03_0_truck_00_truck-0075-sketch-3.png
subject-03,1,739,0.801732063293457,elephant,elephant,0,0739_ske_s03_0_elephant_00_elephant-0011-sketch-18.png
subject-03,1,740,0.801370859146118,boat,airplane,0,0740_ske_s03_0_airplane_00_airplane-0003-sketch-10.png
subject-03,1,741,0.787374019622803,keyboard,keyboard,0,0741_ske_s03_0_keyboard_00_keyboard-0061-sketch-17.png
subject-03,1,742,0.697233915328979,keyboard,keyboard,0,0742_ske_s03_0_keyboard_00_keyboard-0022-sketch-28.png
subject-03,1,743,1.10904502868652,dog,cat,0,0743_ske_s03_0_cat_00_cat-0158-sketch-13.png
subject-03,1,744,0.766706943511963,airplane,airplane,0,0744_ske_s03_0_airplane_00_airplane-0042-sketch-46.png
subject-03,1,745,0.844464063644409,bear,bear,0,0745_ske_s03_0_bear_00_bear-0179-sketch-32.png
subject-03,1,746,0.782515048980713,clock,clock,0,0746_ske_s03_0_clock_00_clock-0127-sketch-30.png
subject-03,1,747,0.996153116226196,car,car,0,0747_ske_s03_0_car_00_car-0045-sketch-49.png
subject-03,1,748,0.942049980163574,bear,bear,0,0748_ske_s03_0_bear_00_bear-0136-sketch-4.png
subject-03,1,749,0.942146062850952,airplane,airplane,0,0749_ske_s03_0_airplane_00_airplane-0037-sketch-41.png
subject-03,1,750,0.875513792037964,elephant,elephant,0,0750_ske_s03_0_elephant_00_elephant-0100-sketch-7.png
subject-03,1,751,0.811604976654053,bicycle,bicycle,0,0751_ske_s03_0_bicycle_00_bicycle-0094-sketch-47.png
subject-03,1,752,0.729140043258667,cat,cat,0,0752_ske_s03_0_cat_00_cat-0140-sketch-43.png
subject-03,1,753,0.799404144287109,bottle,bottle,0,0753_ske_s03_0_bottle_00_bottle-0130-sketch-34.png
subject-03,1,754,0.82286810874939,bird,bird,0,0754_ske_s03_0_bird_00_bird-0047-sketch-50.png
subject-03,1,755,0.826565980911255,chair,chair,0,0755_ske_s03_0_chair_00_chair-0064-sketch-2.png
subject-03,1,756,0.908653020858765,keyboard,keyboard,0,0756_ske_s03_0_keyboard_00_keyboard-0039-sketch-43.png
subject-03,1,757,0.782510042190552,bear,bear,0,0757_ske_s03_0_bear_00_bear-0022-sketch-28.png
subject-03,1,758,0.856053113937378,car,truck,0,0758_ske_s03_0_truck_00_truck-0115-sketch-2.png
subject-03,1,759,1.06980204582214,car,car,0,0759_ske_s03_0_car_00_car-0122-sketch-26.png
subject-03,1,760,0.915600061416626,bird,bird,0,0760_ske_s03_0_bird_00_bird-1081-sketch-18.png
subject-03,1,761,1.18596005439758,car,car,0,0761_ske_s03_0_car_00_car-0052-sketch-0.png
subject-03,1,762,0.777231931686401,airplane,airplane,0,0762_ske_s03_0_airplane_00_airplane-0020-sketch-26.png
subject-03,1,763,1.07148504257202,knife,knife,0,0763_ske_s03_0_knife_00_knife-0048-sketch-6.png
subject-03,1,764,0.916940927505493,cat,chair,0,0764_ske_s03_0_chair_00_chair-0034-sketch-39.png
subject-03,1,765,0.830868005752563,elephant,elephant,0,0765_ske_s03_0_elephant_00_elephant-0047-sketch-50.png
subject-03,1,766,0.998655796051025,bottle,oven,0,0766_ske_s03_0_oven_00_oven-0005-sketch-12.png
subject-03,1,767,0.678428888320923,clock,clock,0,0767_ske_s03_0_clock_00_clock-0033-sketch-38.png
subject-03,1,768,0.774120092391968,cat,chair,0,0768_ske_s03_0_chair_00_chair-0002-sketch-1.png
subject-03,1,769,0.961984157562256,bottle,bottle,0,0769_ske_s03_0_bottle_00_bottle-0114-sketch-2.png
subject-03,1,770,0.867815971374512,keyboard,keyboard,0,0770_ske_s03_0_keyboard_00_keyboard-0017-sketch-23.png
subject-03,1,771,1.00604510307312,elephant,elephant,0,0771_ske_s03_0_elephant_00_elephant-0065-sketch-20.png
subject-03,1,772,0.96956992149353,truck,truck,0,0772_ske_s03_0_truck_00_truck-0025-sketch-30.png
subject-03,1,773,0.927563905715942,car,car,0,0773_ske_s03_0_car_00_car-0098-sketch-50.png
subject-03,1,774,1.08723211288452,truck,truck,0,0774_ske_s03_0_truck_00_truck-0369-sketch-19.png
subject-03,1,775,0.737102031707764,clock,clock,0,0775_ske_s03_0_clock_00_clock-0123-sketch-27.png
subject-03,1,776,0.960781097412109,dog,dog,0,0776_ske_s03_0_dog_00_dog-2506-sketch-23.png
subject-03,1,777,0.928527116775513,knife,knife,0,0777_ske_s03_0_knife_00_knife-0033-sketch-38.png
subject-03,1,778,0.780488014221191,dog,dog,0,0778_ske_s03_0_dog_00_dog-5325-sketch-45.png
subject-03,1,779,0.972331047058105,car,car,0,0779_ske_s03_0_car_00_car-0143-sketch-45.png
subject-03,1,780,1.07796096801758,bird,bird,0,0780_ske_s03_0_bird_00_bird-1948-sketch-20.png
subject-03,1,781,1.00186920166016,dog,dog,0,0781_ske_s03_0_dog_00_dog-5028-sketch-8.png
subject-03,1,782,0.645778894424438,clock,clock,0,0782_ske_s03_0_clock_00_clock-0035-sketch-4.png
subject-03,1,783,0.781443119049072,cat,cat,0,0783_ske_s03_0_cat_00_cat-0015-sketch-21.png
subject-03,1,784,0.943310976028442,elephant,elephant,0,0784_ske_s03_0_elephant_00_elephant-0082-sketch-36.png
subject-03,1,785,0.853174924850464,bicycle,bicycle,0,0785_ske_s03_0_bicycle_00_bicycle-0003-sketch-10.png
subject-03,1,786,0.881432056427002,keyboard,keyboard,0,0786_ske_s03_0_keyboard_00_keyboard-0004-sketch-11.png
subject-03,1,787,0.828547954559326,car,car,0,0787_ske_s03_0_car_00_car-0116-sketch-20.png
subject-03,1,788,0.844521045684814,airplane,airplane,0,0788_ske_s03_0_airplane_00_airplane-0043-sketch-47.png
subject-03,1,789,0.946565866470337,keyboard,clock,0,0789_ske_s03_0_clock_00_clock-0069-sketch-24.png
subject-03,1,790,0.992123126983643,elephant,elephant,0,0790_ske_s03_0_elephant_00_elephant-0079-sketch-33.png
subject-03,1,791,1.18422603607178,elephant,elephant,0,0791_ske_s03_0_elephant_00_elephant-0094-sketch-47.png
subject-03,1,792,0.954322099685669,knife,knife,0,0792_ske_s03_0_knife_00_knife-0044-sketch-48.png
subject-03,1,793,0.925502061843872,keyboard,keyboard,0,0793_ske_s03_0_keyboard_00_keyboard-0042-sketch-46.png
subject-03,1,794,1.27538585662842,bicycle,bicycle,0,0794_ske_s03_0_bicycle_00_bicycle-0059-sketch-15.png
subject-03,1,795,1.19517922401428,truck,truck,0,0795_ske_s03_0_truck_00_truck-0249-sketch-49.png
subject-03,1,796,1.24086213111877,cat,cat,0,0796_ske_s03_0_cat_00_cat-0134-sketch-38.png
subject-03,1,797,0.917030811309814,airplane,airplane,0,0797_ske_s03_0_airplane_00_airplane-0031-sketch-36.png
subject-03,1,798,0.79047417640686,oven,oven,0,0798_ske_s03_0_oven_00_oven-0046-sketch-5.png
subject-03,1,799,0.810307025909424,elephant,elephant,0,0799_ske_s03_0_elephant_00_elephant-0033-sketch-38.png
subject-03,1,800,0.720322847366333,oven,oven,0,0800_ske_s03_0_oven_00_oven-0048-sketch-6.png
