subj,session,trial,rt,object_response,category,condition,imagename
subject-06,1,1,0.886153936386108,knife,knife,0,0001_ske_s06_0_knife_00_knife-0026-sketch-31.png
subject-06,1,2,0.542034864425659,cat,oven,0,0002_ske_s06_0_oven_00_oven-0020-sketch-26.png
subject-06,1,3,1.21371603012085,boat,boat,0,0003_ske_s06_0_boat_00_boat-0178-sketch-30.png
subject-06,1,4,0.695562839508057,chair,chair,0,0004_ske_s06_0_chair_00_chair-0088-sketch-41.png
subject-06,1,5,1.13354706764221,bottle,bottle,0,0005_ske_s06_0_bottle_00_bottle-0003-sketch-10.png
subject-06,1,6,0.601299047470093,bear,bear,0,0006_ske_s06_0_bear_00_bear-0030-sketch-35.png
subject-06,1,7,0.905415058135986,bicycle,bicycle,0,0007_ske_s06_0_bicycle_00_bicycle-0025-sketch-30.png
subject-06,1,8,0.566765069961548,chair,chair,0,0008_ske_s06_0_chair_00_chair-0197-sketch-49.png
subject-06,1,9,0.652929067611694,car,car,0,0009_ske_s06_0_car_00_car-0143-sketch-45.png
subject-06,1,10,0.700833082199097,chair,chair,0,0010_ske_s06_0_chair_00_chair-0129-sketch-33.png
subject-06,1,11,1.11223793029785,cat,cat,0,0011_ske_s06_0_cat_00_cat-0251-sketch-6.png
subject-06,1,12,0.561981201171875,car,car,0,0012_ske_s06_0_car_00_car-0138-sketch-40.png
subject-06,1,13,1.11616206169128,bear,bear,0,0013_ske_s06_0_bear_00_bear-0022-sketch-28.png
subject-06,1,14,0.767951965332031,oven,oven,0,0014_ske_s06_0_oven_00_oven-0003-sketch-10.png
subject-06,1,15,0.503526926040649,boat,boat,0,0015_ske_s06_0_boat_00_boat-0110-sketch-15.png
subject-06,1,16,1.04326796531677,knife,knife,0,0016_ske_s06_0_knife_00_knife-0022-sketch-28.png
subject-06,1,17,1.34702086448669,knife,knife,0,0017_ske_s06_0_knife_00_knife-0046-sketch-5.png
subject-06,1,18,0.867128133773804,car,car,0,0018_ske_s06_0_car_00_car-0132-sketch-35.png
subject-06,1,19,0.908807992935181,elephant,elephant,0,0019_ske_s06_0_elephant_00_elephant-0054-sketch-10.png
subject-06,1,20,0.655025959014893,bicycle,bicycle,0,0020_ske_s06_0_bicycle_00_bicycle-0090-sketch-43.png
subject-06,1,21,1.010910987854,oven,oven,0,0021_ske_s06_0_oven_00_oven-0046-sketch-5.png
subject-06,1,22,0.838112115859985,elephant,elephant,0,0022_ske_s06_0_elephant_00_elephant-0016-sketch-22.png
subject-06,1,23,1.11425304412842,dog,dog,0,0023_ske_s06_0_dog_00_dog-4709-sketch-4.png
subject-06,1,24,0.502060890197754,clock,clock,0,0024_ske_s06_0_clock_00_clock-0141-sketch-43.png
subject-06,1,25,1.00772309303284,keyboard,keyboard,0,0025_ske_s06_0_keyboard_00_keyboard-0076-sketch-30.png
subject-06,1,26,0.693305969238281,bicycle,bicycle,0,0026_ske_s06_0_bicycle_00_bicycle-0008-sketch-15.png
subject-06,1,27,1.46922898292542,bird,oven,0,0027_ske_s06_0_oven_00_oven-0015-sketch-21.png
subject-06,1,28,0.619127988815308,car,car,0,0028_ske_s06_0_car_00_car-0047-sketch-50.png
subject-06,1,29,0.756804943084717,car,truck,0,0029_ske_s06_0_truck_00_truck-0244-sketch-44.png
subject-06,1,30,1.48263001441956,bear,bear,0,0030_ske_s06_0_bear_00_bear-0036-sketch-40.png
subject-06,1,31,NaN,na,boat,0,0031_ske_s06_0_boat_00_boat-0067-sketch-22.png
subject-06,1,32,0.774371862411499,keyboard,keyboard,0,0032_ske_s06_0_keyboard_00_keyboard-0009-sketch-16.png
subject-06,1,33,0.656116008758545,chair,chair,0,0033_ske_s06_0_chair_00_chair-0163-sketch-18.png
subject-06,1,34,1.22014498710632,car,car,0,0034_ske_s06_0_car_00_car-0129-sketch-32.png
subject-06,1,35,1.08783102035522,bear,bear,0,0035_ske_s06_0_bear_00_bear-0110-sketch-16.png
subject-06,1,36,0.567521810531616,oven,oven,0,0036_ske_s06_0_oven_00_oven-0004-sketch-11.png
subject-06,1,37,1.34965085983276,elephant,elephant,0,0037_ske_s06_0_elephant_00_elephant-0052-sketch-0.png
subject-06,1,38,0.589130878448486,car,car,0,0038_ske_s06_0_car_00_car-0076-sketch-30.png
subject-06,1,39,0.569182872772217,oven,oven,0,0039_ske_s06_0_oven_00_oven-0045-sketch-49.png
subject-06,1,40,0.99073600769043,car,truck,0,0040_ske_s06_0_truck_00_truck-0132-sketch-35.png
subject-06,1,41,0.960568904876709,dog,dog,0,0041_ske_s06_0_dog_00_dog-3000-sketch-11.png
subject-06,1,42,0.704433917999268,boat,boat,0,0042_ske_s06_0_boat_00_boat-0173-sketch-26.png
subject-06,1,43,1.0585470199585,car,car,0,0043_ske_s06_0_car_00_car-0044-sketch-48.png
subject-06,1,44,1.30232214927673,knife,knife,0,0044_ske_s06_0_knife_00_knife-0029-sketch-34.png
subject-06,1,45,0.768074035644531,bicycle,bicycle,0,0045_ske_s06_0_bicycle_00_bicycle-0046-sketch-5.png
subject-06,1,46,1.00966191291809,elephant,elephant,0,0046_ske_s06_0_elephant_00_elephant-0075-sketch-3.png
subject-06,1,47,1.50009608268738,keyboard,keyboard,0,0047_ske_s06_0_keyboard_00_keyboard-0098-sketch-50.png
subject-06,1,48,1.09132313728333,keyboard,keyboard,0,0048_ske_s06_0_keyboard_00_keyboard-0044-sketch-48.png
subject-06,1,49,1.0391252040863,elephant,elephant,0,0049_ske_s06_0_elephant_00_elephant-0057-sketch-13.png
subject-06,1,50,0.833147048950195,dog,dog,0,0050_ske_s06_0_dog_00_dog-5354-sketch-25.png
subject-06,1,51,0.986840963363647,elephant,elephant,0,0051_ske_s06_0_elephant_00_elephant-0079-sketch-33.png
subject-06,1,52,0.810429811477661,keyboard,keyboard,0,0052_ske_s06_0_keyboard_00_keyboard-0022-sketch-28.png
subject-06,1,53,0.60840892791748,chair,chair,0,0053_ske_s06_0_chair_00_chair-0144-sketch-47.png
subject-06,1,54,0.598235130310059,airplane,airplane,0,0054_ske_s06_0_airplane_00_airplane-0050-sketch-8.png
subject-06,1,55,0.607932090759277,airplane,airplane,0,0055_ske_s06_0_airplane_00_airplane-0010-sketch-17.png
subject-06,1,56,0.867920875549316,keyboard,bird,0,0056_ske_s06_0_bird_00_bird-1148-sketch-32.png
subject-06,1,57,1.07760381698608,knife,knife,0,0057_ske_s06_0_knife_00_knife-0019-sketch-25.png
subject-06,1,58,1.03183007240295,bird,bird,0,0058_ske_s06_0_bird_00_bird-0072-sketch-27.png
subject-06,1,59,0.875189065933228,car,truck,0,0059_ske_s06_0_truck_00_truck-0302-sketch-50.png
subject-06,1,60,0.909093856811523,bear,bear,0,0060_ske_s06_0_bear_00_bear-0039-sketch-43.png
subject-06,1,61,0.878780126571655,oven,keyboard,0,0061_ske_s06_0_keyboard_00_keyboard-0028-sketch-33.png
subject-06,1,62,0.668597936630249,chair,chair,0,0062_ske_s06_0_chair_00_chair-0052-sketch-0.png
subject-06,1,63,0.896645069122314,chair,chair,0,0063_ske_s06_0_chair_00_chair-0013-sketch-2.png
subject-06,1,64,0.8383469581604,car,car,0,0064_ske_s06_0_car_00_car-0022-sketch-28.png
subject-06,1,65,0.60636305809021,chair,chair,0,0065_ske_s06_0_chair_00_chair-0130-sketch-34.png
subject-06,1,66,0.924373865127563,knife,knife,0,0066_ske_s06_0_knife_00_knife-0047-sketch-50.png
subject-06,1,67,0.577740907669067,chair,chair,0,0067_ske_s06_0_chair_00_chair-0094-sketch-47.png
subject-06,1,68,0.80774998664856,car,car,0,0068_ske_s06_0_car_00_car-0005-sketch-12.png
subject-06,1,69,0.589415073394775,chair,chair,0,0069_ske_s06_0_chair_00_chair-0063-sketch-19.png
subject-06,1,70,0.60715913772583,airplane,airplane,0,0070_ske_s06_0_airplane_00_airplane-0046-sketch-5.png
subject-06,1,71,1.28512597084045,clock,airplane,0,0071_ske_s06_0_airplane_00_airplane-0043-sketch-47.png
subject-06,1,72,1.32507085800171,bear,bear,0,0072_ske_s06_0_bear_00_bear-0087-sketch-41.png
subject-06,1,73,0.686769962310791,elephant,elephant,0,0073_ske_s06_0_elephant_00_elephant-0011-sketch-18.png
subject-06,1,74,0.78255295753479,cat,cat,0,0074_ske_s06_0_cat_00_cat-0085-sketch-4.png
subject-06,1,75,0.92828106880188,bird,oven,0,0075_ske_s06_0_oven_00_oven-0049-sketch-7.png
subject-06,1,76,0.848053932189941,car,car,0,0076_ske_s06_0_car_00_car-0079-sketch-33.png
subject-06,1,77,0.808212995529175,bear,bear,0,0077_ske_s06_0_bear_00_bear-0112-sketch-18.png
subject-06,1,78,0.899797916412354,bicycle,bicycle,0,0078_ske_s06_0_bicycle_00_bicycle-0101-sketch-8.png
subject-06,1,79,1.01758694648743,boat,boat,0,0079_ske_s06_0_boat_00_boat-0165-sketch-19.png
subject-06,1,80,0.717149972915649,dog,cat,0,0080_ske_s06_0_cat_00_cat-0043-sketch-47.png
subject-06,1,81,0.893495082855225,cat,cat,0,0081_ske_s06_0_cat_00_cat-0274-sketch-26.png
subject-06,1,82,0.623059034347534,knife,knife,0,0082_ske_s06_0_knife_00_knife-0039-sketch-43.png
subject-06,1,83,0.731142997741699,bird,bird,0,0083_ske_s06_0_bird_00_bird-1201-sketch-34.png
subject-06,1,84,1.02244114875793,cat,bottle,0,0084_ske_s06_0_bottle_00_bottle-0217-sketch-20.png
subject-06,1,85,0.598196029663086,airplane,airplane,0,0085_ske_s06_0_airplane_00_airplane-0022-sketch-28.png
subject-06,1,86,1.10021495819092,car,boat,0,0086_ske_s06_0_boat_00_boat-0079-sketch-33.png
subject-06,1,87,0.730127096176147,elephant,elephant,0,0087_ske_s06_0_elephant_00_elephant-0077-sketch-31.png
subject-06,1,88,0.815726041793823,bottle,bottle,0,0088_ske_s06_0_bottle_00_bottle-0162-sketch-17.png
subject-06,1,89,0.634045124053955,boat,boat,0,0089_ske_s06_0_boat_00_boat-0051-sketch-9.png
subject-06,1,90,1.06130981445312,oven,oven,0,0090_ske_s06_0_oven_00_oven-0024-sketch-3.png
subject-06,1,91,1.03517699241638,bottle,bottle,0,0091_ske_s06_0_bottle_00_bottle-0296-sketch-46.png
subject-06,1,92,0.885076999664307,bird,chair,0,0092_ske_s06_0_chair_00_chair-0200-sketch-6.png
subject-06,1,93,0.96914005279541,boat,boat,0,0093_ske_s06_0_boat_00_boat-0212-sketch-15.png
subject-06,1,94,0.666847944259644,cat,cat,0,0094_ske_s06_0_cat_00_cat-0269-sketch-21.png
subject-06,1,95,1.47642493247986,bear,bear,0,0095_ske_s06_0_bear_00_bear-0023-sketch-29.png
subject-06,1,96,1.1463189125061,clock,clock,0,0096_ske_s06_0_clock_00_clock-0092-sketch-45.png
subject-06,1,97,1.0300920009613,cat,bird,0,0097_ske_s06_0_bird_00_bird-2313-sketch-28.png
subject-06,1,98,1.22979092597961,knife,knife,0,0098_ske_s06_0_knife_00_knife-0030-sketch-35.png
subject-06,1,99,0.881844043731689,bottle,bottle,0,0099_ske_s06_0_bottle_00_bottle-0050-sketch-9.png
subject-06,1,100,0.727735042572021,keyboard,keyboard,0,0100_ske_s06_0_keyboard_00_keyboard-0033-sketch-38.png
subject-06,1,101,0.689375162124634,bottle,bottle,0,0101_ske_s06_0_bottle_00_bottle-0038-sketch-42.png
subject-06,1,102,0.551247119903564,oven,oven,0,0102_ske_s06_0_oven_00_oven-0048-sketch-6.png
subject-06,1,103,0.541043043136597,cat,cat,0,0103_ske_s06_0_cat_00_cat-0021-sketch-27.png
subject-06,1,104,0.588896989822388,car,car,0,0104_ske_s06_0_car_00_car-0120-sketch-24.png
subject-06,1,105,1.13051891326904,bird,bird,0,0105_ske_s06_0_bird_00_bird-1749-sketch-25.png
subject-06,1,106,0.88637113571167,cat,cat,0,0106_ske_s06_0_cat_00_cat-0073-sketch-29.png
subject-06,1,107,0.668383121490479,elephant,elephant,0,0107_ske_s06_0_elephant_00_elephant-0037-sketch-41.png
subject-06,1,108,0.696167945861816,dog,dog,0,0108_ske_s06_0_dog_00_dog-1797-sketch-26.png
subject-06,1,109,0.628018856048584,bottle,bottle,0,0109_ske_s06_0_bottle_00_bottle-0071-sketch-27.png
subject-06,1,110,0.763918876647949,knife,knife,0,0110_ske_s06_0_knife_00_knife-0016-sketch-22.png
subject-06,1,111,0.673353910446167,clock,clock,0,0111_ske_s06_0_clock_00_clock-0137-sketch-4.png
subject-06,1,112,0.757236957550049,airplane,airplane,0,0112_ske_s06_0_airplane_00_airplane-0042-sketch-46.png
subject-06,1,113,0.853032112121582,cat,cat,0,0113_ske_s06_0_cat_00_cat-0241-sketch-42.png
subject-06,1,114,0.627009153366089,keyboard,keyboard,0,0114_ske_s06_0_keyboard_00_keyboard-0087-sketch-40.png
subject-06,1,115,1.05086612701416,knife,knife,0,0115_ske_s06_0_knife_00_knife-0008-sketch-15.png
subject-06,1,116,0.588498830795288,clock,clock,0,0116_ske_s06_0_clock_00_clock-0118-sketch-22.png
subject-06,1,117,0.656275987625122,car,car,0,0117_ske_s06_0_car_00_car-0125-sketch-29.png
subject-06,1,118,0.512141942977905,knife,knife,0,0118_ske_s06_0_knife_00_knife-0044-sketch-48.png
subject-06,1,119,1.13792586326599,truck,truck,0,0119_ske_s06_0_truck_00_truck-0348-sketch-46.png
subject-06,1,120,0.714066982269287,airplane,airplane,0,0120_ske_s06_0_airplane_00_airplane-0021-sketch-27.png
subject-06,1,121,0.595531940460205,oven,oven,0,0121_ske_s06_0_oven_00_oven-0044-sketch-48.png
subject-06,1,122,0.903501033782959,oven,oven,0,0122_ske_s06_0_oven_00_oven-0016-sketch-22.png
subject-06,1,123,0.69756007194519,chair,chair,0,0123_ske_s06_0_chair_00_chair-0135-sketch-39.png
subject-06,1,124,0.949055910110474,bear,bear,0,0124_ske_s06_0_bear_00_bear-0199-sketch-50.png
subject-06,1,125,1.14674115180969,truck,truck,0,0125_ske_s06_0_truck_00_truck-0312-sketch-13.png
subject-06,1,126,1.20692610740662,elephant,elephant,0,0126_ske_s06_0_elephant_00_elephant-0028-sketch-33.png
subject-06,1,127,0.590480089187622,bird,bird,0,0127_ske_s06_0_bird_00_bird-0292-sketch-41.png
subject-06,1,128,1.11019206047058,cat,dog,0,0128_ske_s06_0_dog_00_dog-3915-sketch-0.png
subject-06,1,129,0.81622314453125,dog,bear,0,0129_ske_s06_0_bear_00_bear-0149-sketch-6.png
subject-06,1,130,0.63188099861145,keyboard,keyboard,0,0130_ske_s06_0_keyboard_00_keyboard-0041-sketch-45.png
subject-06,1,131,0.705914974212646,boat,boat,0,0131_ske_s06_0_boat_00_boat-0034-sketch-39.png
subject-06,1,132,0.617807865142822,keyboard,keyboard,0,0132_ske_s06_0_keyboard_00_keyboard-0084-sketch-38.png
subject-06,1,133,0.641472816467285,bottle,bottle,0,0133_ske_s06_0_bottle_00_bottle-0268-sketch-20.png
subject-06,1,134,0.777076005935669,bicycle,bicycle,0,0134_ske_s06_0_bicycle_00_bicycle-0070-sketch-25.png
subject-06,1,135,0.625257968902588,cat,cat,0,0135_ske_s06_0_cat_00_cat-0052-sketch-1.png
subject-06,1,136,1.2867751121521,elephant,elephant,0,0136_ske_s06_0_elephant_00_elephant-0029-sketch-34.png
subject-06,1,137,0.650737047195435,airplane,airplane,0,0137_ske_s06_0_airplane_00_airplane-0023-sketch-29.png
subject-06,1,138,0.640451908111572,dog,dog,0,0138_ske_s06_0_dog_00_dog-5028-sketch-8.png
subject-06,1,139,0.728203058242798,bicycle,bicycle,0,0139_ske_s06_0_bicycle_00_bicycle-0081-sketch-35.png
subject-06,1,140,0.91000509262085,oven,oven,0,0140_ske_s06_0_oven_00_oven-0014-sketch-20.png
subject-06,1,141,1.00788903236389,bear,bear,0,0141_ske_s06_0_bear_00_bear-0041-sketch-45.png
subject-06,1,142,1.46166300773621,cat,cat,0,0142_ske_s06_0_cat_00_cat-0304-sketch-8.png
subject-06,1,143,0.825364112854004,clock,clock,0,0143_ske_s06_0_clock_00_clock-0076-sketch-30.png
subject-06,1,144,1.04133009910583,airplane,airplane,0,0144_ske_s06_0_airplane_00_airplane-0014-sketch-20.png
subject-06,1,145,0.880975008010864,cat,cat,0,0145_ske_s06_0_cat_00_cat-0264-sketch-17.png
subject-06,1,146,1.49999308586121,bear,bicycle,0,0146_ske_s06_0_bicycle_00_bicycle-0102-sketch-9.png
subject-06,1,147,0.762897968292236,elephant,elephant,0,0147_ske_s06_0_elephant_00_elephant-0082-sketch-36.png
subject-06,1,148,1.22052693367004,knife,knife,0,0148_ske_s06_0_knife_00_knife-0045-sketch-49.png
subject-06,1,149,1.17249011993408,car,car,0,0149_ske_s06_0_car_00_car-0021-sketch-27.png
subject-06,1,150,1.38442397117615,keyboard,keyboard,0,0150_ske_s06_0_keyboard_00_keyboard-0088-sketch-41.png
subject-06,1,151,1.17401695251465,dog,dog,0,0151_ske_s06_0_dog_00_dog-0011-sketch-18.png
subject-06,1,152,0.913738965988159,knife,knife,0,0152_ske_s06_0_knife_00_knife-0037-sketch-41.png
subject-06,1,153,1.39991593360901,bear,bear,0,0153_ske_s06_0_bear_00_bear-0085-sketch-4.png
subject-06,1,154,0.673433065414429,clock,clock,0,0154_ske_s06_0_clock_00_clock-0136-sketch-39.png
subject-06,1,155,0.657597064971924,airplane,airplane,0,0155_ske_s06_0_airplane_00_airplane-0036-sketch-40.png
subject-06,1,156,0.613107919692993,chair,chair,0,0156_ske_s06_0_chair_00_chair-0083-sketch-37.png
subject-06,1,157,0.771106004714966,bicycle,bicycle,0,0157_ske_s06_0_bicycle_00_bicycle-0045-sketch-49.png
subject-06,1,158,1.08880305290222,airplane,airplane,0,0158_ske_s06_0_airplane_00_airplane-0013-sketch-2.png
subject-06,1,159,0.766409873962402,boat,boat,0,0159_ske_s06_0_boat_00_boat-0253-sketch-7.png
subject-06,1,160,0.58034086227417,cat,cat,0,0160_ske_s06_0_cat_00_cat-0140-sketch-43.png
subject-06,1,161,0.735738039016724,clock,clock,0,0161_ske_s06_0_clock_00_clock-0028-sketch-33.png
subject-06,1,162,0.641235113143921,truck,truck,0,0162_ske_s06_0_truck_00_truck-0050-sketch-8.png
subject-06,1,163,0.753028869628906,knife,knife,0,0163_ske_s06_0_knife_00_knife-0051-sketch-9.png
subject-06,1,164,0.69907808303833,oven,oven,0,0164_ske_s06_0_oven_00_oven-0007-sketch-14.png
subject-06,1,165,0.548536062240601,car,car,0,0165_ske_s06_0_car_00_car-0153-sketch-9.png
subject-06,1,166,0.768474102020264,knife,knife,0,0166_ske_s06_0_knife_00_knife-0002-sketch-1.png
subject-06,1,167,0.534253120422363,cat,cat,0,0167_ske_s06_0_cat_00_cat-0090-sketch-44.png
subject-06,1,168,0.619958162307739,bicycle,bicycle,0,0168_ske_s06_0_bicycle_00_bicycle-0054-sketch-10.png
subject-06,1,169,0.747806072235107,elephant,elephant,0,0169_ske_s06_0_elephant_00_elephant-0012-sketch-19.png
subject-06,1,170,0.62766695022583,keyboard,keyboard,0,0170_ske_s06_0_keyboard_00_keyboard-0042-sketch-46.png
subject-06,1,171,1.01536583900452,boat,boat,0,0171_ske_s06_0_boat_00_boat-0001-sketch-0.png
subject-06,1,172,0.787153959274292,airplane,airplane,0,0172_ske_s06_0_airplane_00_airplane-0015-sketch-21.png
subject-06,1,173,1.01912403106689,knife,knife,0,0173_ske_s06_0_knife_00_knife-0041-sketch-45.png
subject-06,1,174,0.810818910598755,keyboard,keyboard,0,0174_ske_s06_0_keyboard_00_keyboard-0049-sketch-7.png
subject-06,1,175,0.662909984588623,bicycle,bicycle,0,0175_ske_s06_0_bicycle_00_bicycle-0020-sketch-26.png
subject-06,1,176,0.980461120605469,knife,knife,0,0176_ske_s06_0_knife_00_knife-0005-sketch-12.png
subject-06,1,177,0.60210394859314,bottle,bottle,0,0177_ske_s06_0_bottle_00_bottle-0041-sketch-45.png
subject-06,1,178,0.776109933853149,oven,oven,0,0178_ske_s06_0_oven_00_oven-0019-sketch-25.png
subject-06,1,179,0.676224946975708,bicycle,bicycle,0,0179_ske_s06_0_bicycle_00_bicycle-0053-sketch-1.png
subject-06,1,180,0.539735078811646,airplane,airplane,0,0180_ske_s06_0_airplane_00_airplane-0025-sketch-30.png
subject-06,1,181,0.573459148406982,bird,bird,0,0181_ske_s06_0_bird_00_bird-0733-sketch-25.png
subject-06,1,182,0.911262035369873,truck,truck,0,0182_ske_s06_0_truck_00_truck-0034-sketch-39.png
subject-06,1,183,0.649102926254272,keyboard,keyboard,0,0183_ske_s06_0_keyboard_00_keyboard-0005-sketch-12.png
subject-06,1,184,0.738934993743896,knife,knife,0,0184_ske_s06_0_knife_00_knife-0032-sketch-37.png
subject-06,1,185,0.669030904769897,bottle,bottle,0,0185_ske_s06_0_bottle_00_bottle-0114-sketch-2.png
subject-06,1,186,0.556765079498291,oven,oven,0,0186_ske_s06_0_oven_00_oven-0001-sketch-0.png
subject-06,1,187,0.878315925598145,knife,knife,0,0187_ske_s06_0_knife_00_knife-0040-sketch-44.png
subject-06,1,188,0.704319953918457,knife,knife,0,0188_ske_s06_0_knife_00_knife-0036-sketch-40.png
subject-06,1,189,0.774344921112061,cat,cat,0,0189_ske_s06_0_cat_00_cat-0265-sketch-18.png
subject-06,1,190,0.979768037796021,truck,truck,0,0190_ske_s06_0_truck_00_truck-0029-sketch-34.png
subject-06,1,191,0.691722869873047,elephant,elephant,0,0191_ske_s06_0_elephant_00_elephant-0006-sketch-13.png
subject-06,1,192,0.857454061508179,chair,chair,0,0192_ske_s06_0_chair_00_chair-0072-sketch-27.png
subject-06,1,193,0.847147941589355,airplane,airplane,0,0193_ske_s06_0_airplane_00_airplane-0041-sketch-45.png
subject-06,1,194,0.621051073074341,chair,chair,0,0194_ske_s06_0_chair_00_chair-0180-sketch-33.png
subject-06,1,195,0.690953969955444,cat,cat,0,0195_ske_s06_0_cat_00_cat-0104-sketch-10.png
subject-06,1,196,0.684657096862793,truck,truck,0,0196_ske_s06_0_truck_00_truck-0385-sketch-33.png
subject-06,1,197,0.726869821548462,keyboard,keyboard,0,0197_ske_s06_0_keyboard_00_keyboard-0053-sketch-1.png
subject-06,1,198,0.654364824295044,bottle,bottle,0,0198_ske_s06_0_bottle_00_bottle-0131-sketch-35.png
subject-06,1,199,0.852251052856445,bird,bird,0,0199_ske_s06_0_bird_00_bird-1565-sketch-43.png
subject-06,1,200,0.768079042434692,keyboard,keyboard,0,0200_ske_s06_0_keyboard_00_keyboard-0023-sketch-29.png
subject-06,1,201,0.621992111206055,clock,clock,0,0201_ske_s06_0_clock_00_clock-0071-sketch-26.png
subject-06,1,202,0.987537860870361,knife,bicycle,0,0202_ske_s06_0_bicycle_00_bicycle-0034-sketch-39.png
subject-06,1,203,0.929317951202393,keyboard,keyboard,0,0203_ske_s06_0_keyboard_00_keyboard-0006-sketch-13.png
subject-06,1,204,0.70514702796936,boat,boat,0,0204_ske_s06_0_boat_00_boat-0197-sketch-48.png
subject-06,1,205,0.642945051193237,airplane,airplane,0,0205_ske_s06_0_airplane_00_airplane-0004-sketch-11.png
subject-06,1,206,0.623146057128906,dog,dog,0,0206_ske_s06_0_dog_00_dog-5223-sketch-45.png
subject-06,1,207,0.678795099258423,truck,truck,0,0207_ske_s06_0_truck_00_truck-0386-sketch-34.png
subject-06,1,208,0.734420776367188,car,car,0,0208_ske_s06_0_car_00_car-0114-sketch-19.png
subject-06,1,209,0.628606081008911,clock,clock,0,0209_ske_s06_0_clock_00_clock-0035-sketch-4.png
subject-06,1,210,0.608187198638916,clock,clock,0,0210_ske_s06_0_clock_00_clock-0073-sketch-28.png
subject-06,1,211,0.797827005386353,truck,truck,0,0211_ske_s06_0_truck_00_truck-0369-sketch-19.png
subject-06,1,212,1.29967093467712,bicycle,bicycle,0,0212_ske_s06_0_bicycle_00_bicycle-0095-sketch-48.png
subject-06,1,213,0.917782068252563,bear,bear,0,0213_ske_s06_0_bear_00_bear-0123-sketch-28.png
subject-06,1,214,0.607450008392334,bottle,bottle,0,0214_ske_s06_0_bottle_00_bottle-0215-sketch-19.png
subject-06,1,215,0.679305076599121,chair,chair,0,0215_ske_s06_0_chair_00_chair-0006-sketch-13.png
subject-06,1,216,0.916852951049805,boat,boat,0,0216_ske_s06_0_boat_00_boat-0070-sketch-25.png
subject-06,1,217,0.676753997802734,bicycle,bicycle,0,0217_ske_s06_0_bicycle_00_bicycle-0071-sketch-26.png
subject-06,1,218,0.610774993896484,dog,dog,0,0218_ske_s06_0_dog_00_dog-3338-sketch-40.png
subject-06,1,219,0.612462043762207,knife,knife,0,0219_ske_s06_0_knife_00_knife-0001-sketch-0.png
subject-06,1,220,0.920180082321167,oven,oven,0,0220_ske_s06_0_oven_00_oven-0040-sketch-44.png
subject-06,1,221,1.00998401641846,car,car,0,0221_ske_s06_0_car_00_car-0100-sketch-7.png
subject-06,1,222,0.683999061584473,bicycle,bicycle,0,0222_ske_s06_0_bicycle_00_bicycle-0022-sketch-28.png
subject-06,1,223,0.885957002639771,knife,knife,0,0223_ske_s06_0_knife_00_knife-0010-sketch-17.png
subject-06,1,224,1.35136485099792,clock,clock,0,0224_ske_s06_0_clock_00_clock-0143-sketch-45.png
subject-06,1,225,0.625355958938599,bicycle,bicycle,0,0225_ske_s06_0_bicycle_00_bicycle-0048-sketch-6.png
subject-06,1,226,0.611103057861328,dog,dog,0,0226_ske_s06_0_dog_00_dog-0476-sketch-26.png
subject-06,1,227,0.855095863342285,airplane,airplane,0,0227_ske_s06_0_airplane_00_airplane-0034-sketch-39.png
subject-06,1,228,0.836586952209473,elephant,elephant,0,0228_ske_s06_0_elephant_00_elephant-0071-sketch-26.png
subject-06,1,229,0.666553974151611,knife,knife,0,0229_ske_s06_0_knife_00_knife-0028-sketch-33.png
subject-06,1,230,0.614330053329468,clock,clock,0,0230_ske_s06_0_clock_00_clock-0027-sketch-32.png
subject-06,1,231,0.514506101608276,keyboard,keyboard,0,0231_ske_s06_0_keyboard_00_keyboard-0059-sketch-15.png
subject-06,1,232,0.778141021728516,bird,bird,0,0232_ske_s06_0_bird_00_bird-1342-sketch-24.png
subject-06,1,233,0.717911005020142,bear,bear,0,0233_ske_s06_0_bear_00_bear-0073-sketch-29.png
subject-06,1,234,1.00949096679688,keyboard,keyboard,0,0234_ske_s06_0_keyboard_00_keyboard-0043-sketch-47.png
subject-06,1,235,0.929389953613281,keyboard,car,0,0235_ske_s06_0_car_00_car-0029-sketch-34.png
subject-06,1,236,0.85125994682312,keyboard,keyboard,0,0236_ske_s06_0_keyboard_00_keyboard-0068-sketch-23.png
subject-06,1,237,1.09738922119141,knife,knife,0,0237_ske_s06_0_knife_00_knife-0027-sketch-32.png
subject-06,1,238,0.644980907440186,clock,clock,0,0238_ske_s06_0_clock_00_clock-0077-sketch-31.png
subject-06,1,239,0.617110967636108,knife,knife,0,0239_ske_s06_0_knife_00_knife-0020-sketch-26.png
subject-06,1,240,0.676376104354858,knife,knife,0,0240_ske_s06_0_knife_00_knife-0007-sketch-14.png
subject-06,1,241,0.962244987487793,boat,chair,0,0241_ske_s06_0_chair_00_chair-0002-sketch-1.png
subject-06,1,242,0.614110946655273,bottle,bottle,0,0242_ske_s06_0_bottle_00_bottle-0313-sketch-15.png
subject-06,1,243,0.883872032165527,car,car,0,0243_ske_s06_0_car_00_car-0004-sketch-11.png
subject-06,1,244,0.866121053695679,cat,cat,0,0244_ske_s06_0_cat_00_cat-0002-sketch-1.png
subject-06,1,245,0.653491020202637,bear,bear,0,0245_ske_s06_0_bear_00_bear-0026-sketch-31.png
subject-06,1,246,1.30124711990356,car,car,0,0246_ske_s06_0_car_00_car-0122-sketch-26.png
subject-06,1,247,0.607096910476685,oven,oven,0,0247_ske_s06_0_oven_00_oven-0008-sketch-15.png
subject-06,1,248,0.509013891220093,cat,cat,0,0248_ske_s06_0_cat_00_cat-0160-sketch-15.png
subject-06,1,249,0.674682140350342,dog,dog,0,0249_ske_s06_0_dog_00_dog-3303-sketch-0.png
subject-06,1,250,0.57643985748291,keyboard,keyboard,0,0250_ske_s06_0_keyboard_00_keyboard-0091-sketch-44.png
subject-06,1,251,0.936532020568848,elephant,elephant,0,0251_ske_s06_0_elephant_00_elephant-0066-sketch-21.png
subject-06,1,252,0.986164093017578,knife,knife,0,0252_ske_s06_0_knife_00_knife-0021-sketch-27.png
subject-06,1,253,0.624192953109741,cat,cat,0,0253_ske_s06_0_cat_00_cat-0152-sketch-9.png
subject-06,1,254,0.519699096679688,airplane,airplane,0,0254_ske_s06_0_airplane_00_airplane-0047-sketch-50.png
subject-06,1,255,0.661541938781738,bird,bird,0,0255_ske_s06_0_bird_00_bird-0939-sketch-27.png
subject-06,1,256,0.565502166748047,knife,knife,0,0256_ske_s06_0_knife_00_knife-0015-sketch-21.png
subject-06,1,257,0.68317699432373,bird,bird,0,0257_ske_s06_0_bird_00_bird-0491-sketch-37.png
subject-06,1,258,0.901373863220215,elephant,elephant,0,0258_ske_s06_0_elephant_00_elephant-0094-sketch-47.png
subject-06,1,259,0.616839170455933,airplane,airplane,0,0259_ske_s06_0_airplane_00_airplane-0002-sketch-1.png
subject-06,1,260,1.00864195823669,clock,clock,0,0260_ske_s06_0_clock_00_clock-0144-sketch-46.png
subject-06,1,261,0.800462007522583,elephant,elephant,0,0261_ske_s06_0_elephant_00_elephant-0032-sketch-37.png
subject-06,1,262,1.35840916633606,car,car,0,0262_ske_s06_0_car_00_car-0032-sketch-37.png
subject-06,1,263,1.43812584877014,truck,boat,0,0263_ske_s06_0_boat_00_boat-0094-sketch-47.png
subject-06,1,264,0.698137998580933,bicycle,bicycle,0,0264_ske_s06_0_bicycle_00_bicycle-0059-sketch-15.png
subject-06,1,265,0.881786823272705,airplane,airplane,0,0265_ske_s06_0_airplane_00_airplane-0029-sketch-34.png
subject-06,1,266,0.795634984970093,truck,truck,0,0266_ske_s06_0_truck_00_truck-0088-sketch-41.png
subject-06,1,267,0.837265014648438,chair,chair,0,0267_ske_s06_0_chair_00_chair-0131-sketch-35.png
subject-06,1,268,0.773154973983765,cat,cat,0,0268_ske_s06_0_cat_00_cat-0229-sketch-31.png
subject-06,1,269,0.625073194503784,cat,cat,0,0269_ske_s06_0_cat_00_cat-0293-sketch-43.png
subject-06,1,270,0.494940042495728,oven,bottle,0,0270_ske_s06_0_bottle_00_bottle-0237-sketch-39.png
subject-06,1,271,0.668628931045532,knife,knife,0,0271_ske_s06_0_knife_00_knife-0035-sketch-4.png
subject-06,1,272,0.9965660572052,elephant,elephant,0,0272_ske_s06_0_elephant_00_elephant-0061-sketch-17.png
subject-06,1,273,0.804303884506226,car,car,0,0273_ske_s06_0_car_00_car-0017-sketch-23.png
subject-06,1,274,0.580044031143188,airplane,airplane,0,0274_ske_s06_0_airplane_00_airplane-0044-sketch-48.png
subject-06,1,275,0.589843988418579,keyboard,keyboard,0,0275_ske_s06_0_keyboard_00_keyboard-0086-sketch-4.png
subject-06,1,276,0.555942058563232,cat,oven,0,0276_ske_s06_0_oven_00_oven-0022-sketch-28.png
subject-06,1,277,0.629503011703491,bird,bird,0,0277_ske_s06_0_bird_00_bird-0748-sketch-39.png
subject-06,1,278,1.25944113731384,boat,boat,0,0278_ske_s06_0_boat_00_boat-0234-sketch-35.png
subject-06,1,279,0.60542106628418,elephant,elephant,0,0279_ske_s06_0_elephant_00_elephant-0076-sketch-30.png
subject-06,1,280,0.958876132965088,elephant,elephant,0,0280_ske_s06_0_elephant_00_elephant-0020-sketch-26.png
subject-06,1,281,0.564868927001953,bicycle,bicycle,0,0281_ske_s06_0_bicycle_00_bicycle-0098-sketch-50.png
subject-06,1,282,1.29270315170288,bear,bear,0,0282_ske_s06_0_bear_00_bear-0137-sketch-40.png
subject-06,1,283,0.990243911743164,cat,cat,0,0283_ske_s06_0_cat_00_cat-0175-sketch-29.png
subject-06,1,284,0.546106100082397,clock,clock,0,0284_ske_s06_0_clock_00_clock-0059-sketch-15.png
subject-06,1,285,0.838112831115723,bear,bear,0,0285_ske_s06_0_bear_00_bear-0053-sketch-10.png
subject-06,1,286,0.769856929779053,bottle,bottle,0,0286_ske_s06_0_bottle_00_bottle-0301-sketch-50.png
subject-06,1,287,0.841698169708252,oven,oven,0,0287_ske_s06_0_oven_00_oven-0006-sketch-13.png
subject-06,1,288,0.55753493309021,clock,clock,0,0288_ske_s06_0_clock_00_clock-0078-sketch-32.png
subject-06,1,289,0.805433988571167,airplane,airplane,0,0289_ske_s06_0_airplane_00_airplane-0008-sketch-15.png
subject-06,1,290,0.655098915100098,oven,oven,0,0290_ske_s06_0_oven_00_oven-0051-sketch-9.png
subject-06,1,291,0.912841081619263,chair,chair,0,0291_ske_s06_0_chair_00_chair-0076-sketch-30.png
subject-06,1,292,0.680693864822388,bird,bird,0,0292_ske_s06_0_bird_00_bird-0640-sketch-33.png
subject-06,1,293,0.674551010131836,bicycle,bicycle,0,0293_ske_s06_0_bicycle_00_bicycle-0057-sketch-13.png
subject-06,1,294,0.554142951965332,clock,clock,0,0294_ske_s06_0_clock_00_clock-0057-sketch-13.png
subject-06,1,295,0.666460037231445,elephant,elephant,0,0295_ske_s06_0_elephant_00_elephant-0021-sketch-27.png
subject-06,1,296,0.699832916259766,bottle,bottle,0,0296_ske_s06_0_bottle_00_bottle-0019-sketch-25.png
subject-06,1,297,1.27983808517456,oven,oven,0,0297_ske_s06_0_oven_00_oven-0005-sketch-12.png
subject-06,1,298,0.585537195205688,airplane,airplane,0,0298_ske_s06_0_airplane_00_airplane-0009-sketch-16.png
subject-06,1,299,1.05733704566956,keyboard,keyboard,0,0299_ske_s06_0_keyboard_00_keyboard-0019-sketch-25.png
subject-06,1,300,0.749587059020996,knife,knife,0,0300_ske_s06_0_knife_00_knife-0009-sketch-16.png
subject-06,1,301,0.619192123413086,keyboard,keyboard,0,0301_ske_s06_0_keyboard_00_keyboard-0063-sketch-19.png
subject-06,1,302,0.553098917007446,bottle,bottle,0,0302_ske_s06_0_bottle_00_bottle-0330-sketch-30.png
subject-06,1,303,0.910628080368042,dog,dog,0,0303_ske_s06_0_dog_00_dog-0215-sketch-19.png
subject-06,1,304,0.594751834869385,knife,knife,0,0304_ske_s06_0_knife_00_knife-0043-sketch-47.png
subject-06,1,305,1.01829195022583,clock,clock,0,0305_ske_s06_0_clock_00_clock-0095-sketch-48.png
subject-06,1,306,0.574071168899536,oven,oven,0,0306_ske_s06_0_oven_00_oven-0043-sketch-47.png
subject-06,1,307,0.75995397567749,bear,bear,0,0307_ske_s06_0_bear_00_bear-0007-sketch-14.png
subject-06,1,308,0.65777587890625,cat,cat,0,0308_ske_s06_0_cat_00_cat-0067-sketch-23.png
subject-06,1,309,0.735533952713013,elephant,elephant,0,0309_ske_s06_0_elephant_00_elephant-0039-sketch-43.png
subject-06,1,310,0.549395084381104,car,truck,0,0310_ske_s06_0_truck_00_truck-0275-sketch-26.png
subject-06,1,311,0.60922384262085,chair,chair,0,0311_ske_s06_0_chair_00_chair-0176-sketch-3.png
subject-06,1,312,0.790910005569458,truck,truck,0,0312_ske_s06_0_truck_00_truck-0167-sketch-20.png
subject-06,1,313,0.820811033248901,oven,oven,0,0313_ske_s06_0_oven_00_oven-0033-sketch-38.png
subject-06,1,314,0.966475009918213,boat,boat,0,0314_ske_s06_0_boat_00_boat-0152-sketch-8.png
subject-06,1,315,0.624320030212402,elephant,elephant,0,0315_ske_s06_0_elephant_00_elephant-0002-sketch-1.png
subject-06,1,316,0.972426891326904,bear,bear,0,0316_ske_s06_0_bear_00_bear-0188-sketch-40.png
subject-06,1,317,0.62011194229126,bird,bird,0,0317_ske_s06_0_bird_00_bird-2312-sketch-27.png
subject-06,1,318,0.625734090805054,bottle,bottle,0,0318_ske_s06_0_bottle_00_bottle-0184-sketch-37.png
subject-06,1,319,0.711530923843384,dog,dog,0,0319_ske_s06_0_dog_00_dog-4475-sketch-11.png
subject-06,1,320,0.623810052871704,knife,knife,0,0320_ske_s06_0_knife_00_knife-0011-sketch-18.png
subject-06,1,321,0.794763088226318,airplane,airplane,0,0321_ske_s06_0_airplane_00_airplane-0028-sketch-33.png
subject-06,1,322,0.508581876754761,clock,clock,0,0322_ske_s06_0_clock_00_clock-0017-sketch-23.png
subject-06,1,323,0.540341138839722,bicycle,bicycle,0,0323_ske_s06_0_bicycle_00_bicycle-0011-sketch-18.png
subject-06,1,324,0.930022001266479,boat,boat,0,0324_ske_s06_0_boat_00_boat-0065-sketch-20.png
subject-06,1,325,0.533825874328613,airplane,airplane,0,0325_ske_s06_0_airplane_00_airplane-0003-sketch-10.png
subject-06,1,326,0.63387393951416,car,truck,0,0326_ske_s06_0_truck_00_truck-0266-sketch-18.png
subject-06,1,327,1.11554288864136,car,truck,0,0327_ske_s06_0_truck_00_truck-0303-sketch-6.png
subject-06,1,328,0.551281929016113,keyboard,keyboard,0,0328_ske_s06_0_keyboard_00_keyboard-0008-sketch-15.png
subject-06,1,329,0.645051002502441,bottle,bottle,0,0329_ske_s06_0_bottle_00_bottle-0090-sketch-44.png
subject-06,1,330,0.652814149856567,cat,cat,0,0330_ske_s06_0_cat_00_cat-0048-sketch-7.png
subject-06,1,331,0.524763107299805,car,car,0,0331_ske_s06_0_car_00_car-0013-sketch-2.png
subject-06,1,332,0.642545938491821,bicycle,bicycle,0,0332_ske_s06_0_bicycle_00_bicycle-0023-sketch-29.png
subject-06,1,333,0.798373937606812,bird,bird,0,0333_ske_s06_0_bird_00_bird-1937-sketch-10.png
subject-06,1,334,1.12219309806824,bear,bear,0,0334_ske_s06_0_bear_00_bear-0170-sketch-24.png
subject-06,1,335,0.55197811126709,elephant,elephant,0,0335_ske_s06_0_elephant_00_elephant-0019-sketch-25.png
subject-06,1,336,0.867801904678345,keyboard,keyboard,0,0336_ske_s06_0_keyboard_00_keyboard-0035-sketch-4.png
subject-06,1,337,0.809561014175415,bottle,bottle,0,0337_ske_s06_0_bottle_00_bottle-0202-sketch-8.png
subject-06,1,338,0.541495084762573,bird,bird,0,0338_ske_s06_0_bird_00_bird-1562-sketch-40.png
subject-06,1,339,0.77121901512146,clock,clock,0,0339_ske_s06_0_clock_00_clock-0021-sketch-27.png
subject-06,1,340,0.839234113693237,bear,bear,0,0340_ske_s06_0_bear_00_bear-0033-sketch-38.png
subject-06,1,341,1.01522302627563,elephant,elephant,0,0341_ske_s06_0_elephant_00_elephant-0022-sketch-28.png
subject-06,1,342,1.03688788414001,elephant,elephant,0,0342_ske_s06_0_elephant_00_elephant-0033-sketch-38.png
subject-06,1,343,0.582639932632446,clock,clock,0,0343_ske_s06_0_clock_00_clock-0060-sketch-16.png
subject-06,1,344,0.708393096923828,chair,chair,0,0344_ske_s06_0_chair_00_chair-0122-sketch-27.png
subject-06,1,345,0.714103937149048,knife,knife,0,0345_ske_s06_0_knife_00_knife-0034-sketch-39.png
subject-06,1,346,0.824245929718018,bird,bird,0,0346_ske_s06_0_bird_00_bird-0685-sketch-28.png
subject-06,1,347,0.555754899978638,bottle,bottle,0,0347_ske_s06_0_bottle_00_bottle-0107-sketch-13.png
subject-06,1,348,0.777769088745117,bicycle,bicycle,0,0348_ske_s06_0_bicycle_00_bicycle-0038-sketch-42.png
subject-06,1,349,0.503604173660278,oven,oven,0,0349_ske_s06_0_oven_00_oven-0012-sketch-19.png
subject-06,1,350,0.611463069915771,dog,dog,0,0350_ske_s06_0_dog_00_dog-3695-sketch-40.png
subject-06,1,351,0.865006923675537,cat,cat,0,0351_ske_s06_0_cat_00_cat-0158-sketch-13.png
subject-06,1,352,0.571195125579834,dog,dog,0,0352_ske_s06_0_dog_00_dog-1035-sketch-27.png
subject-06,1,353,0.658663034439087,boat,boat,0,0353_ske_s06_0_boat_00_boat-0088-sketch-41.png
subject-06,1,354,1.07450485229492,bird,truck,0,0354_ske_s06_0_truck_00_truck-0157-sketch-11.png
subject-06,1,355,0.714599847793579,car,car,0,0355_ske_s06_0_car_00_car-0014-sketch-20.png
subject-06,1,356,0.850090980529785,dog,dog,0,0356_ske_s06_0_dog_00_dog-1617-sketch-48.png
subject-06,1,357,0.541981935501099,boat,boat,0,0357_ske_s06_0_boat_00_boat-0124-sketch-28.png
subject-06,1,358,0.543797969818115,boat,boat,0,0358_ske_s06_0_boat_00_boat-0180-sketch-32.png
subject-06,1,359,0.679605007171631,bear,bear,0,0359_ske_s06_0_bear_00_bear-0068-sketch-24.png
subject-06,1,360,0.665546894073486,elephant,elephant,0,0360_ske_s06_0_elephant_00_elephant-0001-sketch-0.png
subject-06,1,361,0.927052021026611,dog,dog,0,0361_ske_s06_0_dog_00_dog-1759-sketch-38.png
subject-06,1,362,0.806864023208618,cat,chair,0,0362_ske_s06_0_chair_00_chair-0153-sketch-0.png
subject-06,1,363,0.693038940429688,keyboard,keyboard,0,0363_ske_s06_0_keyboard_00_keyboard-0037-sketch-41.png
subject-06,1,364,0.596759080886841,keyboard,keyboard,0,0364_ske_s06_0_keyboard_00_keyboard-0034-sketch-39.png
subject-06,1,365,0.562330007553101,bear,bear,0,0365_ske_s06_0_bear_00_bear-0005-sketch-12.png
subject-06,1,366,1.2645890712738,bicycle,bicycle,0,0366_ske_s06_0_bicycle_00_bicycle-0002-sketch-1.png
subject-06,1,367,0.740024089813232,oven,oven,0,0367_ske_s06_0_oven_00_oven-0047-sketch-50.png
subject-06,1,368,1.50008010864258,oven,oven,0,0368_ske_s06_0_oven_00_oven-0030-sketch-35.png
subject-06,1,369,0.617921113967896,knife,knife,0,0369_ske_s06_0_knife_00_knife-0006-sketch-13.png
subject-06,1,370,0.865555047988892,elephant,elephant,0,0370_ske_s06_0_elephant_00_elephant-0013-sketch-2.png
subject-06,1,371,0.529299974441528,clock,clock,0,0371_ske_s06_0_clock_00_clock-0067-sketch-22.png
subject-06,1,372,0.873049974441528,airplane,airplane,0,0372_ske_s06_0_airplane_00_airplane-0039-sketch-43.png
subject-06,1,373,0.65887188911438,boat,boat,0,0373_ske_s06_0_boat_00_boat-0130-sketch-33.png
subject-06,1,374,0.760586023330688,car,truck,0,0374_ske_s06_0_truck_00_truck-0213-sketch-16.png
subject-06,1,375,0.792498111724854,car,car,0,0375_ske_s06_0_car_00_car-0052-sketch-0.png
subject-06,1,376,0.640660047531128,bicycle,bicycle,0,0376_ske_s06_0_bicycle_00_bicycle-0060-sketch-16.png
subject-06,1,377,0.824082136154175,boat,boat,0,0377_ske_s06_0_boat_00_boat-0080-sketch-34.png
subject-06,1,378,0.688120126724243,dog,dog,0,0378_ske_s06_0_dog_00_dog-1460-sketch-44.png
subject-06,1,379,0.859894990921021,car,car,0,0379_ske_s06_0_car_00_car-0092-sketch-45.png
subject-06,1,380,0.843724966049194,truck,truck,0,0380_ske_s06_0_truck_00_truck-0307-sketch-0.png
subject-06,1,381,0.677341938018799,airplane,airplane,0,0381_ske_s06_0_airplane_00_airplane-0030-sketch-35.png
subject-06,1,382,0.641140937805176,cat,cat,0,0382_ske_s06_0_cat_00_cat-0011-sketch-18.png
subject-06,1,383,0.755186080932617,oven,oven,0,0383_ske_s06_0_oven_00_oven-0009-sketch-16.png
subject-06,1,384,0.631048917770386,bicycle,bicycle,0,0384_ske_s06_0_bicycle_00_bicycle-0080-sketch-34.png
subject-06,1,385,0.774767875671387,boat,boat,0,0385_ske_s06_0_boat_00_boat-0239-sketch-4.png
subject-06,1,386,0.670547962188721,car,truck,0,0386_ske_s06_0_truck_00_truck-0192-sketch-43.png
subject-06,1,387,0.632333993911743,car,car,0,0387_ske_s06_0_car_00_car-0043-sketch-47.png
subject-06,1,388,0.704482078552246,car,car,0,0388_ske_s06_0_car_00_car-0139-sketch-41.png
subject-06,1,389,1.06003713607788,bottle,bottle,0,0389_ske_s06_0_bottle_00_bottle-0243-sketch-44.png
subject-06,1,390,0.855716943740845,boat,truck,0,0390_ske_s06_0_truck_00_truck-0161-sketch-15.png
subject-06,1,391,1.20149898529053,truck,truck,0,0391_ske_s06_0_truck_00_truck-0196-sketch-47.png
subject-06,1,392,0.851608037948608,bear,bear,0,0392_ske_s06_0_bear_00_bear-0136-sketch-4.png
subject-06,1,393,0.723582983016968,chair,chair,0,0393_ske_s06_0_chair_00_chair-0167-sketch-21.png
subject-06,1,394,0.628931999206543,dog,dog,0,0394_ske_s06_0_dog_00_dog-2506-sketch-23.png
subject-06,1,395,1.10870599746704,cat,oven,0,0395_ske_s06_0_oven_00_oven-0023-sketch-29.png
subject-06,1,396,0.582562923431396,bird,bird,0,0396_ske_s06_0_bird_00_bird-0047-sketch-50.png
subject-06,1,397,0.732584953308105,bird,bird,0,0397_ske_s06_0_bird_00_bird-2262-sketch-28.png
subject-06,1,398,0.898286104202271,bird,bird,0,0398_ske_s06_0_bird_00_bird-0030-sketch-35.png
subject-06,1,399,0.920278072357178,dog,dog,0,0399_ske_s06_0_dog_00_dog-4499-sketch-33.png
subject-06,1,400,0.552219152450562,airplane,airplane,0,0400_ske_s06_0_airplane_00_airplane-0035-sketch-4.png
subject-06,1,401,0.580044031143188,bottle,bottle,0,0401_ske_s06_0_bottle_00_bottle-0086-sketch-40.png
subject-06,1,402,0.629381895065308,keyboard,keyboard,0,0402_ske_s06_0_keyboard_00_keyboard-0052-sketch-0.png
subject-06,1,403,0.635251045227051,bicycle,bicycle,0,0403_ske_s06_0_bicycle_00_bicycle-0047-sketch-50.png
subject-06,1,404,0.743430137634277,bottle,bottle,0,0404_ske_s06_0_bottle_00_bottle-0143-sketch-46.png
subject-06,1,405,0.647081136703491,chair,chair,0,0405_ske_s06_0_chair_00_chair-0118-sketch-23.png
subject-06,1,406,0.646740913391113,keyboard,keyboard,0,0406_ske_s06_0_keyboard_00_keyboard-0007-sketch-14.png
subject-06,1,407,0.992498874664307,car,car,0,0407_ske_s06_0_car_00_car-0117-sketch-21.png
subject-06,1,408,0.642398834228516,keyboard,keyboard,0,0408_ske_s06_0_keyboard_00_keyboard-0016-sketch-22.png
subject-06,1,409,0.726120948791504,car,car,0,0409_ske_s06_0_car_00_car-0116-sketch-20.png
subject-06,1,410,0.523945093154907,bird,bird,0,0410_ske_s06_0_bird_00_bird-1756-sketch-31.png
subject-06,1,411,0.657757043838501,bottle,bottle,0,0411_ske_s06_0_bottle_00_bottle-0054-sketch-11.png
subject-06,1,412,0.735760927200317,keyboard,keyboard,0,0412_ske_s06_0_keyboard_00_keyboard-0026-sketch-31.png
subject-06,1,413,0.549268960952759,bottle,bottle,0,0413_ske_s06_0_bottle_00_bottle-0031-sketch-36.png
subject-06,1,414,0.563339948654175,boat,boat,0,0414_ske_s06_0_boat_00_boat-0115-sketch-2.png
subject-06,1,415,0.577054977416992,boat,boat,0,0415_ske_s06_0_boat_00_boat-0059-sketch-15.png
subject-06,1,416,1.36677694320679,dog,dog,0,0416_ske_s06_0_dog_00_dog-4208-sketch-45.png
subject-06,1,417,0.853005170822144,clock,clock,0,0417_ske_s06_0_clock_00_clock-0115-sketch-2.png
subject-06,1,418,0.678492069244385,bottle,bottle,0,0418_ske_s06_0_bottle_00_bottle-0280-sketch-31.png
subject-06,1,419,1.02440309524536,chair,chair,0,0419_ske_s06_0_chair_00_chair-0145-sketch-48.png
subject-06,1,420,0.976569890975952,dog,cat,0,0420_ske_s06_0_cat_00_cat-0279-sketch-30.png
subject-06,1,421,0.896244049072266,bird,bird,0,0421_ske_s06_0_bird_00_bird-0228-sketch-3.png
subject-06,1,422,0.553776025772095,chair,chair,0,0422_ske_s06_0_chair_00_chair-0124-sketch-29.png
subject-06,1,423,0.695559024810791,oven,oven,0,0423_ske_s06_0_oven_00_oven-0026-sketch-31.png
subject-06,1,424,0.587167024612427,dog,dog,0,0424_ske_s06_0_dog_00_dog-2150-sketch-22.png
subject-06,1,425,0.549154996871948,oven,oven,0,0425_ske_s06_0_oven_00_oven-0039-sketch-43.png
subject-06,1,426,0.758954048156738,airplane,airplane,0,0426_ske_s06_0_airplane_00_airplane-0031-sketch-36.png
subject-06,1,427,0.603216171264648,elephant,elephant,0,0427_ske_s06_0_elephant_00_elephant-0065-sketch-20.png
subject-06,1,428,0.624513864517212,cat,cat,0,0428_ske_s06_0_cat_00_cat-0044-sketch-48.png
subject-06,1,429,1.11075091362,dog,oven,0,0429_ske_s06_0_oven_00_oven-0013-sketch-2.png
subject-06,1,430,0.510174989700317,oven,oven,0,0430_ske_s06_0_oven_00_oven-0031-sketch-36.png
subject-06,1,431,0.861989974975586,chair,chair,0,0431_ske_s06_0_chair_00_chair-0079-sketch-33.png
subject-06,1,432,0.60974907875061,airplane,airplane,0,0432_ske_s06_0_airplane_00_airplane-0018-sketch-24.png
subject-06,1,433,0.905787944793701,clock,clock,0,0433_ske_s06_0_clock_00_clock-0005-sketch-12.png
subject-06,1,434,0.569514036178589,car,truck,0,0434_ske_s06_0_truck_00_truck-0232-sketch-33.png
subject-06,1,435,0.78314995765686,clock,clock,0,0435_ske_s06_0_clock_00_clock-0110-sketch-15.png
subject-06,1,436,0.753062963485718,chair,chair,0,0436_ske_s06_0_chair_00_chair-0034-sketch-39.png
subject-06,1,437,0.934857845306396,airplane,airplane,0,0437_ske_s06_0_airplane_00_airplane-0033-sketch-38.png
subject-06,1,438,0.60896110534668,cat,cat,0,0438_ske_s06_0_cat_00_cat-0134-sketch-38.png
subject-06,1,439,0.596472024917603,elephant,elephant,0,0439_ske_s06_0_elephant_00_elephant-0058-sketch-14.png
subject-06,1,440,0.986398935317993,bear,bear,0,0440_ske_s06_0_bear_00_bear-0027-sketch-32.png
subject-06,1,441,0.672194957733154,airplane,airplane,0,0441_ske_s06_0_airplane_00_airplane-0007-sketch-14.png
subject-06,1,442,0.689898014068604,chair,chair,0,0442_ske_s06_0_chair_00_chair-0125-sketch-3.png
subject-06,1,443,0.819896936416626,truck,car,0,0443_ske_s06_0_car_00_car-0002-sketch-1.png
subject-06,1,444,0.88569188117981,chair,chair,0,0444_ske_s06_0_chair_00_chair-0060-sketch-16.png
subject-06,1,445,0.885555982589722,bird,bird,0,0445_ske_s06_0_bird_00_bird-0415-sketch-14.png
subject-06,1,446,0.589223146438599,car,car,0,0446_ske_s06_0_car_00_car-0024-sketch-3.png
subject-06,1,447,0.84695291519165,bear,bear,0,0447_ske_s06_0_bear_00_bear-0179-sketch-32.png
subject-06,1,448,0.824687957763672,bicycle,bicycle,0,0448_ske_s06_0_bicycle_00_bicycle-0099-sketch-6.png
subject-06,1,449,0.562610149383545,clock,clock,0,0449_ske_s06_0_clock_00_clock-0049-sketch-7.png
subject-06,1,450,0.888293027877808,dog,dog,0,0450_ske_s06_0_dog_00_dog-4202-sketch-4.png
subject-06,1,451,0.844213962554932,dog,bottle,0,0451_ske_s06_0_bottle_00_bottle-0294-sketch-44.png
subject-06,1,452,0.79217004776001,truck,truck,0,0452_ske_s06_0_truck_00_truck-0342-sketch-40.png
subject-06,1,453,0.824217081069946,boat,boat,0,0453_ske_s06_0_boat_00_boat-0016-sketch-22.png
subject-06,1,454,0.793706178665161,knife,knife,0,0454_ske_s06_0_knife_00_knife-0017-sketch-23.png
subject-06,1,455,1.08160805702209,airplane,airplane,0,0455_ske_s06_0_airplane_00_airplane-0006-sketch-13.png
subject-06,1,456,0.96934700012207,keyboard,keyboard,0,0456_ske_s06_0_keyboard_00_keyboard-0031-sketch-36.png
subject-06,1,457,0.881042003631592,bottle,bottle,0,0457_ske_s06_0_bottle_00_bottle-0066-sketch-22.png
subject-06,1,458,0.730884075164795,dog,dog,0,0458_ske_s06_0_dog_00_dog-2948-sketch-10.png
subject-06,1,459,0.650870800018311,bicycle,bicycle,0,0459_ske_s06_0_bicycle_00_bicycle-0019-sketch-25.png
subject-06,1,460,1.0508770942688,bear,bear,0,0460_ske_s06_0_bear_00_bear-0148-sketch-50.png
subject-06,1,461,0.646338939666748,airplane,airplane,0,0461_ske_s06_0_airplane_00_airplane-0016-sketch-22.png
subject-06,1,462,0.742183923721313,car,car,0,0462_ske_s06_0_car_00_car-0045-sketch-49.png
subject-06,1,463,0.638315916061401,boat,boat,0,0463_ske_s06_0_boat_00_boat-0002-sketch-1.png
subject-06,1,464,0.640055894851685,oven,oven,0,0464_ske_s06_0_oven_00_oven-0032-sketch-37.png
subject-06,1,465,0.523613929748535,keyboard,keyboard,0,0465_ske_s06_0_keyboard_00_keyboard-0064-sketch-2.png
subject-06,1,466,0.869478225708008,cat,dog,0,0466_ske_s06_0_dog_00_dog-0111-sketch-17.png
subject-06,1,467,0.909173011779785,oven,oven,0,0467_ske_s06_0_oven_00_oven-0042-sketch-46.png
subject-06,1,468,0.961365938186646,bear,bear,0,0468_ske_s06_0_bear_00_bear-0048-sketch-7.png
subject-06,1,469,0.696929931640625,dog,dog,0,0469_ske_s06_0_dog_00_dog-5325-sketch-45.png
subject-06,1,470,0.554569959640503,clock,clock,0,0470_ske_s06_0_clock_00_clock-0070-sketch-25.png
subject-06,1,471,0.814480066299438,bicycle,bicycle,0,0471_ske_s06_0_bicycle_00_bicycle-0094-sketch-47.png
subject-06,1,472,0.964201927185059,clock,clock,0,0472_ske_s06_0_clock_00_clock-0112-sketch-17.png
subject-06,1,473,0.582175016403198,clock,clock,0,0473_ske_s06_0_clock_00_clock-0069-sketch-24.png
subject-06,1,474,0.815935134887695,bicycle,bicycle,0,0474_ske_s06_0_bicycle_00_bicycle-0075-sketch-3.png
subject-06,1,475,1.10158610343933,car,car,0,0475_ske_s06_0_car_00_car-0083-sketch-37.png
subject-06,1,476,0.739439964294434,bottle,bottle,0,0476_ske_s06_0_bottle_00_bottle-0097-sketch-50.png
subject-06,1,477,0.687426090240479,boat,boat,0,0477_ske_s06_0_boat_00_boat-0052-sketch-0.png
subject-06,1,478,0.907199144363403,cat,bear,0,0478_ske_s06_0_bear_00_bear-0195-sketch-47.png
subject-06,1,479,0.666982889175415,bear,bear,0,0479_ske_s06_0_bear_00_bear-0045-sketch-49.png
subject-06,1,480,1.10667777061462,boat,boat,0,0480_ske_s06_0_boat_00_boat-0237-sketch-38.png
subject-06,1,481,0.814393997192383,clock,clock,0,0481_ske_s06_0_clock_00_clock-0022-sketch-28.png
subject-06,1,482,0.570214986801147,knife,knife,0,0482_ske_s06_0_knife_00_knife-0018-sketch-24.png
subject-06,1,483,0.663666009902954,car,truck,0,0483_ske_s06_0_truck_00_truck-0286-sketch-36.png
subject-06,1,484,1.31739401817322,bird,bird,0,0484_ske_s06_0_bird_00_bird-1033-sketch-20.png
subject-06,1,485,0.771417856216431,clock,clock,0,0485_ske_s06_0_clock_00_clock-0127-sketch-30.png
subject-06,1,486,0.499141931533813,boat,boat,0,0486_ske_s06_0_boat_00_boat-0113-sketch-18.png
subject-06,1,487,0.752897024154663,boat,boat,0,0487_ske_s06_0_boat_00_boat-0166-sketch-2.png
subject-06,1,488,0.778909921646118,knife,knife,0,0488_ske_s06_0_knife_00_knife-0024-sketch-3.png
subject-06,1,489,0.84253978729248,clock,clock,0,0489_ske_s06_0_clock_00_clock-0131-sketch-34.png
subject-06,1,490,1.0003399848938,bottle,bottle,0,0490_ske_s06_0_bottle_00_bottle-0185-sketch-38.png
subject-06,1,491,0.810267925262451,cat,cat,0,0491_ske_s06_0_cat_00_cat-0128-sketch-32.png
subject-06,1,492,1.2480092048645,bird,bird,0,0492_ske_s06_0_bird_00_bird-0384-sketch-32.png
subject-06,1,493,0.893901109695435,car,truck,0,0493_ske_s06_0_truck_00_truck-0289-sketch-39.png
subject-06,1,494,0.801644086837769,clock,clock,0,0494_ske_s06_0_clock_00_clock-0044-sketch-48.png
subject-06,1,495,1.00740909576416,car,truck,0,0495_ske_s06_0_truck_00_truck-0079-sketch-33.png
subject-06,1,496,0.727317094802856,bird,bird,0,0496_ske_s06_0_bird_00_bird-1948-sketch-20.png
subject-06,1,497,0.571192979812622,bicycle,bicycle,0,0497_ske_s06_0_bicycle_00_bicycle-0078-sketch-32.png
subject-06,1,498,0.936936855316162,bear,bear,0,0498_ske_s06_0_bear_00_bear-0187-sketch-4.png
subject-06,1,499,0.664772987365723,elephant,elephant,0,0499_ske_s06_0_elephant_00_elephant-0080-sketch-34.png
subject-06,1,500,0.568573951721191,car,car,0,0500_ske_s06_0_car_00_car-0112-sketch-17.png
subject-06,1,501,0.734366178512573,bottle,bottle,0,0501_ske_s06_0_bottle_00_bottle-0135-sketch-39.png
subject-06,1,502,0.826354026794434,cat,cat,0,0502_ske_s06_0_cat_00_cat-0245-sketch-46.png
subject-06,1,503,0.630017995834351,chair,chair,0,0503_ske_s06_0_chair_00_chair-0071-sketch-26.png
subject-06,1,504,0.893694877624512,bear,bear,0,0504_ske_s06_0_bear_00_bear-0059-sketch-16.png
subject-06,1,505,0.659588813781738,bear,bear,0,0505_ske_s06_0_bear_00_bear-0049-sketch-8.png
subject-06,1,506,0.575385093688965,clock,clock,0,0506_ske_s06_0_clock_00_clock-0046-sketch-5.png
subject-06,1,507,0.855291843414307,cat,truck,0,0507_ske_s06_0_truck_00_truck-0368-sketch-18.png
subject-06,1,508,0.481033086776733,clock,clock,0,0508_ske_s06_0_clock_00_clock-0132-sketch-35.png
subject-06,1,509,0.716756105422974,elephant,elephant,0,0509_ske_s06_0_elephant_00_elephant-0048-sketch-6.png
subject-06,1,510,0.768589973449707,elephant,elephant,0,0510_ske_s06_0_elephant_00_elephant-0086-sketch-4.png
subject-06,1,511,0.648327112197876,clock,clock,0,0511_ske_s06_0_clock_00_clock-0033-sketch-38.png
subject-06,1,512,1.24024391174316,dog,dog,0,0512_ske_s06_0_dog_00_dog-3646-sketch-42.png
subject-06,1,513,1.24020600318909,boat,boat,0,0513_ske_s06_0_boat_00_boat-0194-sketch-45.png
subject-06,1,514,0.628010988235474,knife,knife,0,0514_ske_s06_0_knife_00_knife-0031-sketch-36.png
subject-06,1,515,0.911598920822144,bottle,bottle,0,0515_ske_s06_0_bottle_00_bottle-0245-sketch-46.png
subject-06,1,516,1.08166813850403,bicycle,bicycle,0,0516_ske_s06_0_bicycle_00_bicycle-0058-sketch-14.png
subject-06,1,517,1.19130921363831,elephant,elephant,0,0517_ske_s06_0_elephant_00_elephant-0025-sketch-30.png
subject-06,1,518,0.815075874328613,keyboard,keyboard,0,0518_ske_s06_0_keyboard_00_keyboard-0071-sketch-26.png
subject-06,1,519,0.76894998550415,dog,dog,0,0519_ske_s06_0_dog_00_dog-3503-sketch-6.png
subject-06,1,520,0.834834098815918,bicycle,bicycle,0,0520_ske_s06_0_bicycle_00_bicycle-0083-sketch-37.png
subject-06,1,521,0.884881973266602,boat,boat,0,0521_ske_s06_0_boat_00_boat-0228-sketch-3.png
subject-06,1,522,0.650545835494995,truck,truck,0,0522_ske_s06_0_truck_00_truck-0025-sketch-30.png
subject-06,1,523,0.808587074279785,truck,truck,0,0523_ske_s06_0_truck_00_truck-0007-sketch-14.png
subject-06,1,524,0.974024057388306,bird,oven,0,0524_ske_s06_0_oven_00_oven-0002-sketch-1.png
subject-06,1,525,0.539764165878296,bicycle,bicycle,0,0525_ske_s06_0_bicycle_00_bicycle-0087-sketch-40.png
subject-06,1,526,0.997602939605713,truck,truck,0,0526_ske_s06_0_truck_00_truck-0075-sketch-3.png
subject-06,1,527,0.741422891616821,dog,dog,0,0527_ske_s06_0_dog_00_dog-3417-sketch-2.png
subject-06,1,528,0.567255020141602,knife,knife,0,0528_ske_s06_0_knife_00_knife-0050-sketch-8.png
subject-06,1,529,1.19501900672913,airplane,airplane,0,0529_ske_s06_0_airplane_00_airplane-0017-sketch-23.png
subject-06,1,530,0.803241968154907,bird,bird,0,0530_ske_s06_0_bird_00_bird-0834-sketch-24.png
subject-06,1,531,0.754750967025757,dog,cat,0,0531_ske_s06_0_cat_00_cat-0233-sketch-35.png
subject-06,1,532,1.05646395683289,clock,clock,0,0532_ske_s06_0_clock_00_clock-0074-sketch-29.png
subject-06,1,533,0.75225305557251,bottle,bottle,0,0533_ske_s06_0_bottle_00_bottle-0126-sketch-30.png
subject-06,1,534,0.684237957000732,keyboard,keyboard,0,0534_ske_s06_0_keyboard_00_keyboard-0047-sketch-50.png
subject-06,1,535,1.38627791404724,dog,dog,0,0535_ske_s06_0_dog_00_dog-4581-sketch-16.png
subject-06,1,536,0.663936138153076,oven,oven,0,0536_ske_s06_0_oven_00_oven-0018-sketch-24.png
subject-06,1,537,0.543658018112183,keyboard,keyboard,0,0537_ske_s06_0_keyboard_00_keyboard-0017-sketch-23.png
subject-06,1,538,0.579319000244141,bird,bird,0,0538_ske_s06_0_bird_00_bird-1740-sketch-17.png
subject-06,1,539,0.515290021896362,airplane,airplane,0,0539_ske_s06_0_airplane_00_airplane-0049-sketch-7.png
subject-06,1,540,0.538887977600098,cat,cat,0,0540_ske_s06_0_cat_00_cat-0016-sketch-22.png
subject-06,1,541,0.472676992416382,airplane,airplane,0,0541_ske_s06_0_airplane_00_airplane-0045-sketch-49.png
subject-06,1,542,0.682669162750244,bicycle,bicycle,0,0542_ske_s06_0_bicycle_00_bicycle-0026-sketch-31.png
subject-06,1,543,0.732516050338745,bicycle,bicycle,0,0543_ske_s06_0_bicycle_00_bicycle-0068-sketch-23.png
subject-06,1,544,0.814073801040649,bear,bear,0,0544_ske_s06_0_bear_00_bear-0117-sketch-22.png
subject-06,1,545,0.694199085235596,bottle,bottle,0,0545_ske_s06_0_bottle_00_bottle-0082-sketch-37.png
subject-06,1,546,1.49584221839905,car,car,0,0546_ske_s06_0_car_00_car-0136-sketch-39.png
subject-06,1,547,0.555678844451904,knife,knife,0,0547_ske_s06_0_knife_00_knife-0012-sketch-19.png
subject-06,1,548,0.953831911087036,car,car,0,0548_ske_s06_0_car_00_car-0034-sketch-39.png
subject-06,1,549,1.19724702835083,oven,oven,0,0549_ske_s06_0_oven_00_oven-0010-sketch-17.png
subject-06,1,550,0.845176935195923,elephant,elephant,0,0550_ske_s06_0_elephant_00_elephant-0040-sketch-44.png
subject-06,1,551,0.826997041702271,car,car,0,0551_ske_s06_0_car_00_car-0098-sketch-50.png
subject-06,1,552,0.490787029266357,cat,cat,0,0552_ske_s06_0_cat_00_cat-0015-sketch-21.png
subject-06,1,553,NaN,na,chair,0,0553_ske_s06_0_chair_00_chair-0175-sketch-29.png
subject-06,1,554,0.874321937561035,knife,knife,0,0554_ske_s06_0_knife_00_knife-0042-sketch-46.png
subject-06,1,555,0.704128980636597,keyboard,keyboard,0,0555_ske_s06_0_keyboard_00_keyboard-0004-sketch-11.png
subject-06,1,556,0.756150007247925,boat,knife,0,0556_ske_s06_0_knife_00_knife-0049-sketch-7.png
subject-06,1,557,0.945949077606201,car,car,0,0557_ske_s06_0_car_00_car-0018-sketch-24.png
subject-06,1,558,1.00561809539795,car,boat,0,0558_ske_s06_0_boat_00_boat-0146-sketch-48.png
subject-06,1,559,0.679272890090942,truck,truck,0,0559_ske_s06_0_truck_00_truck-0136-sketch-39.png
subject-06,1,560,1.05729508399963,airplane,airplane,0,0560_ske_s06_0_airplane_00_airplane-0019-sketch-25.png
subject-06,1,561,0.963356971740723,clock,clock,0,0561_ske_s06_0_clock_00_clock-0123-sketch-27.png
subject-06,1,562,1.28274703025818,bird,bird,0,0562_ske_s06_0_bird_00_bird-2372-sketch-36.png
subject-06,1,563,1.13067698478699,dog,dog,0,0563_ske_s06_0_dog_00_dog-2615-sketch-3.png
subject-06,1,564,0.788800954818726,oven,oven,0,0564_ske_s06_0_oven_00_oven-0011-sketch-18.png
subject-06,1,565,0.768235206604004,bird,bird,0,0565_ske_s06_0_bird_00_bird-1081-sketch-18.png
subject-06,1,566,0.678472995758057,bicycle,bicycle,0,0566_ske_s06_0_bicycle_00_bicycle-0044-sketch-48.png
subject-06,1,567,1.39799094200134,oven,boat,0,0567_ske_s06_0_boat_00_boat-0085-sketch-39.png
subject-06,1,568,0.735790014266968,airplane,airplane,0,0568_ske_s06_0_airplane_00_airplane-0020-sketch-26.png
subject-06,1,569,0.75544285774231,chair,chair,0,0569_ske_s06_0_chair_00_chair-0166-sketch-20.png
subject-06,1,570,0.913419008255005,elephant,elephant,0,0570_ske_s06_0_elephant_00_elephant-0101-sketch-8.png
subject-06,1,571,0.693154811859131,clock,clock,0,0571_ske_s06_0_clock_00_clock-0081-sketch-35.png
subject-06,1,572,0.583046913146973,chair,chair,0,0572_ske_s06_0_chair_00_chair-0067-sketch-22.png
subject-06,1,573,0.490902185440063,airplane,airplane,0,0573_ske_s06_0_airplane_00_airplane-0037-sketch-41.png
subject-06,1,574,1.2269139289856,bottle,bottle,0,0574_ske_s06_0_bottle_00_bottle-0321-sketch-22.png
subject-06,1,575,0.636445045471191,bear,bear,0,0575_ske_s06_0_bear_00_bear-0103-sketch-1.png
subject-06,1,576,0.646151065826416,boat,boat,0,0576_ske_s06_0_boat_00_boat-0036-sketch-40.png
subject-06,1,577,0.964118003845215,car,car,0,0577_ske_s06_0_car_00_car-0096-sketch-49.png
subject-06,1,578,0.859909057617188,airplane,airplane,0,0578_ske_s06_0_airplane_00_airplane-0011-sketch-18.png
subject-06,1,579,0.865908145904541,boat,knife,0,0579_ske_s06_0_knife_00_knife-0033-sketch-38.png
subject-06,1,580,0.641472816467285,bottle,bottle,0,0580_ske_s06_0_bottle_00_bottle-0030-sketch-35.png
subject-06,1,581,0.593163967132568,oven,oven,0,0581_ske_s06_0_oven_00_oven-0021-sketch-27.png
subject-06,1,582,0.728968858718872,bottle,bottle,0,0582_ske_s06_0_bottle_00_bottle-0305-sketch-9.png
subject-06,1,583,0.482850074768066,clock,clock,0,0583_ske_s06_0_clock_00_clock-0030-sketch-35.png
subject-06,1,584,0.814816951751709,airplane,airplane,0,0584_ske_s06_0_airplane_00_airplane-0001-sketch-0.png
subject-06,1,585,0.760406970977783,keyboard,keyboard,0,0585_ske_s06_0_keyboard_00_keyboard-0085-sketch-39.png
subject-06,1,586,0.642436981201172,car,truck,0,0586_ske_s06_0_truck_00_truck-0255-sketch-9.png
subject-06,1,587,0.948578119277954,clock,clock,0,0587_ske_s06_0_clock_00_clock-0138-sketch-40.png
subject-06,1,588,0.575796842575073,clock,clock,0,0588_ske_s06_0_clock_00_clock-0099-sketch-6.png
subject-06,1,589,0.516081094741821,keyboard,keyboard,0,0589_ske_s06_0_keyboard_00_keyboard-0002-sketch-1.png
subject-06,1,590,0.985652923583984,knife,knife,0,0590_ske_s06_0_knife_00_knife-0014-sketch-20.png
subject-06,1,591,0.913462162017822,bottle,bottle,0,0591_ske_s06_0_bottle_00_bottle-0133-sketch-37.png
subject-06,1,592,0.769223928451538,car,truck,0,0592_ske_s06_0_truck_00_truck-0135-sketch-38.png
subject-06,1,593,0.527000904083252,bottle,bottle,0,0593_ske_s06_0_bottle_00_bottle-0002-sketch-1.png
subject-06,1,594,0.676767110824585,car,truck,0,0594_ske_s06_0_truck_00_truck-0249-sketch-49.png
subject-06,1,595,0.702479124069214,elephant,elephant,0,0595_ske_s06_0_elephant_00_elephant-0100-sketch-7.png
subject-06,1,596,0.528364896774292,car,truck,0,0596_ske_s06_0_truck_00_truck-0131-sketch-34.png
subject-06,1,597,1.47220993041992,elephant,elephant,0,0597_ske_s06_0_elephant_00_elephant-0015-sketch-21.png
subject-06,1,598,0.528061866760254,bicycle,bicycle,0,0598_ske_s06_0_bicycle_00_bicycle-0062-sketch-18.png
subject-06,1,599,0.87395191192627,bottle,bottle,0,0599_ske_s06_0_bottle_00_bottle-0150-sketch-7.png
subject-06,1,600,0.813705205917358,keyboard,keyboard,0,0600_ske_s06_0_keyboard_00_keyboard-0062-sketch-18.png
subject-06,1,601,1.07135105133057,dog,dog,0,0601_ske_s06_0_dog_00_dog-2454-sketch-21.png
subject-06,1,602,1.10754799842834,bird,bird,0,0602_ske_s06_0_bird_00_bird-0316-sketch-17.png
subject-06,1,603,0.757353067398071,car,car,0,0603_ske_s06_0_car_00_car-0009-sketch-16.png
subject-06,1,604,0.544970989227295,airplane,airplane,0,0604_ske_s06_0_airplane_00_airplane-0032-sketch-37.png
subject-06,1,605,0.996654033660889,cat,cat,0,0605_ske_s06_0_cat_00_cat-0289-sketch-4.png
subject-06,1,606,1.0428409576416,bicycle,bicycle,0,0606_ske_s06_0_bicycle_00_bicycle-0031-sketch-36.png
subject-06,1,607,1.04478883743286,elephant,elephant,0,0607_ske_s06_0_elephant_00_elephant-0043-sketch-47.png
subject-06,1,608,0.596561908721924,bottle,bottle,0,0608_ske_s06_0_bottle_00_bottle-0130-sketch-34.png
subject-06,1,609,1.3020122051239,elephant,bear,0,0609_ske_s06_0_bear_00_bear-0081-sketch-36.png
subject-06,1,610,0.5557701587677,keyboard,keyboard,0,0610_ske_s06_0_keyboard_00_keyboard-0029-sketch-34.png
subject-06,1,611,0.615739107131958,airplane,airplane,0,0611_ske_s06_0_airplane_00_airplane-0038-sketch-42.png
subject-06,1,612,0.561308145523071,cat,cat,0,0612_ske_s06_0_cat_00_cat-0149-sketch-6.png
subject-06,1,613,0.659353971481323,dog,dog,0,0613_ske_s06_0_dog_00_dog-1657-sketch-38.png
subject-06,1,614,0.80157995223999,bird,bird,0,0614_ske_s06_0_bird_00_bird-2010-sketch-30.png
subject-06,1,615,0.998831033706665,truck,truck,0,0615_ske_s06_0_truck_00_truck-0336-sketch-35.png
subject-06,1,616,1.0386700630188,dog,dog,0,0616_ske_s06_0_dog_00_dog-1393-sketch-3.png
subject-06,1,617,0.982500076293945,bottle,bottle,0,0617_ske_s06_0_bottle_00_bottle-0189-sketch-41.png
subject-06,1,618,0.560167074203491,airplane,airplane,0,0618_ske_s06_0_airplane_00_airplane-0024-sketch-3.png
subject-06,1,619,0.670094966888428,bird,bird,0,0619_ske_s06_0_bird_00_bird-0474-sketch-21.png
subject-06,1,620,0.946155071258545,dog,dog,0,0620_ske_s06_0_dog_00_dog-3573-sketch-22.png
subject-06,1,621,0.829930067062378,bottle,bottle,0,0621_ske_s06_0_bottle_00_bottle-0338-sketch-38.png
subject-06,1,622,0.719456911087036,keyboard,keyboard,0,0622_ske_s06_0_keyboard_00_keyboard-0061-sketch-17.png
subject-06,1,623,1.19335579872131,oven,oven,0,0623_ske_s06_0_oven_00_oven-0050-sketch-8.png
subject-06,1,624,0.679158926010132,boat,boat,0,0624_ske_s06_0_boat_00_boat-0126-sketch-3.png
subject-06,1,625,0.673129081726074,chair,chair,0,0625_ske_s06_0_chair_00_chair-0066-sketch-21.png
subject-06,1,626,0.870718002319336,elephant,elephant,0,0626_ske_s06_0_elephant_00_elephant-0047-sketch-50.png
subject-06,1,627,0.62266993522644,oven,oven,0,0627_ske_s06_0_oven_00_oven-0025-sketch-30.png
subject-06,1,628,0.61843204498291,chair,chair,0,0628_ske_s06_0_chair_00_chair-0014-sketch-20.png
subject-06,1,629,0.782238006591797,dog,dog,0,0629_ske_s06_0_dog_00_dog-2541-sketch-0.png
subject-06,1,630,1.0805070400238,bicycle,bicycle,0,0630_ske_s06_0_bicycle_00_bicycle-0040-sketch-44.png
subject-06,1,631,0.887822151184082,elephant,elephant,0,0631_ske_s06_0_elephant_00_elephant-0030-sketch-35.png
subject-06,1,632,0.797662019729614,chair,chair,0,0632_ske_s06_0_chair_00_chair-0017-sketch-23.png
subject-06,1,633,0.599465131759644,oven,oven,0,0633_ske_s06_0_oven_00_oven-0035-sketch-4.png
subject-06,1,634,1.22537684440613,car,boat,0,0634_ske_s06_0_boat_00_boat-0123-sketch-27.png
subject-06,1,635,0.731052160263062,car,truck,0,0635_ske_s06_0_truck_00_truck-0221-sketch-23.png
subject-06,1,636,1.02898001670837,truck,truck,0,0636_ske_s06_0_truck_00_truck-0134-sketch-37.png
subject-06,1,637,0.932687044143677,dog,bear,0,0637_ske_s06_0_bear_00_bear-0166-sketch-20.png
subject-06,1,638,0.760640859603882,boat,boat,0,0638_ske_s06_0_boat_00_boat-0099-sketch-6.png
subject-06,1,639,0.668386936187744,cat,cat,0,0639_ske_s06_0_cat_00_cat-0059-sketch-16.png
subject-06,1,640,0.538177967071533,bottle,bottle,0,0640_ske_s06_0_bottle_00_bottle-0145-sketch-48.png
subject-06,1,641,0.836095094680786,bird,bird,0,0641_ske_s06_0_bird_00_bird-0357-sketch-9.png
subject-06,1,642,0.783673048019409,cat,cat,0,0642_ske_s06_0_cat_00_cat-0124-sketch-29.png
subject-06,1,643,0.675587177276611,bird,bird,0,0643_ske_s06_0_bird_00_bird-2169-sketch-36.png
subject-06,1,644,0.955319166183472,truck,truck,0,0644_ske_s06_0_truck_00_truck-0384-sketch-32.png
subject-06,1,645,0.728995084762573,elephant,elephant,0,0645_ske_s06_0_elephant_00_elephant-0098-sketch-50.png
subject-06,1,646,0.872870922088623,truck,truck,0,0646_ske_s06_0_truck_00_truck-0045-sketch-49.png
subject-06,1,647,0.730829954147339,knife,knife,0,0647_ske_s06_0_knife_00_knife-0048-sketch-6.png
subject-06,1,648,0.775082111358643,bear,bear,0,0648_ske_s06_0_bear_00_bear-0086-sketch-40.png
subject-06,1,649,1.04261708259583,bicycle,bicycle,0,0649_ske_s06_0_bicycle_00_bicycle-0004-sketch-11.png
subject-06,1,650,1.19235110282898,knife,knife,0,0650_ske_s06_0_knife_00_knife-0025-sketch-30.png
subject-06,1,651,0.700420141220093,car,car,0,0651_ske_s06_0_car_00_car-0069-sketch-24.png
subject-06,1,652,0.857897996902466,elephant,elephant,0,0652_ske_s06_0_elephant_00_elephant-0014-sketch-20.png
subject-06,1,653,1.06178402900696,oven,oven,0,0653_ske_s06_0_oven_00_oven-0038-sketch-42.png
subject-06,1,654,0.77774715423584,bird,bird,0,0654_ske_s06_0_bird_00_bird-0809-sketch-48.png
subject-06,1,655,0.745278120040894,bird,bird,0,0655_ske_s06_0_bird_00_bird-0954-sketch-40.png
subject-06,1,656,0.707040071487427,knife,knife,0,0656_ske_s06_0_knife_00_knife-0004-sketch-11.png
subject-06,1,657,0.700844049453735,bottle,bottle,0,0657_ske_s06_0_bottle_00_bottle-0165-sketch-2.png
subject-06,1,658,1.09256792068481,bird,boat,0,0658_ske_s06_0_boat_00_boat-0132-sketch-35.png
subject-06,1,659,0.6944420337677,bird,bird,0,0659_ske_s06_0_bird_00_bird-0749-sketch-4.png
subject-06,1,660,0.632367849349976,cat,cat,0,0660_ske_s06_0_cat_00_cat-0295-sketch-45.png
subject-06,1,661,0.622538089752197,car,car,0,0661_ske_s06_0_car_00_car-0050-sketch-8.png
subject-06,1,662,0.67808985710144,clock,clock,0,0662_ske_s06_0_clock_00_clock-0093-sketch-46.png
subject-06,1,663,0.494035005569458,bird,bird,0,0663_ske_s06_0_bird_00_bird-1510-sketch-39.png
subject-06,1,664,1.04565000534058,clock,clock,0,0664_ske_s06_0_clock_00_clock-0087-sketch-40.png
subject-06,1,665,0.657341003417969,car,car,0,0665_ske_s06_0_car_00_car-0025-sketch-30.png
subject-06,1,666,0.827316045761108,keyboard,keyboard,0,0666_ske_s06_0_keyboard_00_keyboard-0039-sketch-43.png
subject-06,1,667,0.709105014801025,cat,cat,0,0667_ske_s06_0_cat_00_cat-0053-sketch-10.png
subject-06,1,668,0.51482105255127,cat,cat,0,0668_ske_s06_0_cat_00_cat-0082-sketch-37.png
subject-06,1,669,0.742799997329712,bird,bird,0,0669_ske_s06_0_bird_00_bird-1702-sketch-29.png
subject-06,1,670,0.714643001556396,dog,dog,0,0670_ske_s06_0_dog_00_dog-2291-sketch-12.png
subject-06,1,671,0.548524141311646,keyboard,keyboard,0,0671_ske_s06_0_keyboard_00_keyboard-0074-sketch-29.png
subject-06,1,672,0.652251958847046,bird,bird,0,0672_ske_s06_0_bird_00_bird-0694-sketch-36.png
subject-06,1,673,0.576143980026245,clock,clock,0,0673_ske_s06_0_clock_00_clock-0015-sketch-21.png
subject-06,1,674,1.02191305160522,dog,cat,0,0674_ske_s06_0_cat_00_cat-0207-sketch-11.png
subject-06,1,675,0.503420114517212,boat,boat,0,0675_ske_s06_0_boat_00_boat-0029-sketch-34.png
subject-06,1,676,0.743332147598267,chair,chair,0,0676_ske_s06_0_chair_00_chair-0011-sketch-18.png
subject-06,1,677,0.489421844482422,cat,cat,0,0677_ske_s06_0_cat_00_cat-0042-sketch-46.png
subject-06,1,678,0.652872085571289,airplane,airplane,0,0678_ske_s06_0_airplane_00_airplane-0027-sketch-32.png
subject-06,1,679,0.514920949935913,oven,oven,0,0679_ske_s06_0_oven_00_oven-0041-sketch-45.png
subject-06,1,680,0.6806640625,keyboard,keyboard,0,0680_ske_s06_0_keyboard_00_keyboard-0010-sketch-17.png
subject-06,1,681,0.652398824691772,bird,bird,0,0681_ske_s06_0_bird_00_bird-0880-sketch-2.png
subject-06,1,682,0.648141145706177,chair,chair,0,0682_ske_s06_0_chair_00_chair-0127-sketch-31.png
subject-06,1,683,0.741925001144409,dog,dog,0,0683_ske_s06_0_dog_00_dog-0243-sketch-44.png
subject-06,1,684,0.579806804656982,boat,boat,0,0684_ske_s06_0_boat_00_boat-0074-sketch-29.png
subject-06,1,685,0.871801853179932,bear,bear,0,0685_ske_s06_0_bear_00_bear-0079-sketch-34.png
subject-06,1,686,0.803468942642212,boat,boat,0,0686_ske_s06_0_boat_00_boat-0233-sketch-34.png
subject-06,1,687,0.539093017578125,knife,knife,0,0687_ske_s06_0_knife_00_knife-0013-sketch-2.png
subject-06,1,688,0.58710503578186,chair,chair,0,0688_ske_s06_0_chair_00_chair-0062-sketch-18.png
subject-06,1,689,0.884973049163818,bird,bird,0,0689_ske_s06_0_bird_00_bird-0325-sketch-25.png
subject-06,1,690,0.550750970840454,bicycle,bicycle,0,0690_ske_s06_0_bicycle_00_bicycle-0039-sketch-43.png
subject-06,1,691,0.700532913208008,bear,bear,0,0691_ske_s06_0_bear_00_bear-0090-sketch-44.png
subject-06,1,692,1.06248807907104,clock,clock,0,0692_ske_s06_0_clock_00_clock-0150-sketch-6.png
subject-06,1,693,0.832201957702637,chair,chair,0,0693_ske_s06_0_chair_00_chair-0051-sketch-9.png
subject-06,1,694,0.952381134033203,chair,chair,0,0694_ske_s06_0_chair_00_chair-0055-sketch-11.png
subject-06,1,695,0.569710969924927,keyboard,keyboard,0,0695_ske_s06_0_keyboard_00_keyboard-0003-sketch-10.png
subject-06,1,696,0.735620021820068,airplane,airplane,0,0696_ske_s06_0_airplane_00_airplane-0012-sketch-19.png
subject-06,1,697,0.673519134521484,chair,chair,0,0697_ske_s06_0_chair_00_chair-0029-sketch-34.png
subject-06,1,698,0.497499942779541,bottle,bottle,0,0698_ske_s06_0_bottle_00_bottle-0039-sketch-43.png
subject-06,1,699,0.995116949081421,elephant,elephant,0,0699_ske_s06_0_elephant_00_elephant-0055-sketch-11.png
subject-06,1,700,0.654984951019287,truck,truck,0,0700_ske_s06_0_truck_00_truck-0355-sketch-7.png
subject-06,1,701,0.774715185165405,bear,bear,0,0701_ske_s06_0_bear_00_bear-0107-sketch-13.png
subject-06,1,702,0.498533010482788,cat,cat,0,0702_ske_s06_0_cat_00_cat-0150-sketch-7.png
subject-06,1,703,0.620309114456177,bear,bear,0,0703_ske_s06_0_bear_00_bear-0037-sketch-41.png
subject-06,1,704,0.652133941650391,chair,chair,0,0704_ske_s06_0_chair_00_chair-0005-sketch-12.png
subject-06,1,705,1.40399312973022,dog,dog,0,0705_ske_s06_0_dog_00_dog-4325-sketch-13.png
subject-06,1,706,0.593599081039429,car,truck,0,0706_ske_s06_0_truck_00_truck-0154-sketch-0.png
subject-06,1,707,1.33752584457397,truck,boat,0,0707_ske_s06_0_boat_00_boat-0107-sketch-12.png
subject-06,1,708,0.885241031646729,oven,oven,0,0708_ske_s06_0_oven_00_oven-0037-sketch-41.png
subject-06,1,709,1.24105405807495,bear,bear,0,0709_ske_s06_0_bear_00_bear-0161-sketch-16.png
subject-06,1,710,0.640969038009644,boat,boat,0,0710_ske_s06_0_boat_00_boat-0068-sketch-23.png
subject-06,1,711,1.33069109916687,car,car,0,0711_ske_s06_0_car_00_car-0055-sketch-11.png
subject-06,1,712,0.444581031799316,bicycle,bicycle,0,0712_ske_s06_0_bicycle_00_bicycle-0013-sketch-2.png
subject-06,1,713,0.688246965408325,knife,knife,0,0713_ske_s06_0_knife_00_knife-0038-sketch-42.png
subject-06,1,714,0.804232120513916,airplane,airplane,0,0714_ske_s06_0_airplane_00_airplane-0040-sketch-44.png
subject-06,1,715,1.08196496963501,cat,cat,0,0715_ske_s06_0_cat_00_cat-0062-sketch-19.png
subject-06,1,716,1.09978699684143,car,truck,0,0716_ske_s06_0_truck_00_truck-0243-sketch-43.png
subject-06,1,717,1.41763401031494,elephant,elephant,0,0717_ske_s06_0_elephant_00_elephant-0050-sketch-8.png
subject-06,1,718,0.725364923477173,truck,truck,0,0718_ske_s06_0_truck_00_truck-0301-sketch-5.png
subject-06,1,719,0.915113925933838,bear,bear,0,0719_ske_s06_0_bear_00_bear-0017-sketch-23.png
subject-06,1,720,0.959022998809814,cat,dog,0,0720_ske_s06_0_dog_00_dog-1973-sketch-47.png
subject-06,1,721,0.898732900619507,bottle,bottle,0,0721_ske_s06_0_bottle_00_bottle-0207-sketch-11.png
subject-06,1,722,0.892596960067749,bicycle,bicycle,0,0722_ske_s06_0_bicycle_00_bicycle-0056-sketch-12.png
subject-06,1,723,1.20645618438721,bird,oven,0,0723_ske_s06_0_oven_00_oven-0034-sketch-39.png
subject-06,1,724,0.852309942245483,dog,dog,0,0724_ske_s06_0_dog_00_dog-0630-sketch-28.png
subject-06,1,725,0.838045120239258,elephant,elephant,0,0725_ske_s06_0_elephant_00_elephant-0090-sketch-43.png
subject-06,1,726,0.83375096321106,dog,dog,0,0726_ske_s06_0_dog_00_dog-5084-sketch-11.png
subject-06,1,727,0.693914890289307,elephant,elephant,0,0727_ske_s06_0_elephant_00_elephant-0044-sketch-48.png
subject-06,1,728,0.585574865341187,truck,truck,0,0728_ske_s06_0_truck_00_truck-0076-sketch-30.png
subject-06,1,729,0.715408802032471,boat,boat,0,0729_ske_s06_0_boat_00_boat-0125-sketch-29.png
subject-06,1,730,0.737125873565674,chair,chair,0,0730_ske_s06_0_chair_00_chair-0155-sketch-10.png
subject-06,1,731,0.760967016220093,truck,truck,0,0731_ske_s06_0_truck_00_truck-0115-sketch-2.png
subject-06,1,732,0.91063380241394,dog,cat,0,0732_ske_s06_0_cat_00_cat-0250-sketch-50.png
subject-06,1,733,0.693039894104004,cat,cat,0,0733_ske_s06_0_cat_00_cat-0009-sketch-16.png
subject-06,1,734,0.80436897277832,oven,oven,0,0734_ske_s06_0_oven_00_oven-0028-sketch-33.png
subject-06,1,735,0.812263965606689,clock,clock,0,0735_ske_s06_0_clock_00_clock-0018-sketch-24.png
subject-06,1,736,0.572210788726807,clock,clock,0,0736_ske_s06_0_clock_00_clock-0085-sketch-39.png
subject-06,1,737,0.651969909667969,bear,bear,0,0737_ske_s06_0_bear_00_bear-0171-sketch-25.png
subject-06,1,738,0.825608968734741,bear,bear,0,0738_ske_s06_0_bear_00_bear-0135-sketch-39.png
subject-06,1,739,0.67547082901001,chair,chair,0,0739_ske_s06_0_chair_00_chair-0168-sketch-22.png
subject-06,1,740,0.815656900405884,car,car,0,0740_ske_s06_0_car_00_car-0064-sketch-2.png
subject-06,1,741,0.886972904205322,bird,bird,0,0741_ske_s06_0_bird_00_bird-0274-sketch-25.png
subject-06,1,742,0.852828025817871,cat,cat,0,0742_ske_s06_0_cat_00_cat-0027-sketch-32.png
subject-06,1,743,0.548818111419678,chair,chair,0,0743_ske_s06_0_chair_00_chair-0064-sketch-2.png
subject-06,1,744,0.542680978775024,car,car,0,0744_ske_s06_0_car_00_car-0124-sketch-28.png
subject-06,1,745,1.13232111930847,bicycle,bicycle,0,0745_ske_s06_0_bicycle_00_bicycle-0066-sketch-21.png
subject-06,1,746,0.911977052688599,dog,dog,0,0746_ske_s06_0_dog_00_dog-0607-sketch-8.png
subject-06,1,747,0.745965957641602,chair,chair,0,0747_ske_s06_0_chair_00_chair-0105-sketch-11.png
subject-06,1,748,0.482017040252686,clock,clock,0,0748_ske_s06_0_clock_00_clock-0133-sketch-36.png
subject-06,1,749,0.573637962341309,keyboard,keyboard,0,0749_ske_s06_0_keyboard_00_keyboard-0045-sketch-49.png
subject-06,1,750,1.26751899719238,boat,boat,0,0750_ske_s06_0_boat_00_boat-0128-sketch-31.png
subject-06,1,751,1.00309705734253,dog,bear,0,0751_ske_s06_0_bear_00_bear-0198-sketch-5.png
subject-06,1,752,1.45701003074646,airplane,airplane,0,0752_ske_s06_0_airplane_00_airplane-0048-sketch-6.png
subject-06,1,753,0.904894828796387,boat,bird,0,0753_ske_s06_0_bird_00_bird-1721-sketch-46.png
subject-06,1,754,0.719047069549561,clock,clock,0,0754_ske_s06_0_clock_00_clock-0007-sketch-14.png
subject-06,1,755,0.792460918426514,truck,truck,0,0755_ske_s06_0_truck_00_truck-0308-sketch-1.png
subject-06,1,756,0.894158124923706,bird,bird,0,0756_ske_s06_0_bird_00_bird-1096-sketch-31.png
subject-06,1,757,0.828130006790161,elephant,elephant,0,0757_ske_s06_0_elephant_00_elephant-0046-sketch-5.png
subject-06,1,758,0.863919019699097,chair,chair,0,0758_ske_s06_0_chair_00_chair-0178-sketch-31.png
subject-06,1,759,0.74574089050293,dog,dog,0,0759_ske_s06_0_dog_00_dog-2323-sketch-41.png
subject-06,1,760,0.581712007522583,cat,cat,0,0760_ske_s06_0_cat_00_cat-0302-sketch-6.png
subject-06,1,761,0.693229913711548,bird,bird,0,0761_ske_s06_0_bird_00_bird-0479-sketch-26.png
subject-06,1,762,1.15144896507263,truck,boat,0,0762_ske_s06_0_boat_00_boat-0108-sketch-13.png
subject-06,1,763,0.566817998886108,bottle,bottle,0,0763_ske_s06_0_bottle_00_bottle-0045-sketch-49.png
subject-06,1,764,0.590802907943726,car,car,0,0764_ske_s06_0_car_00_car-0151-sketch-7.png
subject-06,1,765,0.796711921691895,bicycle,bicycle,0,0765_ske_s06_0_bicycle_00_bicycle-0016-sketch-22.png
subject-06,1,766,0.726797103881836,oven,oven,0,0766_ske_s06_0_oven_00_oven-0027-sketch-32.png
subject-06,1,767,0.870051860809326,bird,bird,0,0767_ske_s06_0_bird_00_bird-0646-sketch-39.png
subject-06,1,768,0.655960083007812,dog,dog,0,0768_ske_s06_0_dog_00_dog-2198-sketch-20.png
subject-06,1,769,1.03184008598328,truck,truck,0,0769_ske_s06_0_truck_00_truck-0012-sketch-19.png
subject-06,1,770,0.701653003692627,cat,cat,0,0770_ske_s06_0_cat_00_cat-0258-sketch-11.png
subject-06,1,771,0.639374017715454,bottle,bottle,0,0771_ske_s06_0_bottle_00_bottle-0292-sketch-42.png
subject-06,1,772,0.729341983795166,airplane,airplane,0,0772_ske_s06_0_airplane_00_airplane-0005-sketch-12.png
subject-06,1,773,0.873398065567017,boat,boat,0,0773_ske_s06_0_boat_00_boat-0010-sketch-17.png
subject-06,1,774,0.794849157333374,keyboard,keyboard,0,0774_ske_s06_0_keyboard_00_keyboard-0014-sketch-20.png
subject-06,1,775,0.57867693901062,truck,truck,0,0775_ske_s06_0_truck_00_truck-0112-sketch-17.png
subject-06,1,776,0.580492973327637,bird,bird,0,0776_ske_s06_0_bird_00_bird-1860-sketch-33.png
subject-06,1,777,0.842185974121094,bird,bird,0,0777_ske_s06_0_bird_00_bird-0578-sketch-23.png
subject-06,1,778,0.884170055389404,boat,boat,0,0778_ske_s06_0_boat_00_boat-0064-sketch-2.png
subject-06,1,779,0.653848886489868,dog,dog,0,0779_ske_s06_0_dog_00_dog-1711-sketch-40.png
subject-06,1,780,0.938137769699097,dog,dog,0,0780_ske_s06_0_dog_00_dog-1292-sketch-3.png
subject-06,1,781,0.753552913665771,cat,cat,0,0781_ske_s06_0_cat_00_cat-0260-sketch-13.png
subject-06,1,782,0.791684865951538,keyboard,keyboard,0,0782_ske_s06_0_keyboard_00_keyboard-0038-sketch-42.png
subject-06,1,783,0.945353984832764,cat,oven,0,0783_ske_s06_0_oven_00_oven-0036-sketch-40.png
subject-06,1,784,0.837064027786255,elephant,elephant,0,0784_ske_s06_0_elephant_00_elephant-0062-sketch-18.png
subject-06,1,785,0.826986074447632,bear,bear,0,0785_ske_s06_0_bear_00_bear-0038-sketch-42.png
subject-06,1,786,0.840640783309937,car,car,0,0786_ske_s06_0_car_00_car-0030-sketch-35.png
subject-06,1,787,0.964430093765259,car,car,0,0787_ske_s06_0_car_00_car-0145-sketch-47.png
subject-06,1,788,0.614319086074829,car,car,0,0788_ske_s06_0_car_00_car-0040-sketch-44.png
subject-06,1,789,0.923995018005371,bear,bear,0,0789_ske_s06_0_bear_00_bear-0070-sketch-26.png
subject-06,1,790,0.68387508392334,dog,dog,0,0790_ske_s06_0_dog_00_dog-3251-sketch-9.png
subject-06,1,791,0.845650196075439,bear,dog,0,0791_ske_s06_0_dog_00_dog-3153-sketch-11.png
subject-06,1,792,0.745578050613403,chair,chair,0,0792_ske_s06_0_chair_00_chair-0040-sketch-44.png
subject-06,1,793,0.741391897201538,dog,dog,0,0793_ske_s06_0_dog_00_dog-4909-sketch-37.png
subject-06,1,794,1.26701903343201,oven,oven,0,0794_ske_s06_0_oven_00_oven-0029-sketch-34.png
subject-06,1,795,0.574980974197388,bicycle,bicycle,0,0795_ske_s06_0_bicycle_00_bicycle-0037-sketch-41.png
subject-06,1,796,0.73065185546875,bicycle,bicycle,0,0796_ske_s06_0_bicycle_00_bicycle-0003-sketch-10.png
subject-06,1,797,0.710402011871338,bicycle,bicycle,0,0797_ske_s06_0_bicycle_00_bicycle-0084-sketch-38.png
subject-06,1,798,1.13034701347351,knife,knife,0,0798_ske_s06_0_knife_00_knife-0023-sketch-29.png
subject-06,1,799,1.36617302894592,clock,bear,0,0799_ske_s06_0_bear_00_bear-0201-sketch-7.png
subject-06,1,800,0.886132001876831,airplane,airplane,0,0800_ske_s06_0_airplane_00_airplane-0051-sketch-9.png
