subj,session,trial,rt,object_response,category,condition,imagename
subject-04,1,1,0.731143951416016,bicycle,bicycle,0,0001_ske_s04_0_bicycle_00_bicycle-0019-sketch-25.png
subject-04,1,2,0.634850978851318,car,car,0,0002_ske_s04_0_car_00_car-0004-sketch-11.png
subject-04,1,3,0.590905904769897,cat,cat,0,0003_ske_s04_0_cat_00_cat-0152-sketch-9.png
subject-04,1,4,0.710714101791382,bicycle,bicycle,0,0004_ske_s04_0_bicycle_00_bicycle-0034-sketch-39.png
subject-04,1,5,0.644621133804321,clock,clock,0,0005_ske_s04_0_clock_00_clock-0093-sketch-46.png
subject-04,1,6,0.958211898803711,truck,truck,0,0006_ske_s04_0_truck_00_truck-0355-sketch-7.png
subject-04,1,7,1.06616687774658,bicycle,bicycle,0,0007_ske_s04_0_bicycle_00_bicycle-0031-sketch-36.png
subject-04,1,8,0.657846927642822,chair,chair,0,0008_ske_s04_0_chair_00_chair-0163-sketch-18.png
subject-04,1,9,1.0556538105011,dog,dog,0,0009_ske_s04_0_dog_00_dog-2615-sketch-3.png
subject-04,1,10,0.725651979446411,boat,boat,0,0010_ske_s04_0_boat_00_boat-0123-sketch-27.png
subject-04,1,11,0.789556980133057,elephant,elephant,0,0011_ske_s04_0_elephant_00_elephant-0080-sketch-34.png
subject-04,1,12,0.795176029205322,bear,bear,0,0012_ske_s04_0_bear_00_bear-0188-sketch-40.png
subject-04,1,13,0.871034145355225,dog,dog,0,0013_ske_s04_0_dog_00_dog-0630-sketch-28.png
subject-04,1,14,0.67676305770874,chair,chair,0,0014_ske_s04_0_chair_00_chair-0066-sketch-21.png
subject-04,1,15,0.626696109771729,boat,boat,0,0015_ske_s04_0_boat_00_boat-0085-sketch-39.png
subject-04,1,16,0.64031195640564,bottle,bottle,0,0016_ske_s04_0_bottle_00_bottle-0313-sketch-15.png
subject-04,1,17,0.798241853713989,cat,oven,0,0017_ske_s04_0_oven_00_oven-0023-sketch-29.png
subject-04,1,18,0.683941125869751,dog,dog,0,0018_ske_s04_0_dog_00_dog-0243-sketch-44.png
subject-04,1,19,0.86583399772644,chair,chair,0,0019_ske_s04_0_chair_00_chair-0144-sketch-47.png
subject-04,1,20,0.82176399230957,bottle,bottle,0,0020_ske_s04_0_bottle_00_bottle-0071-sketch-27.png
subject-04,1,21,0.655497074127197,cat,cat,0,0021_ske_s04_0_cat_00_cat-0085-sketch-4.png
subject-04,1,22,1.12769794464111,airplane,airplane,0,0022_ske_s04_0_airplane_00_airplane-0040-sketch-44.png
subject-04,1,23,0.867205858230591,chair,chair,0,0023_ske_s04_0_chair_00_chair-0180-sketch-33.png
subject-04,1,24,1.00284004211426,car,car,0,0024_ske_s04_0_car_00_car-0022-sketch-28.png
subject-04,1,25,0.950602054595947,oven,oven,0,0025_ske_s04_0_oven_00_oven-0048-sketch-6.png
subject-04,1,26,0.577020168304443,boat,boat,0,0026_ske_s04_0_boat_00_boat-0010-sketch-17.png
subject-04,1,27,0.858519077301025,truck,truck,0,0027_ske_s04_0_truck_00_truck-0384-sketch-32.png
subject-04,1,28,0.664474964141846,car,car,0,0028_ske_s04_0_car_00_car-0120-sketch-24.png
subject-04,1,29,0.619869947433472,oven,oven,0,0029_ske_s04_0_oven_00_oven-0027-sketch-32.png
subject-04,1,30,0.793664932250977,bicycle,bicycle,0,0030_ske_s04_0_bicycle_00_bicycle-0060-sketch-16.png
subject-04,1,31,0.749701023101807,bear,bear,0,0031_ske_s04_0_bear_00_bear-0166-sketch-20.png
subject-04,1,32,0.751408100128174,keyboard,keyboard,0,0032_ske_s04_0_keyboard_00_keyboard-0031-sketch-36.png
subject-04,1,33,0.675107002258301,clock,clock,0,0033_ske_s04_0_clock_00_clock-0138-sketch-40.png
subject-04,1,34,0.535211086273193,cat,cat,0,0034_ske_s04_0_cat_00_cat-0140-sketch-43.png
subject-04,1,35,0.804901838302612,bear,bear,0,0035_ske_s04_0_bear_00_bear-0137-sketch-40.png
subject-04,1,36,0.842802047729492,dog,dog,0,0036_ske_s04_0_dog_00_dog-0607-sketch-8.png
subject-04,1,37,1.20047998428345,airplane,airplane,0,0037_ske_s04_0_airplane_00_airplane-0004-sketch-11.png
subject-04,1,38,0.752340078353882,bottle,bottle,0,0038_ske_s04_0_bottle_00_bottle-0135-sketch-39.png
subject-04,1,39,0.760024070739746,airplane,airplane,0,0039_ske_s04_0_airplane_00_airplane-0035-sketch-4.png
subject-04,1,40,0.697825908660889,clock,clock,0,0040_ske_s04_0_clock_00_clock-0099-sketch-6.png
subject-04,1,41,0.716096162796021,bicycle,bicycle,0,0041_ske_s04_0_bicycle_00_bicycle-0066-sketch-21.png
subject-04,1,42,1.03940796852112,car,truck,0,0042_ske_s04_0_truck_00_truck-0157-sketch-11.png
subject-04,1,43,0.669629096984863,bicycle,bicycle,0,0043_ske_s04_0_bicycle_00_bicycle-0075-sketch-3.png
subject-04,1,44,0.709061145782471,keyboard,keyboard,0,0044_ske_s04_0_keyboard_00_keyboard-0010-sketch-17.png
subject-04,1,45,0.804906129837036,airplane,airplane,0,0045_ske_s04_0_airplane_00_airplane-0051-sketch-9.png
subject-04,1,46,0.654768943786621,car,car,0,0046_ske_s04_0_car_00_car-0040-sketch-44.png
subject-04,1,47,0.892727136611938,bottle,bottle,0,0047_ske_s04_0_bottle_00_bottle-0082-sketch-37.png
subject-04,1,48,0.704541921615601,chair,chair,0,0048_ske_s04_0_chair_00_chair-0055-sketch-11.png
subject-04,1,49,0.738140821456909,chair,chair,0,0049_ske_s04_0_chair_00_chair-0197-sketch-49.png
subject-04,1,50,0.664093017578125,clock,clock,0,0050_ske_s04_0_clock_00_clock-0028-sketch-33.png
subject-04,1,51,0.813968181610107,dog,dog,0,0051_ske_s04_0_dog_00_dog-4325-sketch-13.png
subject-04,1,52,0.722137928009033,car,truck,0,0052_ske_s04_0_truck_00_truck-0255-sketch-9.png
subject-04,1,53,0.599598169326782,clock,clock,0,0053_ske_s04_0_clock_00_clock-0112-sketch-17.png
subject-04,1,54,0.841410875320435,elephant,elephant,0,0054_ske_s04_0_elephant_00_elephant-0082-sketch-36.png
subject-04,1,55,0.963014841079712,dog,dog,0,0055_ske_s04_0_dog_00_dog-3573-sketch-22.png
subject-04,1,56,0.726952075958252,bicycle,bicycle,0,0056_ske_s04_0_bicycle_00_bicycle-0003-sketch-10.png
subject-04,1,57,0.680773019790649,cat,cat,0,0057_ske_s04_0_cat_00_cat-0134-sketch-38.png
subject-04,1,58,1.00264501571655,knife,knife,0,0058_ske_s04_0_knife_00_knife-0023-sketch-29.png
subject-04,1,59,0.660337924957275,bird,bird,0,0059_ske_s04_0_bird_00_bird-1342-sketch-24.png
subject-04,1,60,0.640039920806885,bicycle,bicycle,0,0060_ske_s04_0_bicycle_00_bicycle-0098-sketch-50.png
subject-04,1,61,0.789908885955811,keyboard,keyboard,0,0061_ske_s04_0_keyboard_00_keyboard-0016-sketch-22.png
subject-04,1,62,0.784157037734985,boat,boat,0,0062_ske_s04_0_boat_00_boat-0079-sketch-33.png
subject-04,1,63,0.845561027526855,keyboard,keyboard,0,0063_ske_s04_0_keyboard_00_keyboard-0086-sketch-4.png
subject-04,1,64,1.12772703170776,dog,dog,0,0064_ske_s04_0_dog_00_dog-0111-sketch-17.png
subject-04,1,65,0.821164131164551,car,truck,0,0065_ske_s04_0_truck_00_truck-0132-sketch-35.png
subject-04,1,66,1.03495597839355,truck,truck,0,0066_ske_s04_0_truck_00_truck-0029-sketch-34.png
subject-04,1,67,0.726742029190063,chair,chair,0,0067_ske_s04_0_chair_00_chair-0076-sketch-30.png
subject-04,1,68,0.806602001190186,bottle,bottle,0,0068_ske_s04_0_bottle_00_bottle-0321-sketch-22.png
subject-04,1,69,0.95865797996521,bear,bear,0,0069_ske_s04_0_bear_00_bear-0090-sketch-44.png
subject-04,1,70,0.778209924697876,car,truck,0,0070_ske_s04_0_truck_00_truck-0266-sketch-18.png
subject-04,1,71,0.562075853347778,boat,boat,0,0071_ske_s04_0_boat_00_boat-0113-sketch-18.png
subject-04,1,72,0.853889942169189,chair,chair,0,0072_ske_s04_0_chair_00_chair-0064-sketch-2.png
subject-04,1,73,0.887952089309692,elephant,elephant,0,0073_ske_s04_0_elephant_00_elephant-0037-sketch-41.png
subject-04,1,74,0.611606121063232,clock,clock,0,0074_ske_s04_0_clock_00_clock-0049-sketch-7.png
subject-04,1,75,0.757442951202393,dog,dog,0,0075_ske_s04_0_dog_00_dog-1292-sketch-3.png
subject-04,1,76,0.721292018890381,bear,bear,0,0076_ske_s04_0_bear_00_bear-0179-sketch-32.png
subject-04,1,77,0.751245021820068,keyboard,keyboard,0,0077_ske_s04_0_keyboard_00_keyboard-0034-sketch-39.png
subject-04,1,78,1.06680607795715,elephant,elephant,0,0078_ske_s04_0_elephant_00_elephant-0015-sketch-21.png
subject-04,1,79,0.716784000396729,keyboard,keyboard,0,0079_ske_s04_0_keyboard_00_keyboard-0085-sketch-39.png
subject-04,1,80,1.43443703651428,dog,oven,0,0080_ske_s04_0_oven_00_oven-0022-sketch-28.png
subject-04,1,81,0.722678899765015,knife,knife,0,0081_ske_s04_0_knife_00_knife-0039-sketch-43.png
subject-04,1,82,0.946171998977661,bicycle,bicycle,0,0082_ske_s04_0_bicycle_00_bicycle-0025-sketch-30.png
subject-04,1,83,0.721871852874756,clock,clock,0,0083_ske_s04_0_clock_00_clock-0033-sketch-38.png
subject-04,1,84,0.871596813201904,bicycle,bicycle,0,0084_ske_s04_0_bicycle_00_bicycle-0013-sketch-2.png
subject-04,1,85,0.715558052062988,keyboard,keyboard,0,0085_ske_s04_0_keyboard_00_keyboard-0045-sketch-49.png
subject-04,1,86,0.901431083679199,airplane,airplane,0,0086_ske_s04_0_airplane_00_airplane-0019-sketch-25.png
subject-04,1,87,0.850988864898682,dog,dog,0,0087_ske_s04_0_dog_00_dog-2454-sketch-21.png
subject-04,1,88,0.530988216400146,clock,clock,0,0088_ske_s04_0_clock_00_clock-0077-sketch-31.png
subject-04,1,89,0.720597982406616,knife,knife,0,0089_ske_s04_0_knife_00_knife-0020-sketch-26.png
subject-04,1,90,0.718780994415283,airplane,airplane,0,0090_ske_s04_0_airplane_00_airplane-0001-sketch-0.png
subject-04,1,91,0.686315059661865,keyboard,keyboard,0,0091_ske_s04_0_keyboard_00_keyboard-0035-sketch-4.png
subject-04,1,92,0.602274894714355,clock,clock,0,0092_ske_s04_0_clock_00_clock-0027-sketch-32.png
subject-04,1,93,0.814218997955322,bottle,bottle,0,0093_ske_s04_0_bottle_00_bottle-0184-sketch-37.png
subject-04,1,94,0.855784893035889,car,car,0,0094_ske_s04_0_car_00_car-0100-sketch-7.png
subject-04,1,95,0.710069179534912,keyboard,keyboard,0,0095_ske_s04_0_keyboard_00_keyboard-0009-sketch-16.png
subject-04,1,96,0.645277976989746,keyboard,keyboard,0,0096_ske_s04_0_keyboard_00_keyboard-0002-sketch-1.png
subject-04,1,97,1.06920003890991,dog,cat,0,0097_ske_s04_0_cat_00_cat-0269-sketch-21.png
subject-04,1,98,0.991323947906494,dog,dog,0,0098_ske_s04_0_dog_00_dog-1393-sketch-3.png
subject-04,1,99,0.738888025283813,car,car,0,0099_ske_s04_0_car_00_car-0005-sketch-12.png
subject-04,1,100,0.646850109100342,dog,dog,0,0100_ske_s04_0_dog_00_dog-5084-sketch-11.png
subject-04,1,101,0.890752077102661,truck,truck,0,0101_ske_s04_0_truck_00_truck-0012-sketch-19.png
subject-04,1,102,0.752302885055542,dog,dog,0,0102_ske_s04_0_dog_00_dog-1657-sketch-38.png
subject-04,1,103,0.715999126434326,elephant,elephant,0,0103_ske_s04_0_elephant_00_elephant-0001-sketch-0.png
subject-04,1,104,1.03392887115479,bird,bird,0,0104_ske_s04_0_bird_00_bird-0749-sketch-4.png
subject-04,1,105,0.549679040908813,clock,clock,0,0105_ske_s04_0_clock_00_clock-0057-sketch-13.png
subject-04,1,106,0.657425880432129,chair,chair,0,0106_ske_s04_0_chair_00_chair-0178-sketch-31.png
subject-04,1,107,0.645444869995117,oven,oven,0,0107_ske_s04_0_oven_00_oven-0024-sketch-3.png
subject-04,1,108,0.745028018951416,knife,knife,0,0108_ske_s04_0_knife_00_knife-0032-sketch-37.png
subject-04,1,109,0.935095071792603,oven,bottle,0,0109_ske_s04_0_bottle_00_bottle-0294-sketch-44.png
subject-04,1,110,0.718817949295044,car,truck,0,0110_ske_s04_0_truck_00_truck-0213-sketch-16.png
subject-04,1,111,0.705214977264404,boat,boat,0,0111_ske_s04_0_boat_00_boat-0128-sketch-31.png
subject-04,1,112,0.81860613822937,knife,knife,0,0112_ske_s04_0_knife_00_knife-0029-sketch-34.png
subject-04,1,113,0.846739053726196,bear,bear,0,0113_ske_s04_0_bear_00_bear-0039-sketch-43.png
subject-04,1,114,0.942070960998535,truck,truck,0,0114_ske_s04_0_truck_00_truck-0034-sketch-39.png
subject-04,1,115,0.783847808837891,chair,chair,0,0115_ske_s04_0_chair_00_chair-0067-sketch-22.png
subject-04,1,116,0.891603946685791,bear,cat,0,0116_ske_s04_0_cat_00_cat-0264-sketch-17.png
subject-04,1,117,0.701581001281738,bottle,bottle,0,0117_ske_s04_0_bottle_00_bottle-0066-sketch-22.png
subject-04,1,118,0.781476974487305,bottle,bottle,0,0118_ske_s04_0_bottle_00_bottle-0107-sketch-13.png
subject-04,1,119,1.1675021648407,car,truck,0,0119_ske_s04_0_truck_00_truck-0115-sketch-2.png
subject-04,1,120,0.54695987701416,cat,cat,0,0120_ske_s04_0_cat_00_cat-0048-sketch-7.png
subject-04,1,121,0.658805131912231,cat,cat,0,0121_ske_s04_0_cat_00_cat-0258-sketch-11.png
subject-04,1,122,0.822600126266479,bottle,bottle,0,0122_ske_s04_0_bottle_00_bottle-0131-sketch-35.png
subject-04,1,123,1.50014400482178,bear,bear,0,0123_ske_s04_0_bear_00_bear-0135-sketch-39.png
subject-04,1,124,0.644217967987061,clock,clock,0,0124_ske_s04_0_clock_00_clock-0131-sketch-34.png
subject-04,1,125,0.791975975036621,keyboard,keyboard,0,0125_ske_s04_0_keyboard_00_keyboard-0074-sketch-29.png
subject-04,1,126,0.809903860092163,clock,clock,0,0126_ske_s04_0_clock_00_clock-0137-sketch-4.png
subject-04,1,127,0.787676095962524,bicycle,bicycle,0,0127_ske_s04_0_bicycle_00_bicycle-0038-sketch-42.png
subject-04,1,128,0.781486034393311,car,car,0,0128_ske_s04_0_car_00_car-0055-sketch-11.png
subject-04,1,129,0.747231960296631,elephant,elephant,0,0129_ske_s04_0_elephant_00_elephant-0047-sketch-50.png
subject-04,1,130,1.41300201416016,cat,oven,0,0130_ske_s04_0_oven_00_oven-0034-sketch-39.png
subject-04,1,131,0.694772005081177,chair,chair,0,0131_ske_s04_0_chair_00_chair-0155-sketch-10.png
subject-04,1,132,0.716737985610962,truck,truck,0,0132_ske_s04_0_truck_00_truck-0075-sketch-3.png
subject-04,1,133,0.686410903930664,chair,chair,0,0133_ske_s04_0_chair_00_chair-0014-sketch-20.png
subject-04,1,134,0.936151027679443,car,car,0,0134_ske_s04_0_car_00_car-0024-sketch-3.png
subject-04,1,135,0.634637117385864,car,car,0,0135_ske_s04_0_car_00_car-0043-sketch-47.png
subject-04,1,136,0.731832027435303,cat,cat,0,0136_ske_s04_0_cat_00_cat-0245-sketch-46.png
subject-04,1,137,0.569889068603516,cat,cat,0,0137_ske_s04_0_cat_00_cat-0304-sketch-8.png
subject-04,1,138,0.657589912414551,oven,oven,0,0138_ske_s04_0_oven_00_oven-0038-sketch-42.png
subject-04,1,139,1.0435049533844,clock,bottle,0,0139_ske_s04_0_bottle_00_bottle-0114-sketch-2.png
subject-04,1,140,0.497207164764404,cat,cat,0,0140_ske_s04_0_cat_00_cat-0016-sketch-22.png
subject-04,1,141,1.070965051651,chair,chair,0,0141_ske_s04_0_chair_00_chair-0072-sketch-27.png
subject-04,1,142,0.652699947357178,oven,oven,0,0142_ske_s04_0_oven_00_oven-0028-sketch-33.png
subject-04,1,143,0.936747074127197,dog,dog,0,0143_ske_s04_0_dog_00_dog-1460-sketch-44.png
subject-04,1,144,0.65657901763916,bicycle,bicycle,0,0144_ske_s04_0_bicycle_00_bicycle-0059-sketch-15.png
subject-04,1,145,0.720232009887695,clock,clock,0,0145_ske_s04_0_clock_00_clock-0030-sketch-35.png
subject-04,1,146,0.72192907333374,clock,clock,0,0146_ske_s04_0_clock_00_clock-0018-sketch-24.png
subject-04,1,147,0.678242921829224,chair,chair,0,0147_ske_s04_0_chair_00_chair-0083-sketch-37.png
subject-04,1,148,0.96975302696228,truck,truck,0,0148_ske_s04_0_truck_00_truck-0308-sketch-1.png
subject-04,1,149,0.573685884475708,oven,bird,0,0149_ske_s04_0_bird_00_bird-0325-sketch-25.png
subject-04,1,150,0.807374954223633,dog,dog,0,0150_ske_s04_0_dog_00_dog-3417-sketch-2.png
subject-04,1,151,0.84129810333252,dog,dog,0,0151_ske_s04_0_dog_00_dog-3303-sketch-0.png
subject-04,1,152,0.810885906219482,bear,bear,0,0152_ske_s04_0_bear_00_bear-0117-sketch-22.png
subject-04,1,153,0.82881498336792,oven,oven,0,0153_ske_s04_0_oven_00_oven-0014-sketch-20.png
subject-04,1,154,0.896642208099365,knife,knife,0,0154_ske_s04_0_knife_00_knife-0002-sketch-1.png
subject-04,1,155,0.936218023300171,elephant,elephant,0,0155_ske_s04_0_elephant_00_elephant-0075-sketch-3.png
subject-04,1,156,0.672080993652344,keyboard,keyboard,0,0156_ske_s04_0_keyboard_00_keyboard-0053-sketch-1.png
subject-04,1,157,0.7241370677948,dog,dog,0,0157_ske_s04_0_dog_00_dog-4202-sketch-4.png
subject-04,1,158,1.08388805389404,truck,chair,0,0158_ske_s04_0_chair_00_chair-0002-sketch-1.png
subject-04,1,159,0.718020915985107,bird,bird,0,0159_ske_s04_0_bird_00_bird-0357-sketch-9.png
subject-04,1,160,0.661491870880127,cat,cat,0,0160_ske_s04_0_cat_00_cat-0044-sketch-48.png
subject-04,1,161,0.7798011302948,car,car,0,0161_ske_s04_0_car_00_car-0112-sketch-17.png
subject-04,1,162,0.595417022705078,keyboard,keyboard,0,0162_ske_s04_0_keyboard_00_keyboard-0004-sketch-11.png
subject-04,1,163,0.60928201675415,boat,boat,0,0163_ske_s04_0_boat_00_boat-0067-sketch-22.png
subject-04,1,164,0.555108070373535,cat,cat,0,0164_ske_s04_0_cat_00_cat-0124-sketch-29.png
subject-04,1,165,0.623477935791016,car,car,0,0165_ske_s04_0_car_00_car-0116-sketch-20.png
subject-04,1,166,0.936820030212402,dog,dog,0,0166_ske_s04_0_dog_00_dog-3503-sketch-6.png
subject-04,1,167,0.93050217628479,dog,dog,0,0167_ske_s04_0_dog_00_dog-5028-sketch-8.png
subject-04,1,168,0.784507989883423,bicycle,bicycle,0,0168_ske_s04_0_bicycle_00_bicycle-0040-sketch-44.png
subject-04,1,169,0.712212085723877,car,car,0,0169_ske_s04_0_car_00_car-0064-sketch-2.png
subject-04,1,170,0.800128221511841,airplane,airplane,0,0170_ske_s04_0_airplane_00_airplane-0010-sketch-17.png
subject-04,1,171,1.05173015594482,bear,bear,0,0171_ske_s04_0_bear_00_bear-0038-sketch-42.png
subject-04,1,172,0.845630168914795,keyboard,keyboard,0,0172_ske_s04_0_keyboard_00_keyboard-0039-sketch-43.png
subject-04,1,173,0.581357002258301,cat,cat,0,0173_ske_s04_0_cat_00_cat-0011-sketch-18.png
subject-04,1,174,0.947211027145386,elephant,elephant,0,0174_ske_s04_0_elephant_00_elephant-0021-sketch-27.png
subject-04,1,175,0.615103960037231,oven,oven,0,0175_ske_s04_0_oven_00_oven-0008-sketch-15.png
subject-04,1,176,0.617033004760742,bicycle,bicycle,0,0176_ske_s04_0_bicycle_00_bicycle-0078-sketch-32.png
subject-04,1,177,0.859289884567261,cat,cat,0,0177_ske_s04_0_cat_00_cat-0295-sketch-45.png
subject-04,1,178,0.722445011138916,bird,bird,0,0178_ske_s04_0_bird_00_bird-0578-sketch-23.png
subject-04,1,179,0.682710886001587,boat,boat,0,0179_ske_s04_0_boat_00_boat-0237-sketch-38.png
subject-04,1,180,0.702140092849731,bicycle,bicycle,0,0180_ske_s04_0_bicycle_00_bicycle-0062-sketch-18.png
subject-04,1,181,0.740109920501709,cat,cat,0,0181_ske_s04_0_cat_00_cat-0289-sketch-4.png
subject-04,1,182,1.11190891265869,bear,dog,0,0182_ske_s04_0_dog_00_dog-5325-sketch-45.png
subject-04,1,183,1.09963798522949,knife,knife,0,0183_ske_s04_0_knife_00_knife-0036-sketch-40.png
subject-04,1,184,0.873312950134277,bicycle,bicycle,0,0184_ske_s04_0_bicycle_00_bicycle-0020-sketch-26.png
subject-04,1,185,0.691206216812134,clock,clock,0,0185_ske_s04_0_clock_00_clock-0136-sketch-39.png
subject-04,1,186,0.770941972732544,elephant,elephant,0,0186_ske_s04_0_elephant_00_elephant-0022-sketch-28.png
subject-04,1,187,0.814909934997559,bird,bird,0,0187_ske_s04_0_bird_00_bird-0274-sketch-25.png
subject-04,1,188,1.05070209503174,dog,dog,0,0188_ske_s04_0_dog_00_dog-1759-sketch-38.png
subject-04,1,189,0.786466121673584,elephant,elephant,0,0189_ske_s04_0_elephant_00_elephant-0061-sketch-17.png
subject-04,1,190,0.890299081802368,oven,oven,0,0190_ske_s04_0_oven_00_oven-0007-sketch-14.png
subject-04,1,191,0.668035984039307,truck,truck,0,0191_ske_s04_0_truck_00_truck-0088-sketch-41.png
subject-04,1,192,0.979833841323853,keyboard,keyboard,0,0192_ske_s04_0_keyboard_00_keyboard-0071-sketch-26.png
subject-04,1,193,0.99375581741333,car,car,0,0193_ske_s04_0_car_00_car-0025-sketch-30.png
subject-04,1,194,0.766022205352783,knife,knife,0,0194_ske_s04_0_knife_00_knife-0007-sketch-14.png
subject-04,1,195,0.581344127655029,oven,oven,0,0195_ske_s04_0_oven_00_oven-0045-sketch-49.png
subject-04,1,196,0.715095996856689,car,car,0,0196_ske_s04_0_car_00_car-0138-sketch-40.png
subject-04,1,197,0.699140071868896,cat,cat,0,0197_ske_s04_0_cat_00_cat-0128-sketch-32.png
subject-04,1,198,0.834707021713257,chair,chair,0,0198_ske_s04_0_chair_00_chair-0129-sketch-33.png
subject-04,1,199,1.09664702415466,bird,bird,0,0199_ske_s04_0_bird_00_bird-0030-sketch-35.png
subject-04,1,200,0.728526830673218,oven,oven,0,0200_ske_s04_0_oven_00_oven-0011-sketch-18.png
subject-04,1,201,0.68682599067688,bird,bird,0,0201_ske_s04_0_bird_00_bird-0809-sketch-48.png
subject-04,1,202,0.70821213722229,car,car,0,0202_ske_s04_0_car_00_car-0076-sketch-30.png
subject-04,1,203,0.71394681930542,knife,knife,0,0203_ske_s04_0_knife_00_knife-0022-sketch-28.png
subject-04,1,204,0.721713066101074,clock,clock,0,0204_ske_s04_0_clock_00_clock-0069-sketch-24.png
subject-04,1,205,0.740002870559692,truck,truck,0,0205_ske_s04_0_truck_00_truck-0112-sketch-17.png
subject-04,1,206,0.853395938873291,elephant,elephant,0,0206_ske_s04_0_elephant_00_elephant-0090-sketch-43.png
subject-04,1,207,0.835036039352417,bottle,bottle,0,0207_ske_s04_0_bottle_00_bottle-0296-sketch-46.png
subject-04,1,208,0.751015901565552,boat,boat,0,0208_ske_s04_0_boat_00_boat-0197-sketch-48.png
subject-04,1,209,0.82676100730896,keyboard,keyboard,0,0209_ske_s04_0_keyboard_00_keyboard-0091-sketch-44.png
subject-04,1,210,1.11256408691406,dog,dog,0,0210_ske_s04_0_dog_00_dog-3251-sketch-9.png
subject-04,1,211,1.31475877761841,car,car,0,0211_ske_s04_0_car_00_car-0029-sketch-34.png
subject-04,1,212,0.652109861373901,elephant,elephant,0,0212_ske_s04_0_elephant_00_elephant-0054-sketch-10.png
subject-04,1,213,0.739884853363037,cat,bird,0,0213_ske_s04_0_bird_00_bird-0685-sketch-28.png
subject-04,1,214,0.717774868011475,bird,bird,0,0214_ske_s04_0_bird_00_bird-0228-sketch-3.png
subject-04,1,215,0.743615865707397,bear,bear,0,0215_ske_s04_0_bear_00_bear-0087-sketch-41.png
subject-04,1,216,0.815778017044067,car,car,0,0216_ske_s04_0_car_00_car-0069-sketch-24.png
subject-04,1,217,0.747683048248291,elephant,elephant,0,0217_ske_s04_0_elephant_00_elephant-0098-sketch-50.png
subject-04,1,218,0.782986879348755,dog,dog,0,0218_ske_s04_0_dog_00_dog-2506-sketch-23.png
subject-04,1,219,0.698952913284302,boat,boat,0,0219_ske_s04_0_boat_00_boat-0099-sketch-6.png
subject-04,1,220,0.692839860916138,car,car,0,0220_ske_s04_0_car_00_car-0145-sketch-47.png
subject-04,1,221,1.38237404823303,car,car,0,0221_ske_s04_0_car_00_car-0098-sketch-50.png
subject-04,1,222,1.21616697311401,bird,dog,0,0222_ske_s04_0_dog_00_dog-1617-sketch-48.png
subject-04,1,223,0.608163833618164,airplane,airplane,0,0223_ske_s04_0_airplane_00_airplane-0041-sketch-45.png
subject-04,1,224,0.888068914413452,bird,bird,0,0224_ske_s04_0_bird_00_bird-1702-sketch-29.png
subject-04,1,225,1.11377906799316,cat,bottle,0,0225_ske_s04_0_bottle_00_bottle-0243-sketch-44.png
subject-04,1,226,0.669876098632812,oven,oven,0,0226_ske_s04_0_oven_00_oven-0049-sketch-7.png
subject-04,1,227,0.667520046234131,clock,clock,0,0227_ske_s04_0_clock_00_clock-0015-sketch-21.png
subject-04,1,228,0.889611959457397,dog,cat,0,0228_ske_s04_0_cat_00_cat-0233-sketch-35.png
subject-04,1,229,0.657322883605957,bicycle,bicycle,0,0229_ske_s04_0_bicycle_00_bicycle-0016-sketch-22.png
subject-04,1,230,0.812895059585571,knife,knife,0,0230_ske_s04_0_knife_00_knife-0004-sketch-11.png
subject-04,1,231,0.626600980758667,bird,bird,0,0231_ske_s04_0_bird_00_bird-1510-sketch-39.png
subject-04,1,232,0.882750988006592,bird,bird,0,0232_ske_s04_0_bird_00_bird-1033-sketch-20.png
subject-04,1,233,0.876111030578613,bottle,bottle,0,0233_ske_s04_0_bottle_00_bottle-0031-sketch-36.png
subject-04,1,234,0.655941009521484,car,car,0,0234_ske_s04_0_car_00_car-0096-sketch-49.png
subject-04,1,235,0.789963006973267,oven,oven,0,0235_ske_s04_0_oven_00_oven-0051-sketch-9.png
subject-04,1,236,0.58971095085144,car,car,0,0236_ske_s04_0_car_00_car-0122-sketch-26.png
subject-04,1,237,0.771544933319092,elephant,elephant,0,0237_ske_s04_0_elephant_00_elephant-0012-sketch-19.png
subject-04,1,238,0.999413967132568,keyboard,keyboard,0,0238_ske_s04_0_keyboard_00_keyboard-0059-sketch-15.png
subject-04,1,239,0.633464813232422,clock,clock,0,0239_ske_s04_0_clock_00_clock-0095-sketch-48.png
subject-04,1,240,0.732869148254395,bottle,bottle,0,0240_ske_s04_0_bottle_00_bottle-0280-sketch-31.png
subject-04,1,241,0.706691026687622,bicycle,bicycle,0,0241_ske_s04_0_bicycle_00_bicycle-0095-sketch-48.png
subject-04,1,242,1.15651321411133,knife,knife,0,0242_ske_s04_0_knife_00_knife-0049-sketch-7.png
subject-04,1,243,0.778709173202515,chair,chair,0,0243_ske_s04_0_chair_00_chair-0088-sketch-41.png
subject-04,1,244,0.740679979324341,chair,chair,0,0244_ske_s04_0_chair_00_chair-0040-sketch-44.png
subject-04,1,245,0.696161985397339,airplane,airplane,0,0245_ske_s04_0_airplane_00_airplane-0008-sketch-15.png
subject-04,1,246,0.616031169891357,clock,clock,0,0246_ske_s04_0_clock_00_clock-0035-sketch-4.png
subject-04,1,247,0.789450883865356,dog,bear,0,0247_ske_s04_0_bear_00_bear-0198-sketch-5.png
subject-04,1,248,0.817841053009033,elephant,elephant,0,0248_ske_s04_0_elephant_00_elephant-0002-sketch-1.png
subject-04,1,249,0.653207063674927,bottle,bottle,0,0249_ske_s04_0_bottle_00_bottle-0338-sketch-38.png
subject-04,1,250,0.93303918838501,bird,cat,0,0250_ske_s04_0_cat_00_cat-0251-sketch-6.png
subject-04,1,251,0.710752964019775,bottle,bottle,0,0251_ske_s04_0_bottle_00_bottle-0301-sketch-50.png
subject-04,1,252,0.900636196136475,bottle,bottle,0,0252_ske_s04_0_bottle_00_bottle-0133-sketch-37.png
subject-04,1,253,0.592447996139526,cat,cat,0,0253_ske_s04_0_cat_00_cat-0090-sketch-44.png
subject-04,1,254,0.712414026260376,bottle,bottle,0,0254_ske_s04_0_bottle_00_bottle-0202-sketch-8.png
subject-04,1,255,0.674094200134277,car,boat,0,0255_ske_s04_0_boat_00_boat-0180-sketch-32.png
subject-04,1,256,1.23212313652039,airplane,airplane,0,0256_ske_s04_0_airplane_00_airplane-0029-sketch-34.png
subject-04,1,257,0.729777812957764,bicycle,bicycle,0,0257_ske_s04_0_bicycle_00_bicycle-0087-sketch-40.png
subject-04,1,258,0.675503015518188,keyboard,keyboard,0,0258_ske_s04_0_keyboard_00_keyboard-0043-sketch-47.png
subject-04,1,259,0.627306938171387,cat,cat,0,0259_ske_s04_0_cat_00_cat-0160-sketch-15.png
subject-04,1,260,0.975645065307617,elephant,elephant,0,0260_ske_s04_0_elephant_00_elephant-0025-sketch-30.png
subject-04,1,261,0.835041999816895,elephant,elephant,0,0261_ske_s04_0_elephant_00_elephant-0100-sketch-7.png
subject-04,1,262,0.958740949630737,dog,dog,0,0262_ske_s04_0_dog_00_dog-2291-sketch-12.png
subject-04,1,263,0.736770153045654,bear,bear,0,0263_ske_s04_0_bear_00_bear-0086-sketch-40.png
subject-04,1,264,0.648977994918823,keyboard,keyboard,0,0264_ske_s04_0_keyboard_00_keyboard-0007-sketch-14.png
subject-04,1,265,0.776082038879395,keyboard,keyboard,0,0265_ske_s04_0_keyboard_00_keyboard-0068-sketch-23.png
subject-04,1,266,0.660161972045898,keyboard,keyboard,0,0266_ske_s04_0_keyboard_00_keyboard-0003-sketch-10.png
subject-04,1,267,0.825937032699585,elephant,elephant,0,0267_ske_s04_0_elephant_00_elephant-0040-sketch-44.png
subject-04,1,268,0.945609092712402,bird,boat,0,0268_ske_s04_0_boat_00_boat-0178-sketch-30.png
subject-04,1,269,0.605350971221924,boat,boat,0,0269_ske_s04_0_boat_00_boat-0094-sketch-47.png
subject-04,1,270,0.903282165527344,bird,bird,0,0270_ske_s04_0_bird_00_bird-1148-sketch-32.png
subject-04,1,271,0.703504085540771,bottle,bottle,0,0271_ske_s04_0_bottle_00_bottle-0019-sketch-25.png
subject-04,1,272,0.808973073959351,airplane,airplane,0,0272_ske_s04_0_airplane_00_airplane-0006-sketch-13.png
subject-04,1,273,0.738586902618408,bottle,bottle,0,0273_ske_s04_0_bottle_00_bottle-0150-sketch-7.png
subject-04,1,274,0.710581064224243,cat,cat,0,0274_ske_s04_0_cat_00_cat-0043-sketch-47.png
subject-04,1,275,0.584243774414062,airplane,airplane,0,0275_ske_s04_0_airplane_00_airplane-0030-sketch-35.png
subject-04,1,276,0.644227027893066,boat,boat,0,0276_ske_s04_0_boat_00_boat-0115-sketch-2.png
subject-04,1,277,0.678018093109131,keyboard,keyboard,0,0277_ske_s04_0_keyboard_00_keyboard-0026-sketch-31.png
subject-04,1,278,0.89789891242981,bird,bird,0,0278_ske_s04_0_bird_00_bird-1562-sketch-40.png
subject-04,1,279,0.89950704574585,car,truck,0,0279_ske_s04_0_truck_00_truck-0131-sketch-34.png
subject-04,1,280,0.729222059249878,oven,oven,0,0280_ske_s04_0_oven_00_oven-0006-sketch-13.png
subject-04,1,281,0.761409044265747,bicycle,bicycle,0,0281_ske_s04_0_bicycle_00_bicycle-0084-sketch-38.png
subject-04,1,282,0.635097026824951,oven,oven,0,0282_ske_s04_0_oven_00_oven-0044-sketch-48.png
subject-04,1,283,0.69493293762207,clock,clock,0,0283_ske_s04_0_clock_00_clock-0085-sketch-39.png
subject-04,1,284,0.662706136703491,boat,boat,0,0284_ske_s04_0_boat_00_boat-0107-sketch-12.png
subject-04,1,285,0.916544198989868,cat,truck,0,0285_ske_s04_0_truck_00_truck-0161-sketch-15.png
subject-04,1,286,0.686100959777832,boat,boat,0,0286_ske_s04_0_boat_00_boat-0173-sketch-26.png
subject-04,1,287,0.736529111862183,airplane,airplane,0,0287_ske_s04_0_airplane_00_airplane-0048-sketch-6.png
subject-04,1,288,0.855921030044556,knife,knife,0,0288_ske_s04_0_knife_00_knife-0041-sketch-45.png
subject-04,1,289,0.846240997314453,cat,cat,0,0289_ske_s04_0_cat_00_cat-0073-sketch-29.png
subject-04,1,290,0.72932505607605,oven,oven,0,0290_ske_s04_0_oven_00_oven-0029-sketch-34.png
subject-04,1,291,0.699240922927856,bottle,bottle,0,0291_ske_s04_0_bottle_00_bottle-0143-sketch-46.png
subject-04,1,292,0.71544885635376,clock,clock,0,0292_ske_s04_0_clock_00_clock-0133-sketch-36.png
subject-04,1,293,0.976792097091675,bear,bear,0,0293_ske_s04_0_bear_00_bear-0170-sketch-24.png
subject-04,1,294,0.678770065307617,airplane,airplane,0,0294_ske_s04_0_airplane_00_airplane-0050-sketch-8.png
subject-04,1,295,0.634680986404419,cat,cat,0,0295_ske_s04_0_cat_00_cat-0149-sketch-6.png
subject-04,1,296,1.41452598571777,chair,bear,0,0296_ske_s04_0_bear_00_bear-0201-sketch-7.png
subject-04,1,297,0.634145975112915,clock,clock,0,0297_ske_s04_0_clock_00_clock-0059-sketch-15.png
subject-04,1,298,0.764078140258789,knife,knife,0,0298_ske_s04_0_knife_00_knife-0018-sketch-24.png
subject-04,1,299,0.702021837234497,dog,dog,0,0299_ske_s04_0_dog_00_dog-2198-sketch-20.png
subject-04,1,300,0.78961706161499,bear,bear,0,0300_ske_s04_0_bear_00_bear-0033-sketch-38.png
subject-04,1,301,0.705824851989746,chair,chair,0,0301_ske_s04_0_chair_00_chair-0006-sketch-13.png
subject-04,1,302,0.713125944137573,car,car,0,0302_ske_s04_0_car_00_car-0132-sketch-35.png
subject-04,1,303,0.739362955093384,truck,truck,0,0303_ske_s04_0_truck_00_truck-0386-sketch-34.png
subject-04,1,304,0.627111911773682,clock,clock,0,0304_ske_s04_0_clock_00_clock-0132-sketch-35.png
subject-04,1,305,0.674696922302246,elephant,elephant,0,0305_ske_s04_0_elephant_00_elephant-0011-sketch-18.png
subject-04,1,306,0.822587013244629,knife,knife,0,0306_ske_s04_0_knife_00_knife-0012-sketch-19.png
subject-04,1,307,0.892685890197754,boat,boat,0,0307_ske_s04_0_boat_00_boat-0016-sketch-22.png
subject-04,1,308,0.586132764816284,cat,cat,0,0308_ske_s04_0_cat_00_cat-0150-sketch-7.png
subject-04,1,309,0.625982999801636,clock,clock,0,0309_ske_s04_0_clock_00_clock-0081-sketch-35.png
subject-04,1,310,0.909811019897461,bird,bird,0,0310_ske_s04_0_bird_00_bird-1096-sketch-31.png
subject-04,1,311,0.919394969940186,oven,oven,0,0311_ske_s04_0_oven_00_oven-0001-sketch-0.png
subject-04,1,312,0.673377990722656,chair,chair,0,0312_ske_s04_0_chair_00_chair-0166-sketch-20.png
subject-04,1,313,0.689064025878906,cat,cat,0,0313_ske_s04_0_cat_00_cat-0052-sketch-1.png
subject-04,1,314,1.4630241394043,keyboard,bottle,0,0314_ske_s04_0_bottle_00_bottle-0237-sketch-39.png
subject-04,1,315,0.703042030334473,bicycle,bicycle,0,0315_ske_s04_0_bicycle_00_bicycle-0099-sketch-6.png
subject-04,1,316,0.764616012573242,airplane,airplane,0,0316_ske_s04_0_airplane_00_airplane-0016-sketch-22.png
subject-04,1,317,0.610581159591675,cat,cat,0,0317_ske_s04_0_cat_00_cat-0175-sketch-29.png
subject-04,1,318,1.01812791824341,elephant,elephant,0,0318_ske_s04_0_elephant_00_elephant-0086-sketch-4.png
subject-04,1,319,0.621886968612671,cat,cat,0,0319_ske_s04_0_cat_00_cat-0015-sketch-21.png
subject-04,1,320,0.829911947250366,clock,clock,0,0320_ske_s04_0_clock_00_clock-0017-sketch-23.png
subject-04,1,321,0.736183166503906,car,car,0,0321_ske_s04_0_car_00_car-0021-sketch-27.png
subject-04,1,322,0.588510036468506,airplane,airplane,0,0322_ske_s04_0_airplane_00_airplane-0044-sketch-48.png
subject-04,1,323,1.00434708595276,clock,clock,0,0323_ske_s04_0_clock_00_clock-0144-sketch-46.png
subject-04,1,324,0.547818899154663,boat,boat,0,0324_ske_s04_0_boat_00_boat-0065-sketch-20.png
subject-04,1,325,0.808030843734741,airplane,airplane,0,0325_ske_s04_0_airplane_00_airplane-0037-sketch-41.png
subject-04,1,326,0.637240886688232,airplane,airplane,0,0326_ske_s04_0_airplane_00_airplane-0038-sketch-42.png
subject-04,1,327,0.717046022415161,boat,boat,0,0327_ske_s04_0_boat_00_boat-0212-sketch-15.png
subject-04,1,328,0.715008020401001,chair,chair,0,0328_ske_s04_0_chair_00_chair-0017-sketch-23.png
subject-04,1,329,0.814666986465454,bear,bear,0,0329_ske_s04_0_bear_00_bear-0110-sketch-16.png
subject-04,1,330,0.607089996337891,chair,chair,0,0330_ske_s04_0_chair_00_chair-0168-sketch-22.png
subject-04,1,331,0.796415090560913,bear,bear,0,0331_ske_s04_0_bear_00_bear-0073-sketch-29.png
subject-04,1,332,0.67414379119873,bottle,bottle,0,0332_ske_s04_0_bottle_00_bottle-0002-sketch-1.png
subject-04,1,333,0.75790810585022,bird,bird,0,0333_ske_s04_0_bird_00_bird-0694-sketch-36.png
subject-04,1,334,0.545773029327393,cat,cat,0,0334_ske_s04_0_cat_00_cat-0042-sketch-46.png
subject-04,1,335,0.749860048294067,bird,bird,0,0335_ske_s04_0_bird_00_bird-0479-sketch-26.png
subject-04,1,336,0.71741509437561,bottle,bottle,0,0336_ske_s04_0_bottle_00_bottle-0045-sketch-49.png
subject-04,1,337,0.981718063354492,dog,dog,0,0337_ske_s04_0_dog_00_dog-1797-sketch-26.png
subject-04,1,338,0.912951946258545,bottle,bottle,0,0338_ske_s04_0_bottle_00_bottle-0162-sketch-17.png
subject-04,1,339,0.53273606300354,clock,clock,0,0339_ske_s04_0_clock_00_clock-0118-sketch-22.png
subject-04,1,340,0.702804088592529,chair,chair,0,0340_ske_s04_0_chair_00_chair-0176-sketch-3.png
subject-04,1,341,0.908478975296021,bicycle,bicycle,0,0341_ske_s04_0_bicycle_00_bicycle-0053-sketch-1.png
subject-04,1,342,0.816520929336548,bear,bear,0,0342_ske_s04_0_bear_00_bear-0136-sketch-4.png
subject-04,1,343,0.949963092803955,car,car,0,0343_ske_s04_0_car_00_car-0044-sketch-48.png
subject-04,1,344,0.696017026901245,bicycle,bicycle,0,0344_ske_s04_0_bicycle_00_bicycle-0048-sketch-6.png
subject-04,1,345,0.851659774780273,boat,boat,0,0345_ske_s04_0_boat_00_boat-0125-sketch-29.png
subject-04,1,346,0.769402980804443,boat,boat,0,0346_ske_s04_0_boat_00_boat-0132-sketch-35.png
subject-04,1,347,0.765336036682129,knife,knife,0,0347_ske_s04_0_knife_00_knife-0031-sketch-36.png
subject-04,1,348,0.873692035675049,car,car,0,0348_ske_s04_0_car_00_car-0083-sketch-37.png
subject-04,1,349,1.13728094100952,bear,bear,0,0349_ske_s04_0_bear_00_bear-0023-sketch-29.png
subject-04,1,350,0.830734014511108,bird,bird,0,0350_ske_s04_0_bird_00_bird-0939-sketch-27.png
subject-04,1,351,0.664764165878296,clock,clock,0,0351_ske_s04_0_clock_00_clock-0074-sketch-29.png
subject-04,1,352,0.722194910049438,keyboard,keyboard,0,0352_ske_s04_0_keyboard_00_keyboard-0052-sketch-0.png
subject-04,1,353,0.740364074707031,bear,bear,0,0353_ske_s04_0_bear_00_bear-0017-sketch-23.png
subject-04,1,354,0.850075006484985,knife,knife,0,0354_ske_s04_0_knife_00_knife-0008-sketch-15.png
subject-04,1,355,0.947705030441284,elephant,elephant,0,0355_ske_s04_0_elephant_00_elephant-0039-sketch-43.png
subject-04,1,356,1.33376598358154,oven,truck,0,0356_ske_s04_0_truck_00_truck-0368-sketch-18.png
subject-04,1,357,0.873425006866455,airplane,airplane,0,0357_ske_s04_0_airplane_00_airplane-0049-sketch-7.png
subject-04,1,358,1.35312008857727,elephant,elephant,0,0358_ske_s04_0_elephant_00_elephant-0016-sketch-22.png
subject-04,1,359,0.823096036911011,elephant,bear,0,0359_ske_s04_0_bear_00_bear-0026-sketch-31.png
subject-04,1,360,1.02875518798828,oven,oven,0,0360_ske_s04_0_oven_00_oven-0002-sketch-1.png
subject-04,1,361,0.882595062255859,knife,knife,0,0361_ske_s04_0_knife_00_knife-0045-sketch-49.png
subject-04,1,362,0.702399015426636,boat,boat,0,0362_ske_s04_0_boat_00_boat-0080-sketch-34.png
subject-04,1,363,0.946312189102173,bicycle,bicycle,0,0363_ske_s04_0_bicycle_00_bicycle-0057-sketch-13.png
subject-04,1,364,0.810047149658203,bear,bear,0,0364_ske_s04_0_bear_00_bear-0022-sketch-28.png
subject-04,1,365,0.927973031997681,bicycle,bicycle,0,0365_ske_s04_0_bicycle_00_bicycle-0102-sketch-9.png
subject-04,1,366,0.8418128490448,bear,bear,0,0366_ske_s04_0_bear_00_bear-0068-sketch-24.png
subject-04,1,367,0.757644176483154,keyboard,keyboard,0,0367_ske_s04_0_keyboard_00_keyboard-0033-sketch-38.png
subject-04,1,368,0.933449983596802,bird,cat,0,0368_ske_s04_0_cat_00_cat-0241-sketch-42.png
subject-04,1,369,0.597142934799194,knife,knife,0,0369_ske_s04_0_knife_00_knife-0016-sketch-22.png
subject-04,1,370,0.677058935165405,airplane,airplane,0,0370_ske_s04_0_airplane_00_airplane-0002-sketch-1.png
subject-04,1,371,0.775384187698364,bear,bear,0,0371_ske_s04_0_bear_00_bear-0036-sketch-40.png
subject-04,1,372,0.924621105194092,elephant,elephant,0,0372_ske_s04_0_elephant_00_elephant-0076-sketch-30.png
subject-04,1,373,0.784516096115112,boat,boat,0,0373_ske_s04_0_boat_00_boat-0029-sketch-34.png
subject-04,1,374,0.844257831573486,boat,boat,0,0374_ske_s04_0_boat_00_boat-0074-sketch-29.png
subject-04,1,375,0.674176931381226,bird,bird,0,0375_ske_s04_0_bird_00_bird-2010-sketch-30.png
subject-04,1,376,1.17801189422607,dog,dog,0,0376_ske_s04_0_dog_00_dog-4499-sketch-33.png
subject-04,1,377,0.751834869384766,knife,knife,0,0377_ske_s04_0_knife_00_knife-0035-sketch-4.png
subject-04,1,378,0.667368173599243,keyboard,keyboard,0,0378_ske_s04_0_keyboard_00_keyboard-0049-sketch-7.png
subject-04,1,379,0.631649017333984,oven,oven,0,0379_ske_s04_0_oven_00_oven-0031-sketch-36.png
subject-04,1,380,0.671319007873535,keyboard,keyboard,0,0380_ske_s04_0_keyboard_00_keyboard-0088-sketch-41.png
subject-04,1,381,0.703078985214233,chair,chair,0,0381_ske_s04_0_chair_00_chair-0127-sketch-31.png
subject-04,1,382,0.760709047317505,car,car,0,0382_ske_s04_0_car_00_car-0032-sketch-37.png
subject-04,1,383,0.662516117095947,car,car,0,0383_ske_s04_0_car_00_car-0079-sketch-33.png
subject-04,1,384,0.894424915313721,knife,knife,0,0384_ske_s04_0_knife_00_knife-0021-sketch-27.png
subject-04,1,385,0.606145858764648,cat,cat,0,0385_ske_s04_0_cat_00_cat-0082-sketch-37.png
subject-04,1,386,0.929947137832642,knife,knife,0,0386_ske_s04_0_knife_00_knife-0040-sketch-44.png
subject-04,1,387,0.759896039962769,airplane,airplane,0,0387_ske_s04_0_airplane_00_airplane-0014-sketch-20.png
subject-04,1,388,0.663514852523804,car,car,0,0388_ske_s04_0_car_00_car-0125-sketch-29.png
subject-04,1,389,1.20537900924683,truck,truck,0,0389_ske_s04_0_truck_00_truck-0007-sketch-14.png
subject-04,1,390,0.863299131393433,clock,clock,0,0390_ske_s04_0_clock_00_clock-0060-sketch-16.png
subject-04,1,391,0.889049053192139,elephant,elephant,0,0391_ske_s04_0_elephant_00_elephant-0048-sketch-6.png
subject-04,1,392,0.626732110977173,bear,bear,0,0392_ske_s04_0_bear_00_bear-0081-sketch-36.png
subject-04,1,393,0.664587020874023,bird,bird,0,0393_ske_s04_0_bird_00_bird-0733-sketch-25.png
subject-04,1,394,0.714494943618774,bottle,bottle,0,0394_ske_s04_0_bottle_00_bottle-0030-sketch-35.png
subject-04,1,395,0.664139032363892,cat,cat,0,0395_ske_s04_0_cat_00_cat-0158-sketch-13.png
subject-04,1,396,1.15012717247009,bicycle,bicycle,0,0396_ske_s04_0_bicycle_00_bicycle-0045-sketch-49.png
subject-04,1,397,0.752095937728882,bicycle,bicycle,0,0397_ske_s04_0_bicycle_00_bicycle-0090-sketch-43.png
subject-04,1,398,0.719720840454102,airplane,airplane,0,0398_ske_s04_0_airplane_00_airplane-0022-sketch-28.png
subject-04,1,399,1.35952877998352,oven,keyboard,0,0399_ske_s04_0_keyboard_00_keyboard-0028-sketch-33.png
subject-04,1,400,0.759408950805664,airplane,airplane,0,0400_ske_s04_0_airplane_00_airplane-0005-sketch-12.png
subject-04,1,401,0.787331104278564,bicycle,bicycle,0,0401_ske_s04_0_bicycle_00_bicycle-0068-sketch-23.png
subject-04,1,402,0.656828880310059,boat,boat,0,0402_ske_s04_0_boat_00_boat-0146-sketch-48.png
subject-04,1,403,0.706878900527954,keyboard,keyboard,0,0403_ske_s04_0_keyboard_00_keyboard-0063-sketch-19.png
subject-04,1,404,0.868929147720337,bear,dog,0,0404_ske_s04_0_dog_00_dog-2323-sketch-41.png
subject-04,1,405,0.822365999221802,keyboard,keyboard,0,0405_ske_s04_0_keyboard_00_keyboard-0087-sketch-40.png
subject-04,1,406,0.850376844406128,knife,knife,0,0406_ske_s04_0_knife_00_knife-0027-sketch-32.png
subject-04,1,407,0.954057931900024,dog,cat,0,0407_ske_s04_0_cat_00_cat-0274-sketch-26.png
subject-04,1,408,0.69202995300293,bear,bear,0,0408_ske_s04_0_bear_00_bear-0103-sketch-1.png
subject-04,1,409,0.863529920578003,truck,truck,0,0409_ske_s04_0_truck_00_truck-0045-sketch-49.png
subject-04,1,410,0.70736289024353,bear,bear,0,0410_ske_s04_0_bear_00_bear-0085-sketch-4.png
subject-04,1,411,0.741403102874756,keyboard,keyboard,0,0411_ske_s04_0_keyboard_00_keyboard-0076-sketch-30.png
subject-04,1,412,0.829157829284668,bird,bird,0,0412_ske_s04_0_bird_00_bird-0072-sketch-27.png
subject-04,1,413,0.746993064880371,bicycle,bicycle,0,0413_ske_s04_0_bicycle_00_bicycle-0054-sketch-10.png
subject-04,1,414,0.670620203018188,elephant,elephant,0,0414_ske_s04_0_elephant_00_elephant-0030-sketch-35.png
subject-04,1,415,0.742445945739746,elephant,elephant,0,0415_ske_s04_0_elephant_00_elephant-0014-sketch-20.png
subject-04,1,416,0.79841685295105,elephant,elephant,0,0416_ske_s04_0_elephant_00_elephant-0006-sketch-13.png
subject-04,1,417,0.966127872467041,keyboard,keyboard,0,0417_ske_s04_0_keyboard_00_keyboard-0084-sketch-38.png
subject-04,1,418,0.841969013214111,bird,bird,0,0418_ske_s04_0_bird_00_bird-1081-sketch-18.png
subject-04,1,419,0.647737979888916,boat,boat,0,0419_ske_s04_0_boat_00_boat-0064-sketch-2.png
subject-04,1,420,0.602109909057617,oven,oven,0,0420_ske_s04_0_oven_00_oven-0015-sketch-21.png
subject-04,1,421,0.885461807250977,truck,truck,0,0421_ske_s04_0_truck_00_truck-0336-sketch-35.png
subject-04,1,422,0.699095010757446,oven,oven,0,0422_ske_s04_0_oven_00_oven-0036-sketch-40.png
subject-04,1,423,0.919397115707397,airplane,airplane,0,0423_ske_s04_0_airplane_00_airplane-0031-sketch-36.png
subject-04,1,424,0.753064155578613,bird,bird,0,0424_ske_s04_0_bird_00_bird-2169-sketch-36.png
subject-04,1,425,0.622776985168457,oven,oven,0,0425_ske_s04_0_oven_00_oven-0021-sketch-27.png
subject-04,1,426,0.718524932861328,bird,bird,0,0426_ske_s04_0_bird_00_bird-0748-sketch-39.png
subject-04,1,427,0.720468997955322,bottle,bottle,0,0427_ske_s04_0_bottle_00_bottle-0054-sketch-11.png
subject-04,1,428,0.624159812927246,clock,clock,0,0428_ske_s04_0_clock_00_clock-0087-sketch-40.png
subject-04,1,429,0.852422952651978,elephant,elephant,0,0429_ske_s04_0_elephant_00_elephant-0020-sketch-26.png
subject-04,1,430,0.915933847427368,knife,knife,0,0430_ske_s04_0_knife_00_knife-0044-sketch-48.png
subject-04,1,431,1.50003600120544,chair,chair,0,0431_ske_s04_0_chair_00_chair-0200-sketch-6.png
subject-04,1,432,0.689295053482056,clock,clock,0,0432_ske_s04_0_clock_00_clock-0141-sketch-43.png
subject-04,1,433,0.615123987197876,oven,oven,0,0433_ske_s04_0_oven_00_oven-0050-sketch-8.png
subject-04,1,434,0.507007122039795,boat,boat,0,0434_ske_s04_0_boat_00_boat-0228-sketch-3.png
subject-04,1,435,1.24665403366089,clock,dog,0,0435_ske_s04_0_dog_00_dog-3153-sketch-11.png
subject-04,1,436,0.810960054397583,bicycle,bicycle,0,0436_ske_s04_0_bicycle_00_bicycle-0008-sketch-15.png
subject-04,1,437,0.586493015289307,bottle,bottle,0,0437_ske_s04_0_bottle_00_bottle-0292-sketch-42.png
subject-04,1,438,0.616357088088989,airplane,airplane,0,0438_ske_s04_0_airplane_00_airplane-0042-sketch-46.png
subject-04,1,439,0.76810097694397,bird,bird,0,0439_ske_s04_0_bird_00_bird-0474-sketch-21.png
subject-04,1,440,0.667762041091919,knife,knife,0,0440_ske_s04_0_knife_00_knife-0051-sketch-9.png
subject-04,1,441,1.08371710777283,bird,bird,0,0441_ske_s04_0_bird_00_bird-1749-sketch-25.png
subject-04,1,442,0.913456916809082,bear,bear,0,0442_ske_s04_0_bear_00_bear-0005-sketch-12.png
subject-04,1,443,0.673175811767578,car,car,0,0443_ske_s04_0_car_00_car-0151-sketch-7.png
subject-04,1,444,0.548959970474243,oven,oven,0,0444_ske_s04_0_oven_00_oven-0026-sketch-31.png
subject-04,1,445,0.644937038421631,cat,cat,0,0445_ske_s04_0_cat_00_cat-0265-sketch-18.png
subject-04,1,446,0.694660186767578,cat,cat,0,0446_ske_s04_0_cat_00_cat-0053-sketch-10.png
subject-04,1,447,0.986392021179199,elephant,elephant,0,0447_ske_s04_0_elephant_00_elephant-0032-sketch-37.png
subject-04,1,448,1.34044504165649,oven,oven,0,0448_ske_s04_0_oven_00_oven-0019-sketch-25.png
subject-04,1,449,0.732372999191284,bear,bear,0,0449_ske_s04_0_bear_00_bear-0041-sketch-45.png
subject-04,1,450,0.850343942642212,bicycle,bicycle,0,0450_ske_s04_0_bicycle_00_bicycle-0039-sketch-43.png
subject-04,1,451,0.625818014144897,boat,boat,0,0451_ske_s04_0_boat_00_boat-0239-sketch-4.png
subject-04,1,452,0.803499937057495,bottle,bottle,0,0452_ske_s04_0_bottle_00_bottle-0245-sketch-46.png
subject-04,1,453,0.735471963882446,bear,bear,0,0453_ske_s04_0_bear_00_bear-0037-sketch-41.png
subject-04,1,454,0.715330123901367,cat,cat,0,0454_ske_s04_0_cat_00_cat-0293-sketch-43.png
subject-04,1,455,0.877193212509155,truck,truck,0,0455_ske_s04_0_truck_00_truck-0348-sketch-46.png
subject-04,1,456,0.816833972930908,bottle,bottle,0,0456_ske_s04_0_bottle_00_bottle-0039-sketch-43.png
subject-04,1,457,0.78851580619812,car,truck,0,0457_ske_s04_0_truck_00_truck-0135-sketch-38.png
subject-04,1,458,0.844507932662964,car,car,0,0458_ske_s04_0_car_00_car-0092-sketch-45.png
subject-04,1,459,0.712192058563232,elephant,elephant,0,0459_ske_s04_0_elephant_00_elephant-0094-sketch-47.png
subject-04,1,460,0.754000186920166,cat,dog,0,0460_ske_s04_0_dog_00_dog-4909-sketch-37.png
subject-04,1,461,0.571868181228638,clock,clock,0,0461_ske_s04_0_clock_00_clock-0021-sketch-27.png
subject-04,1,462,0.709647178649902,clock,clock,0,0462_ske_s04_0_clock_00_clock-0067-sketch-22.png
subject-04,1,463,0.561404943466187,boat,boat,0,0463_ske_s04_0_boat_00_boat-0152-sketch-8.png
subject-04,1,464,0.765411853790283,elephant,elephant,0,0464_ske_s04_0_elephant_00_elephant-0050-sketch-8.png
subject-04,1,465,0.751185894012451,bottle,bottle,0,0465_ske_s04_0_bottle_00_bottle-0097-sketch-50.png
subject-04,1,466,0.601071834564209,clock,clock,0,0466_ske_s04_0_clock_00_clock-0070-sketch-25.png
subject-04,1,467,0.532670021057129,clock,clock,0,0467_ske_s04_0_clock_00_clock-0073-sketch-28.png
subject-04,1,468,0.784598112106323,elephant,elephant,0,0468_ske_s04_0_elephant_00_elephant-0033-sketch-38.png
subject-04,1,469,0.716378927230835,boat,boat,0,0469_ske_s04_0_boat_00_boat-0059-sketch-15.png
subject-04,1,470,0.618351936340332,chair,chair,0,0470_ske_s04_0_chair_00_chair-0131-sketch-35.png
subject-04,1,471,0.762188911437988,truck,truck,0,0471_ske_s04_0_truck_00_truck-0025-sketch-30.png
subject-04,1,472,0.723796129226685,bicycle,bicycle,0,0472_ske_s04_0_bicycle_00_bicycle-0070-sketch-25.png
subject-04,1,473,0.639990091323853,oven,oven,0,0473_ske_s04_0_oven_00_oven-0025-sketch-30.png
subject-04,1,474,1.25949501991272,dog,cat,0,0474_ske_s04_0_cat_00_cat-0260-sketch-13.png
subject-04,1,475,0.671805143356323,bird,bird,0,0475_ske_s04_0_bird_00_bird-0646-sketch-39.png
subject-04,1,476,0.7431960105896,bicycle,bicycle,0,0476_ske_s04_0_bicycle_00_bicycle-0026-sketch-31.png
subject-04,1,477,0.97688102722168,dog,dog,0,0477_ske_s04_0_dog_00_dog-4709-sketch-4.png
subject-04,1,478,0.678690195083618,airplane,airplane,0,0478_ske_s04_0_airplane_00_airplane-0023-sketch-29.png
subject-04,1,479,0.516408920288086,boat,boat,0,0479_ske_s04_0_boat_00_boat-0234-sketch-35.png
subject-04,1,480,0.560421228408813,oven,oven,0,0480_ske_s04_0_oven_00_oven-0016-sketch-22.png
subject-04,1,481,1.06618499755859,clock,clock,0,0481_ske_s04_0_clock_00_clock-0127-sketch-30.png
subject-04,1,482,0.804173946380615,dog,dog,0,0482_ske_s04_0_dog_00_dog-0215-sketch-19.png
subject-04,1,483,0.929681062698364,knife,knife,0,0483_ske_s04_0_knife_00_knife-0013-sketch-2.png
subject-04,1,484,0.845767021179199,oven,bear,0,0484_ske_s04_0_bear_00_bear-0027-sketch-32.png
subject-04,1,485,0.735284090042114,bicycle,bicycle,0,0485_ske_s04_0_bicycle_00_bicycle-0046-sketch-5.png
subject-04,1,486,0.565246820449829,clock,clock,0,0486_ske_s04_0_clock_00_clock-0046-sketch-5.png
subject-04,1,487,0.771053075790405,truck,truck,0,0487_ske_s04_0_truck_00_truck-0136-sketch-39.png
subject-04,1,488,0.798820018768311,bicycle,bicycle,0,0488_ske_s04_0_bicycle_00_bicycle-0094-sketch-47.png
subject-04,1,489,0.898714065551758,oven,oven,0,0489_ske_s04_0_oven_00_oven-0037-sketch-41.png
subject-04,1,490,1.28662395477295,boat,bird,0,0490_ske_s04_0_bird_00_bird-1948-sketch-20.png
subject-04,1,491,0.646188020706177,oven,oven,0,0491_ske_s04_0_oven_00_oven-0013-sketch-2.png
subject-04,1,492,0.680097818374634,bicycle,bicycle,0,0492_ske_s04_0_bicycle_00_bicycle-0080-sketch-34.png
subject-04,1,493,0.865833044052124,dog,cat,0,0493_ske_s04_0_cat_00_cat-0229-sketch-31.png
subject-04,1,494,0.656064033508301,airplane,airplane,0,0494_ske_s04_0_airplane_00_airplane-0039-sketch-43.png
subject-04,1,495,1.12149906158447,car,car,0,0495_ske_s04_0_car_00_car-0047-sketch-50.png
subject-04,1,496,0.713376045227051,bird,bird,0,0496_ske_s04_0_bird_00_bird-0316-sketch-17.png
subject-04,1,497,0.887090921401978,bird,bird,0,0497_ske_s04_0_bird_00_bird-0491-sketch-37.png
subject-04,1,498,0.784893989562988,knife,knife,0,0498_ske_s04_0_knife_00_knife-0037-sketch-41.png
subject-04,1,499,0.716691017150879,car,truck,0,0499_ske_s04_0_truck_00_truck-0249-sketch-49.png
subject-04,1,500,1.42260408401489,cat,elephant,0,0500_ske_s04_0_elephant_00_elephant-0052-sketch-0.png
subject-04,1,501,0.836332082748413,knife,knife,0,0501_ske_s04_0_knife_00_knife-0019-sketch-25.png
subject-04,1,502,0.70613694190979,bear,bear,0,0502_ske_s04_0_bear_00_bear-0149-sketch-6.png
subject-04,1,503,0.570358991622925,bird,bird,0,0503_ske_s04_0_bird_00_bird-2372-sketch-36.png
subject-04,1,504,0.596254825592041,boat,boat,0,0504_ske_s04_0_boat_00_boat-0253-sketch-7.png
subject-04,1,505,0.669729948043823,bear,bear,0,0505_ske_s04_0_bear_00_bear-0171-sketch-25.png
subject-04,1,506,0.787513971328735,bicycle,bicycle,0,0506_ske_s04_0_bicycle_00_bicycle-0047-sketch-50.png
subject-04,1,507,0.953448057174683,bear,bear,0,0507_ske_s04_0_bear_00_bear-0007-sketch-14.png
subject-04,1,508,0.672933101654053,airplane,airplane,0,0508_ske_s04_0_airplane_00_airplane-0036-sketch-40.png
subject-04,1,509,0.764838933944702,airplane,airplane,0,0509_ske_s04_0_airplane_00_airplane-0012-sketch-19.png
subject-04,1,510,0.896600961685181,dog,dog,0,0510_ske_s04_0_dog_00_dog-3646-sketch-42.png
subject-04,1,511,0.554684162139893,keyboard,keyboard,0,0511_ske_s04_0_keyboard_00_keyboard-0008-sketch-15.png
subject-04,1,512,0.670217990875244,cat,cat,0,0512_ske_s04_0_cat_00_cat-0027-sketch-32.png
subject-04,1,513,0.766135931015015,chair,chair,0,0513_ske_s04_0_chair_00_chair-0145-sketch-48.png
subject-04,1,514,0.821998119354248,car,car,0,0514_ske_s04_0_car_00_car-0013-sketch-2.png
subject-04,1,515,0.623643159866333,cat,cat,0,0515_ske_s04_0_cat_00_cat-0009-sketch-16.png
subject-04,1,516,0.751291990280151,car,truck,0,0516_ske_s04_0_truck_00_truck-0303-sketch-6.png
subject-04,1,517,0.927366018295288,dog,dog,0,0517_ske_s04_0_dog_00_dog-0476-sketch-26.png
subject-04,1,518,1.03120899200439,bear,bear,0,0518_ske_s04_0_bear_00_bear-0107-sketch-13.png
subject-04,1,519,0.70508599281311,car,truck,0,0519_ske_s04_0_truck_00_truck-0243-sketch-43.png
subject-04,1,520,1.00708699226379,dog,bear,0,0520_ske_s04_0_bear_00_bear-0161-sketch-16.png
subject-04,1,521,0.853127956390381,dog,dog,0,0521_ske_s04_0_dog_00_dog-5354-sketch-25.png
subject-04,1,522,0.972683906555176,elephant,elephant,0,0522_ske_s04_0_elephant_00_elephant-0043-sketch-47.png
subject-04,1,523,0.832330942153931,dog,cat,0,0523_ske_s04_0_cat_00_cat-0207-sketch-11.png
subject-04,1,524,0.680433988571167,boat,boat,0,0524_ske_s04_0_boat_00_boat-0110-sketch-15.png
subject-04,1,525,0.657870054244995,car,car,0,0525_ske_s04_0_car_00_car-0117-sketch-21.png
subject-04,1,526,0.845741987228394,keyboard,keyboard,0,0526_ske_s04_0_keyboard_00_keyboard-0029-sketch-34.png
subject-04,1,527,0.743498086929321,clock,clock,0,0527_ske_s04_0_clock_00_clock-0143-sketch-45.png
subject-04,1,528,0.681596040725708,chair,chair,0,0528_ske_s04_0_chair_00_chair-0094-sketch-47.png
subject-04,1,529,0.843256950378418,elephant,elephant,0,0529_ske_s04_0_elephant_00_elephant-0066-sketch-21.png
subject-04,1,530,0.853064060211182,knife,knife,0,0530_ske_s04_0_knife_00_knife-0001-sketch-0.png
subject-04,1,531,0.640779972076416,bottle,bottle,0,0531_ske_s04_0_bottle_00_bottle-0165-sketch-2.png
subject-04,1,532,0.736724138259888,bottle,bottle,0,0532_ske_s04_0_bottle_00_bottle-0215-sketch-19.png
subject-04,1,533,0.81029486656189,airplane,airplane,0,0533_ske_s04_0_airplane_00_airplane-0015-sketch-21.png
subject-04,1,534,0.684200048446655,bird,bird,0,0534_ske_s04_0_bird_00_bird-1860-sketch-33.png
subject-04,1,535,0.813992977142334,bear,bear,0,0535_ske_s04_0_bear_00_bear-0053-sketch-10.png
subject-04,1,536,0.759917974472046,keyboard,keyboard,0,0536_ske_s04_0_keyboard_00_keyboard-0019-sketch-25.png
subject-04,1,537,0.591732978820801,oven,oven,0,0537_ske_s04_0_oven_00_oven-0009-sketch-16.png
subject-04,1,538,1.27327990531921,chair,chair,0,0538_ske_s04_0_chair_00_chair-0005-sketch-12.png
subject-04,1,539,0.805344104766846,airplane,airplane,0,0539_ske_s04_0_airplane_00_airplane-0017-sketch-23.png
subject-04,1,540,0.591173887252808,clock,clock,0,0540_ske_s04_0_clock_00_clock-0022-sketch-28.png
subject-04,1,541,0.706780910491943,bicycle,bicycle,0,0541_ske_s04_0_bicycle_00_bicycle-0071-sketch-26.png
subject-04,1,542,0.838781833648682,elephant,elephant,0,0542_ske_s04_0_elephant_00_elephant-0101-sketch-8.png
subject-04,1,543,0.942519903182983,bear,bear,0,0543_ske_s04_0_bear_00_bear-0148-sketch-50.png
subject-04,1,544,0.866544008255005,chair,chair,0,0544_ske_s04_0_chair_00_chair-0060-sketch-16.png
subject-04,1,545,0.74605393409729,clock,clock,0,0545_ske_s04_0_clock_00_clock-0092-sketch-45.png
subject-04,1,546,0.60193920135498,bear,bear,0,0546_ske_s04_0_bear_00_bear-0030-sketch-35.png
subject-04,1,547,0.977783918380737,knife,knife,0,0547_ske_s04_0_knife_00_knife-0010-sketch-17.png
subject-04,1,548,0.767746925354004,airplane,airplane,0,0548_ske_s04_0_airplane_00_airplane-0009-sketch-16.png
subject-04,1,549,0.995760202407837,dog,cat,0,0549_ske_s04_0_cat_00_cat-0279-sketch-30.png
subject-04,1,550,0.581264972686768,knife,knife,0,0550_ske_s04_0_knife_00_knife-0011-sketch-18.png
subject-04,1,551,1.18090891838074,dog,dog,0,0551_ske_s04_0_dog_00_dog-1973-sketch-47.png
subject-04,1,552,0.510707855224609,clock,clock,0,0552_ske_s04_0_clock_00_clock-0123-sketch-27.png
subject-04,1,553,0.754685163497925,airplane,airplane,0,0553_ske_s04_0_airplane_00_airplane-0027-sketch-32.png
subject-04,1,554,0.622354984283447,bottle,bottle,0,0554_ske_s04_0_bottle_00_bottle-0090-sketch-44.png
subject-04,1,555,0.868303060531616,dog,dog,0,0555_ske_s04_0_dog_00_dog-4581-sketch-16.png
subject-04,1,556,0.884030103683472,bird,bird,0,0556_ske_s04_0_bird_00_bird-1740-sketch-17.png
subject-04,1,557,0.957857847213745,truck,truck,0,0557_ske_s04_0_truck_00_truck-0301-sketch-5.png
subject-04,1,558,1.05421805381775,car,car,0,0558_ske_s04_0_car_00_car-0002-sketch-1.png
subject-04,1,559,0.983607053756714,truck,truck,0,0559_ske_s04_0_truck_00_truck-0385-sketch-33.png
subject-04,1,560,0.767317056655884,chair,chair,0,0560_ske_s04_0_chair_00_chair-0063-sketch-19.png
subject-04,1,561,0.831170082092285,knife,knife,0,0561_ske_s04_0_knife_00_knife-0026-sketch-31.png
subject-04,1,562,1.02693605422974,knife,knife,0,0562_ske_s04_0_knife_00_knife-0030-sketch-35.png
subject-04,1,563,0.80676794052124,car,truck,0,0563_ske_s04_0_truck_00_truck-0289-sketch-39.png
subject-04,1,564,0.738531827926636,boat,boat,0,0564_ske_s04_0_boat_00_boat-0194-sketch-45.png
subject-04,1,565,0.826466083526611,car,truck,0,0565_ske_s04_0_truck_00_truck-0286-sketch-36.png
subject-04,1,566,0.814138174057007,boat,boat,0,0566_ske_s04_0_boat_00_boat-0165-sketch-19.png
subject-04,1,567,0.776172876358032,knife,knife,0,0567_ske_s04_0_knife_00_knife-0038-sketch-42.png
subject-04,1,568,0.717723846435547,chair,chair,0,0568_ske_s04_0_chair_00_chair-0071-sketch-26.png
subject-04,1,569,0.905495882034302,dog,dog,0,0569_ske_s04_0_dog_00_dog-3000-sketch-11.png
subject-04,1,570,1.11182904243469,knife,knife,0,0570_ske_s04_0_knife_00_knife-0014-sketch-20.png
subject-04,1,571,0.771331071853638,knife,knife,0,0571_ske_s04_0_knife_00_knife-0047-sketch-50.png
subject-04,1,572,0.834944009780884,keyboard,keyboard,0,0572_ske_s04_0_keyboard_00_keyboard-0061-sketch-17.png
subject-04,1,573,0.986778974533081,knife,knife,0,0573_ske_s04_0_knife_00_knife-0017-sketch-23.png
subject-04,1,574,0.706833124160767,dog,dog,0,0574_ske_s04_0_dog_00_dog-4208-sketch-45.png
subject-04,1,575,1.31075501441956,chair,chair,0,0575_ske_s04_0_chair_00_chair-0079-sketch-33.png
subject-04,1,576,0.694365978240967,cat,cat,0,0576_ske_s04_0_cat_00_cat-0067-sketch-23.png
subject-04,1,577,0.657960176467896,bicycle,bicycle,0,0577_ske_s04_0_bicycle_00_bicycle-0022-sketch-28.png
subject-04,1,578,0.656343936920166,boat,boat,0,0578_ske_s04_0_boat_00_boat-0001-sketch-0.png
subject-04,1,579,0.711777925491333,car,car,0,0579_ske_s04_0_car_00_car-0114-sketch-19.png
subject-04,1,580,0.847620010375977,car,car,0,0580_ske_s04_0_car_00_car-0050-sketch-8.png
subject-04,1,581,0.719526052474976,oven,oven,0,0581_ske_s04_0_oven_00_oven-0047-sketch-50.png
subject-04,1,582,0.827272176742554,boat,boat,0,0582_ske_s04_0_boat_00_boat-0052-sketch-0.png
subject-04,1,583,1.13888788223267,bicycle,bicycle,0,0583_ske_s04_0_bicycle_00_bicycle-0002-sketch-1.png
subject-04,1,584,0.690931081771851,keyboard,keyboard,0,0584_ske_s04_0_keyboard_00_keyboard-0062-sketch-18.png
subject-04,1,585,0.672693014144897,airplane,airplane,0,0585_ske_s04_0_airplane_00_airplane-0043-sketch-47.png
subject-04,1,586,0.722616195678711,oven,oven,0,0586_ske_s04_0_oven_00_oven-0012-sketch-19.png
subject-04,1,587,0.918298006057739,bear,bear,0,0587_ske_s04_0_bear_00_bear-0059-sketch-16.png
subject-04,1,588,0.818091154098511,elephant,bird,0,0588_ske_s04_0_bird_00_bird-1565-sketch-43.png
subject-04,1,589,1.10793495178223,car,car,0,0589_ske_s04_0_car_00_car-0017-sketch-23.png
subject-04,1,590,1.0596399307251,dog,dog,0,0590_ske_s04_0_dog_00_dog-4475-sketch-11.png
subject-04,1,591,1.13560009002686,truck,truck,0,0591_ske_s04_0_truck_00_truck-0369-sketch-19.png
subject-04,1,592,0.761469841003418,bottle,bottle,0,0592_ske_s04_0_bottle_00_bottle-0305-sketch-9.png
subject-04,1,593,0.81324291229248,bear,bear,0,0593_ske_s04_0_bear_00_bear-0045-sketch-49.png
subject-04,1,594,0.704968214035034,elephant,elephant,0,0594_ske_s04_0_elephant_00_elephant-0077-sketch-31.png
subject-04,1,595,0.856985092163086,car,car,0,0595_ske_s04_0_car_00_car-0143-sketch-45.png
subject-04,1,596,0.868492126464844,airplane,airplane,0,0596_ske_s04_0_airplane_00_airplane-0045-sketch-49.png
subject-04,1,597,0.620316982269287,bottle,bottle,0,0597_ske_s04_0_bottle_00_bottle-0050-sketch-9.png
subject-04,1,598,0.818716049194336,chair,chair,0,0598_ske_s04_0_chair_00_chair-0135-sketch-39.png
subject-04,1,599,0.780182123184204,keyboard,keyboard,0,0599_ske_s04_0_keyboard_00_keyboard-0044-sketch-48.png
subject-04,1,600,0.883941888809204,bird,bird,0,0600_ske_s04_0_bird_00_bird-1756-sketch-31.png
subject-04,1,601,0.635773897171021,boat,boat,0,0601_ske_s04_0_boat_00_boat-0034-sketch-39.png
subject-04,1,602,0.585482120513916,oven,oven,0,0602_ske_s04_0_oven_00_oven-0003-sketch-10.png
subject-04,1,603,0.68123197555542,dog,dog,0,0603_ske_s04_0_dog_00_dog-3695-sketch-40.png
subject-04,1,604,0.667516946792603,bottle,bottle,0,0604_ske_s04_0_bottle_00_bottle-0003-sketch-10.png
subject-04,1,605,0.762940883636475,bird,bird,0,0605_ske_s04_0_bird_00_bird-0384-sketch-32.png
subject-04,1,606,0.584846019744873,cat,cat,0,0606_ske_s04_0_cat_00_cat-0002-sketch-1.png
subject-04,1,607,0.704393863677979,bear,bear,0,0607_ske_s04_0_bear_00_bear-0123-sketch-28.png
subject-04,1,608,1.00630211830139,knife,knife,0,0608_ske_s04_0_knife_00_knife-0033-sketch-38.png
subject-04,1,609,0.852626085281372,car,car,0,0609_ske_s04_0_car_00_car-0136-sketch-39.png
subject-04,1,610,0.601886034011841,airplane,airplane,0,0610_ske_s04_0_airplane_00_airplane-0007-sketch-14.png
subject-04,1,611,0.725668907165527,bottle,bottle,0,0611_ske_s04_0_bottle_00_bottle-0041-sketch-45.png
subject-04,1,612,1.39189505577087,keyboard,keyboard,0,0612_ske_s04_0_keyboard_00_keyboard-0014-sketch-20.png
subject-04,1,613,0.737476110458374,bird,bird,0,0613_ske_s04_0_bird_00_bird-0954-sketch-40.png
subject-04,1,614,0.951144933700562,truck,truck,0,0614_ske_s04_0_truck_00_truck-0312-sketch-13.png
subject-04,1,615,0.600908041000366,keyboard,keyboard,0,0615_ske_s04_0_keyboard_00_keyboard-0042-sketch-46.png
subject-04,1,616,0.752907037734985,chair,chair,0,0616_ske_s04_0_chair_00_chair-0029-sketch-34.png
subject-04,1,617,1.08256316184998,car,truck,0,0617_ske_s04_0_truck_00_truck-0232-sketch-33.png
subject-04,1,618,0.822521924972534,elephant,elephant,0,0618_ske_s04_0_elephant_00_elephant-0019-sketch-25.png
subject-04,1,619,0.764250993728638,bicycle,bicycle,0,0619_ske_s04_0_bicycle_00_bicycle-0058-sketch-14.png
subject-04,1,620,0.620145082473755,cat,cat,0,0620_ske_s04_0_cat_00_cat-0062-sketch-19.png
subject-04,1,621,0.621973991394043,cat,cat,0,0621_ske_s04_0_cat_00_cat-0104-sketch-10.png
subject-04,1,622,0.930092096328735,dog,dog,0,0622_ske_s04_0_dog_00_dog-0011-sketch-18.png
subject-04,1,623,0.631414890289307,oven,oven,0,0623_ske_s04_0_oven_00_oven-0041-sketch-45.png
subject-04,1,624,0.785305976867676,bird,bird,0,0624_ske_s04_0_bird_00_bird-1937-sketch-10.png
subject-04,1,625,0.699151992797852,cat,dog,0,0625_ske_s04_0_dog_00_dog-5223-sketch-45.png
subject-04,1,626,0.588970899581909,boat,boat,0,0626_ske_s04_0_boat_00_boat-0070-sketch-25.png
subject-04,1,627,0.693005084991455,bear,bear,0,0627_ske_s04_0_bear_00_bear-0112-sketch-18.png
subject-04,1,628,0.694576025009155,boat,oven,0,0628_ske_s04_0_oven_00_oven-0020-sketch-26.png
subject-04,1,629,0.622575044631958,bicycle,bicycle,0,0629_ske_s04_0_bicycle_00_bicycle-0081-sketch-35.png
subject-04,1,630,0.74810004234314,chair,chair,0,0630_ske_s04_0_chair_00_chair-0122-sketch-27.png
subject-04,1,631,0.507928133010864,boat,boat,0,0631_ske_s04_0_boat_00_boat-0051-sketch-9.png
subject-04,1,632,0.66595196723938,chair,chair,0,0632_ske_s04_0_chair_00_chair-0062-sketch-18.png
subject-04,1,633,0.737694978713989,bottle,bottle,0,0633_ske_s04_0_bottle_00_bottle-0086-sketch-40.png
subject-04,1,634,0.887260913848877,clock,clock,0,0634_ske_s04_0_clock_00_clock-0076-sketch-30.png
subject-04,1,635,0.631700992584229,cat,cat,0,0635_ske_s04_0_cat_00_cat-0059-sketch-16.png
subject-04,1,636,0.897490978240967,elephant,elephant,0,0636_ske_s04_0_elephant_00_elephant-0055-sketch-11.png
subject-04,1,637,1.09128189086914,truck,truck,0,0637_ske_s04_0_truck_00_truck-0196-sketch-47.png
subject-04,1,638,0.896619081497192,elephant,elephant,0,0638_ske_s04_0_elephant_00_elephant-0013-sketch-2.png
subject-04,1,639,0.672776937484741,bird,bird,0,0639_ske_s04_0_bird_00_bird-0834-sketch-24.png
subject-04,1,640,0.74454402923584,bottle,bottle,0,0640_ske_s04_0_bottle_00_bottle-0268-sketch-20.png
subject-04,1,641,1.20216202735901,knife,knife,0,0641_ske_s04_0_knife_00_knife-0024-sketch-3.png
subject-04,1,642,0.674249887466431,cat,cat,0,0642_ske_s04_0_cat_00_cat-0302-sketch-6.png
subject-04,1,643,0.527801036834717,bicycle,bicycle,0,0643_ske_s04_0_bicycle_00_bicycle-0101-sketch-8.png
subject-04,1,644,0.717782020568848,airplane,airplane,0,0644_ske_s04_0_airplane_00_airplane-0028-sketch-33.png
subject-04,1,645,0.575764894485474,cat,cat,0,0645_ske_s04_0_cat_00_cat-0021-sketch-27.png
subject-04,1,646,1.26939105987549,knife,knife,0,0646_ske_s04_0_knife_00_knife-0043-sketch-47.png
subject-04,1,647,0.865154981613159,dog,dog,0,0647_ske_s04_0_dog_00_dog-2150-sketch-22.png
subject-04,1,648,0.811058044433594,bird,bird,0,0648_ske_s04_0_bird_00_bird-2262-sketch-28.png
subject-04,1,649,0.618754863739014,oven,oven,0,0649_ske_s04_0_oven_00_oven-0004-sketch-11.png
subject-04,1,650,0.720587015151978,bird,bird,0,0650_ske_s04_0_bird_00_bird-0640-sketch-33.png
subject-04,1,651,0.656373023986816,clock,clock,0,0651_ske_s04_0_clock_00_clock-0005-sketch-12.png
subject-04,1,652,0.660360097885132,elephant,elephant,0,0652_ske_s04_0_elephant_00_elephant-0071-sketch-26.png
subject-04,1,653,0.656430959701538,elephant,elephant,0,0653_ske_s04_0_elephant_00_elephant-0079-sketch-33.png
subject-04,1,654,0.604369878768921,oven,oven,0,0654_ske_s04_0_oven_00_oven-0018-sketch-24.png
subject-04,1,655,0.785656929016113,knife,knife,0,0655_ske_s04_0_knife_00_knife-0015-sketch-21.png
subject-04,1,656,0.935862064361572,truck,truck,0,0656_ske_s04_0_truck_00_truck-0079-sketch-33.png
subject-04,1,657,0.597504854202271,oven,oven,0,0657_ske_s04_0_oven_00_oven-0039-sketch-43.png
subject-04,1,658,0.873167037963867,car,car,0,0658_ske_s04_0_car_00_car-0129-sketch-32.png
subject-04,1,659,0.71092414855957,bird,bird,0,0659_ske_s04_0_bird_00_bird-0292-sketch-41.png
subject-04,1,660,0.710773229598999,airplane,airplane,0,0660_ske_s04_0_airplane_00_airplane-0034-sketch-39.png
subject-04,1,661,0.654381036758423,car,truck,0,0661_ske_s04_0_truck_00_truck-0275-sketch-26.png
subject-04,1,662,0.688663959503174,knife,knife,0,0662_ske_s04_0_knife_00_knife-0028-sketch-33.png
subject-04,1,663,0.804135084152222,airplane,airplane,0,0663_ske_s04_0_airplane_00_airplane-0003-sketch-10.png
subject-04,1,664,0.760031938552856,clock,clock,0,0664_ske_s04_0_clock_00_clock-0078-sketch-32.png
subject-04,1,665,0.945716857910156,bear,bear,0,0665_ske_s04_0_bear_00_bear-0048-sketch-7.png
subject-04,1,666,0.67416787147522,boat,boat,0,0666_ske_s04_0_boat_00_boat-0002-sketch-1.png
subject-04,1,667,0.957520961761475,chair,chair,0,0667_ske_s04_0_chair_00_chair-0013-sketch-2.png
subject-04,1,668,0.903301954269409,knife,knife,0,0668_ske_s04_0_knife_00_knife-0046-sketch-5.png
subject-04,1,669,1.03100299835205,dog,dog,0,0669_ske_s04_0_dog_00_dog-1035-sketch-27.png
subject-04,1,670,0.564759016036987,clock,clock,0,0670_ske_s04_0_clock_00_clock-0044-sketch-48.png
subject-04,1,671,1.20465517044067,dog,elephant,0,0671_ske_s04_0_elephant_00_elephant-0057-sketch-13.png
subject-04,1,672,0.644572019577026,keyboard,keyboard,0,0672_ske_s04_0_keyboard_00_keyboard-0006-sketch-13.png
subject-04,1,673,0.926507949829102,bear,bear,0,0673_ske_s04_0_bear_00_bear-0195-sketch-47.png
subject-04,1,674,0.686161041259766,chair,chair,0,0674_ske_s04_0_chair_00_chair-0011-sketch-18.png
subject-04,1,675,0.934326887130737,dog,dog,0,0675_ske_s04_0_dog_00_dog-2948-sketch-10.png
subject-04,1,676,0.929682016372681,bottle,bottle,0,0676_ske_s04_0_bottle_00_bottle-0217-sketch-20.png
subject-04,1,677,0.60763692855835,airplane,airplane,0,0677_ske_s04_0_airplane_00_airplane-0011-sketch-18.png
subject-04,1,678,0.847208023071289,chair,chair,0,0678_ske_s04_0_chair_00_chair-0175-sketch-29.png
subject-04,1,679,1.11717510223389,chair,chair,0,0679_ske_s04_0_chair_00_chair-0153-sketch-0.png
subject-04,1,680,0.790961980819702,airplane,airplane,0,0680_ske_s04_0_airplane_00_airplane-0018-sketch-24.png
subject-04,1,681,0.763102054595947,bicycle,bicycle,0,0681_ske_s04_0_bicycle_00_bicycle-0004-sketch-11.png
subject-04,1,682,0.6167311668396,elephant,elephant,0,0682_ske_s04_0_elephant_00_elephant-0029-sketch-34.png
subject-04,1,683,0.618210077285767,boat,boat,0,0683_ske_s04_0_boat_00_boat-0166-sketch-2.png
subject-04,1,684,1.01421904563904,keyboard,keyboard,0,0684_ske_s04_0_keyboard_00_keyboard-0017-sketch-23.png
subject-04,1,685,0.88201904296875,truck,truck,0,0685_ske_s04_0_truck_00_truck-0167-sketch-20.png
subject-04,1,686,0.689889907836914,boat,boat,0,0686_ske_s04_0_boat_00_boat-0126-sketch-3.png
subject-04,1,687,0.667598009109497,boat,boat,0,0687_ske_s04_0_boat_00_boat-0068-sketch-23.png
subject-04,1,688,0.609679937362671,oven,oven,0,0688_ske_s04_0_oven_00_oven-0046-sketch-5.png
subject-04,1,689,0.713287115097046,truck,truck,0,0689_ske_s04_0_truck_00_truck-0154-sketch-0.png
subject-04,1,690,0.74714994430542,car,car,0,0690_ske_s04_0_car_00_car-0045-sketch-49.png
subject-04,1,691,0.720896005630493,keyboard,keyboard,0,0691_ske_s04_0_keyboard_00_keyboard-0041-sketch-45.png
subject-04,1,692,0.688639163970947,chair,chair,0,0692_ske_s04_0_chair_00_chair-0052-sketch-0.png
subject-04,1,693,0.846464157104492,truck,truck,0,0693_ske_s04_0_truck_00_truck-0076-sketch-30.png
subject-04,1,694,0.802161931991577,knife,knife,0,0694_ske_s04_0_knife_00_knife-0006-sketch-13.png
subject-04,1,695,1.01810812950134,boat,boat,0,0695_ske_s04_0_boat_00_boat-0036-sketch-40.png
subject-04,1,696,0.651864051818848,keyboard,keyboard,0,0696_ske_s04_0_keyboard_00_keyboard-0023-sketch-29.png
subject-04,1,697,0.579704999923706,oven,oven,0,0697_ske_s04_0_oven_00_oven-0035-sketch-4.png
subject-04,1,698,1.03974914550781,knife,knife,0,0698_ske_s04_0_knife_00_knife-0009-sketch-16.png
subject-04,1,699,0.695474863052368,knife,knife,0,0699_ske_s04_0_knife_00_knife-0034-sketch-39.png
subject-04,1,700,0.763701915740967,bottle,bottle,0,0700_ske_s04_0_bottle_00_bottle-0185-sketch-38.png
subject-04,1,701,0.641030073165894,bottle,bottle,0,0701_ske_s04_0_bottle_00_bottle-0189-sketch-41.png
subject-04,1,702,0.832762002944946,car,car,0,0702_ske_s04_0_car_00_car-0139-sketch-41.png
subject-04,1,703,0.688850879669189,keyboard,keyboard,0,0703_ske_s04_0_keyboard_00_keyboard-0037-sketch-41.png
subject-04,1,704,0.752317905426025,car,car,0,0704_ske_s04_0_car_00_car-0030-sketch-35.png
subject-04,1,705,0.762424945831299,bottle,bottle,0,0705_ske_s04_0_bottle_00_bottle-0330-sketch-30.png
subject-04,1,706,0.564033985137939,boat,boat,0,0706_ske_s04_0_boat_00_boat-0124-sketch-28.png
subject-04,1,707,0.634088039398193,dog,dog,0,0707_ske_s04_0_dog_00_dog-3338-sketch-40.png
subject-04,1,708,0.729696989059448,airplane,airplane,0,0708_ske_s04_0_airplane_00_airplane-0021-sketch-27.png
subject-04,1,709,0.785713195800781,oven,oven,0,0709_ske_s04_0_oven_00_oven-0030-sketch-35.png
subject-04,1,710,0.881337881088257,knife,knife,0,0710_ske_s04_0_knife_00_knife-0042-sketch-46.png
subject-04,1,711,0.711076021194458,keyboard,keyboard,0,0711_ske_s04_0_keyboard_00_keyboard-0047-sketch-50.png
subject-04,1,712,0.776899099349976,knife,knife,0,0712_ske_s04_0_knife_00_knife-0048-sketch-6.png
subject-04,1,713,0.926923990249634,knife,knife,0,0713_ske_s04_0_knife_00_knife-0025-sketch-30.png
subject-04,1,714,0.892494916915894,car,car,0,0714_ske_s04_0_car_00_car-0014-sketch-20.png
subject-04,1,715,0.836499929428101,car,truck,0,0715_ske_s04_0_truck_00_truck-0134-sketch-37.png
subject-04,1,716,0.722193002700806,bicycle,bicycle,0,0716_ske_s04_0_bicycle_00_bicycle-0037-sketch-41.png
subject-04,1,717,0.825902938842773,bottle,bottle,0,0717_ske_s04_0_bottle_00_bottle-0145-sketch-48.png
subject-04,1,718,0.827847003936768,truck,truck,0,0718_ske_s04_0_truck_00_truck-0307-sketch-0.png
subject-04,1,719,0.773547172546387,bear,bear,0,0719_ske_s04_0_bear_00_bear-0049-sketch-8.png
subject-04,1,720,0.635384082794189,chair,chair,0,0720_ske_s04_0_chair_00_chair-0124-sketch-29.png
subject-04,1,721,0.591132164001465,boat,boat,0,0721_ske_s04_0_boat_00_boat-0088-sketch-41.png
subject-04,1,722,1.332927942276,car,car,0,0722_ske_s04_0_car_00_car-0009-sketch-16.png
subject-04,1,723,0.77100396156311,bird,bird,0,0723_ske_s04_0_bird_00_bird-0415-sketch-14.png
subject-04,1,724,0.836954832077026,elephant,elephant,0,0724_ske_s04_0_elephant_00_elephant-0046-sketch-5.png
subject-04,1,725,0.686321973800659,bear,bear,0,0725_ske_s04_0_bear_00_bear-0187-sketch-4.png
subject-04,1,726,0.556219100952148,boat,boat,0,0726_ske_s04_0_boat_00_boat-0108-sketch-13.png
subject-04,1,727,0.628009080886841,car,car,0,0727_ske_s04_0_car_00_car-0034-sketch-39.png
subject-04,1,728,0.760450124740601,airplane,airplane,0,0728_ske_s04_0_airplane_00_airplane-0047-sketch-50.png
subject-04,1,729,0.69174599647522,bottle,bottle,0,0729_ske_s04_0_bottle_00_bottle-0207-sketch-11.png
subject-04,1,730,0.827511072158813,airplane,airplane,0,0730_ske_s04_0_airplane_00_airplane-0025-sketch-30.png
subject-04,1,731,0.729336977005005,car,truck,0,0731_ske_s04_0_truck_00_truck-0244-sketch-44.png
subject-04,1,732,0.575176000595093,airplane,airplane,0,0732_ske_s04_0_airplane_00_airplane-0020-sketch-26.png
subject-04,1,733,0.726976156234741,car,car,0,0733_ske_s04_0_car_00_car-0052-sketch-0.png
subject-04,1,734,0.646884918212891,chair,chair,0,0734_ske_s04_0_chair_00_chair-0125-sketch-3.png
subject-04,1,735,0.72458815574646,oven,oven,0,0735_ske_s04_0_oven_00_oven-0040-sketch-44.png
subject-04,1,736,0.836310148239136,chair,chair,0,0736_ske_s04_0_chair_00_chair-0051-sketch-9.png
subject-04,1,737,0.746693849563599,airplane,airplane,0,0737_ske_s04_0_airplane_00_airplane-0013-sketch-2.png
subject-04,1,738,0.708193063735962,bottle,bottle,0,0738_ske_s04_0_bottle_00_bottle-0038-sketch-42.png
subject-04,1,739,0.663799047470093,bicycle,bicycle,0,0739_ske_s04_0_bicycle_00_bicycle-0023-sketch-29.png
subject-04,1,740,0.633764028549194,oven,oven,0,0740_ske_s04_0_oven_00_oven-0005-sketch-12.png
subject-04,1,741,0.69343900680542,keyboard,keyboard,0,0741_ske_s04_0_keyboard_00_keyboard-0022-sketch-28.png
subject-04,1,742,0.773372888565063,elephant,elephant,0,0742_ske_s04_0_elephant_00_elephant-0044-sketch-48.png
subject-04,1,743,0.737006902694702,bird,bird,0,0743_ske_s04_0_bird_00_bird-2313-sketch-28.png
subject-04,1,744,0.788802146911621,bicycle,bicycle,0,0744_ske_s04_0_bicycle_00_bicycle-0056-sketch-12.png
subject-04,1,745,0.617182016372681,bottle,bottle,0,0745_ske_s04_0_bottle_00_bottle-0130-sketch-34.png
subject-04,1,746,0.814950942993164,elephant,elephant,0,0746_ske_s04_0_elephant_00_elephant-0065-sketch-20.png
subject-04,1,747,0.606403112411499,oven,oven,0,0747_ske_s04_0_oven_00_oven-0010-sketch-17.png
subject-04,1,748,0.600060939788818,car,car,0,0748_ske_s04_0_car_00_car-0124-sketch-28.png
subject-04,1,749,0.725908994674683,clock,clock,0,0749_ske_s04_0_clock_00_clock-0150-sketch-6.png
subject-04,1,750,0.857935905456543,dog,dog,0,0750_ske_s04_0_dog_00_dog-2541-sketch-0.png
subject-04,1,751,0.883697032928467,boat,boat,0,0751_ske_s04_0_boat_00_boat-0130-sketch-33.png
subject-04,1,752,0.61152982711792,car,car,0,0752_ske_s04_0_car_00_car-0153-sketch-9.png
subject-04,1,753,0.629101037979126,bird,bird,0,0753_ske_s04_0_bird_00_bird-0047-sketch-50.png
subject-04,1,754,0.787314891815186,bicycle,bicycle,0,0754_ske_s04_0_bicycle_00_bicycle-0083-sketch-37.png
subject-04,1,755,0.756915092468262,bird,bird,0,0755_ske_s04_0_bird_00_bird-1721-sketch-46.png
subject-04,1,756,0.670831918716431,bottle,bottle,0,0756_ske_s04_0_bottle_00_bottle-0126-sketch-30.png
subject-04,1,757,0.896453142166138,chair,chair,0,0757_ske_s04_0_chair_00_chair-0105-sketch-11.png
subject-04,1,758,0.784198999404907,truck,truck,0,0758_ske_s04_0_truck_00_truck-0050-sketch-8.png
subject-04,1,759,0.754088878631592,bird,bird,0,0759_ske_s04_0_bird_00_bird-1201-sketch-34.png
subject-04,1,760,0.740044832229614,elephant,elephant,0,0760_ske_s04_0_elephant_00_elephant-0062-sketch-18.png
subject-04,1,761,0.789638996124268,bear,bear,0,0761_ske_s04_0_bear_00_bear-0199-sketch-50.png
subject-04,1,762,0.857941150665283,bird,bird,0,0762_ske_s04_0_bird_00_bird-2312-sketch-27.png
subject-04,1,763,0.917290925979614,knife,knife,0,0763_ske_s04_0_knife_00_knife-0050-sketch-8.png
subject-04,1,764,1.00107312202454,airplane,airplane,0,0764_ske_s04_0_airplane_00_airplane-0033-sketch-38.png
subject-04,1,765,0.871370792388916,clock,clock,0,0765_ske_s04_0_clock_00_clock-0115-sketch-2.png
subject-04,1,766,0.778753042221069,bear,bear,0,0766_ske_s04_0_bear_00_bear-0079-sketch-34.png
subject-04,1,767,0.686740159988403,knife,knife,0,0767_ske_s04_0_knife_00_knife-0005-sketch-12.png
subject-04,1,768,0.640862941741943,keyboard,keyboard,0,0768_ske_s04_0_keyboard_00_keyboard-0005-sketch-12.png
subject-04,1,769,1.39432692527771,airplane,airplane,0,0769_ske_s04_0_airplane_00_airplane-0032-sketch-37.png
subject-04,1,770,0.788140058517456,clock,clock,0,0770_ske_s04_0_clock_00_clock-0071-sketch-26.png
subject-04,1,771,0.671818017959595,chair,chair,0,0771_ske_s04_0_chair_00_chair-0118-sketch-23.png
subject-04,1,772,0.625685930252075,oven,oven,0,0772_ske_s04_0_oven_00_oven-0032-sketch-37.png
subject-04,1,773,0.671386957168579,bear,dog,0,0773_ske_s04_0_dog_00_dog-3915-sketch-0.png
subject-04,1,774,0.727441072463989,dog,dog,0,0774_ske_s04_0_dog_00_dog-1711-sketch-40.png
subject-04,1,775,0.745005130767822,oven,oven,0,0775_ske_s04_0_oven_00_oven-0042-sketch-46.png
subject-04,1,776,0.657310962677002,oven,oven,0,0776_ske_s04_0_oven_00_oven-0033-sketch-38.png
subject-04,1,777,0.822589874267578,airplane,airplane,0,0777_ske_s04_0_airplane_00_airplane-0024-sketch-3.png
subject-04,1,778,0.800398111343384,car,car,0,0778_ske_s04_0_car_00_car-0018-sketch-24.png
subject-04,1,779,0.576251983642578,oven,oven,0,0779_ske_s04_0_oven_00_oven-0043-sketch-47.png
subject-04,1,780,0.640260934829712,airplane,airplane,0,0780_ske_s04_0_airplane_00_airplane-0046-sketch-5.png
subject-04,1,781,0.572074890136719,car,truck,0,0781_ske_s04_0_truck_00_truck-0221-sketch-23.png
subject-04,1,782,0.867954969406128,truck,truck,0,0782_ske_s04_0_truck_00_truck-0192-sketch-43.png
subject-04,1,783,0.531718969345093,boat,boat,0,0783_ske_s04_0_boat_00_boat-0233-sketch-34.png
subject-04,1,784,0.597625970840454,bird,bird,0,0784_ske_s04_0_bird_00_bird-0880-sketch-2.png
subject-04,1,785,0.779766082763672,car,truck,0,0785_ske_s04_0_truck_00_truck-0302-sketch-50.png
subject-04,1,786,0.761193990707397,bicycle,bicycle,0,0786_ske_s04_0_bicycle_00_bicycle-0044-sketch-48.png
subject-04,1,787,0.685055017471313,keyboard,keyboard,0,0787_ske_s04_0_keyboard_00_keyboard-0064-sketch-2.png
subject-04,1,788,0.954596042633057,bicycle,bicycle,0,0788_ske_s04_0_bicycle_00_bicycle-0011-sketch-18.png
subject-04,1,789,0.984663009643555,bear,bear,0,0789_ske_s04_0_bear_00_bear-0070-sketch-26.png
subject-04,1,790,0.644171953201294,clock,clock,0,0790_ske_s04_0_clock_00_clock-0007-sketch-14.png
subject-04,1,791,0.804172039031982,elephant,elephant,0,0791_ske_s04_0_elephant_00_elephant-0028-sketch-33.png
subject-04,1,792,0.774003982543945,chair,chair,0,0792_ske_s04_0_chair_00_chair-0034-sketch-39.png
subject-04,1,793,0.865764856338501,dog,cat,0,0793_ske_s04_0_cat_00_cat-0250-sketch-50.png
subject-04,1,794,0.713454961776733,keyboard,keyboard,0,0794_ske_s04_0_keyboard_00_keyboard-0038-sketch-42.png
subject-04,1,795,0.583373069763184,clock,clock,0,0795_ske_s04_0_clock_00_clock-0110-sketch-15.png
subject-04,1,796,0.855385065078735,keyboard,keyboard,0,0796_ske_s04_0_keyboard_00_keyboard-0098-sketch-50.png
subject-04,1,797,1.19289398193359,chair,chair,0,0797_ske_s04_0_chair_00_chair-0167-sketch-21.png
subject-04,1,798,0.80284595489502,chair,chair,0,0798_ske_s04_0_chair_00_chair-0130-sketch-34.png
subject-04,1,799,0.688586950302124,truck,truck,0,0799_ske_s04_0_truck_00_truck-0342-sketch-40.png
subject-04,1,800,0.642479181289673,elephant,elephant,0,0800_ske_s04_0_elephant_00_elephant-0058-sketch-14.png
