subj,Session,trial,rt,object_response,category,condition,imagename
subject-01,1,1,0.813569068908691,oven,elephant,0.03,0001_nse_s01_0.03_elephant_10_n02504458_7209.png
subject-01,1,2,1.35376286506653,clock,knife,0.90,0002_nse_s01_0.90_knife_10_n03041632_82878.png
subject-01,1,3,0.961318016052246,clock,clock,0.00,0003_nse_s01_0.00_clock_10_n03196217_9231.png
subject-01,1,4,1.50005984306335,bird,oven,0.00,0004_nse_s01_0.00_oven_10_n04111531_11026.png
subject-01,1,5,0.697139024734497,clock,clock,0.10,0005_nse_s01_0.10_clock_10_n04548280_1114.png
subject-01,1,6,1.50004196166992,clock,clock,0.03,0006_nse_s01_0.03_clock_10_n02708093_8100.png
subject-01,1,7,0.736618041992188,clock,clock,0.00,0007_nse_s01_0.00_clock_10_n02708093_3591.png
subject-01,1,8,1.01249003410339,bird,chair,0.00,0008_nse_s01_0.00_chair_10_n03376595_16202.png
subject-01,1,9,1.40018796920776,keyboard,bottle,0.60,0009_nse_s01_0.60_bottle_10_n02823428_3478.png
subject-01,1,10,0.786020040512085,boat,dog,0.10,0010_nse_s01_0.10_dog_10_n02087394_28673.png
subject-01,1,11,1.49376606941223,dog,chair,0.10,0011_nse_s01_0.10_chair_10_n04099969_1690.png
subject-01,1,12,1.38167691230774,dog,cat,0.03,0012_nse_s01_0.03_cat_10_n02125311_1736.png
subject-01,1,13,1.16337299346924,cat,bear,0.90,0013_nse_s01_0.90_bear_10_n02133161_1169.png
subject-01,1,14,1.20333504676819,airplane,bear,0.90,0014_nse_s01_0.90_bear_10_n02133161_8835.png
subject-01,1,15,1.13919711112976,car,car,0.20,0015_nse_s01_0.20_car_10_n02814533_5430.png
subject-01,1,16,1.34903597831726,knife,bear,0.60,0016_nse_s01_0.60_bear_10_n02134418_3767.png
subject-01,1,17,1.50003218650818,bottle,knife,0.20,0017_nse_s01_0.20_knife_10_n03041632_10540.png
subject-01,1,18,0.798756122589111,bicycle,bicycle,0.20,0018_nse_s01_0.20_bicycle_10_n02835271_1075.png
subject-01,1,19,0.946529865264893,bear,bear,0.00,0019_nse_s01_0.00_bear_10_n02134084_3888.png
subject-01,1,20,1.38629579544067,dog,dog,0.00,0020_nse_s01_0.00_dog_10_n02085936_9009.png
subject-01,1,21,0.934198141098022,knife,knife,0.03,0021_nse_s01_0.03_knife_10_n03041632_12651.png
subject-01,1,22,1.17387199401855,cat,bicycle,0.35,0022_nse_s01_0.35_bicycle_10_n03792782_565.png
subject-01,1,23,0.839622974395752,boat,boat,0.20,0023_nse_s01_0.20_boat_10_n04612504_40672.png
subject-01,1,24,1.2958300113678,chair,dog,0.05,0024_nse_s01_0.05_dog_10_n02098105_146.png
subject-01,1,25,1.05920600891113,clock,clock,0.03,0025_nse_s01_0.03_clock_10_n02708093_5944.png
subject-01,1,26,0.645402908325195,cat,cat,0.03,0026_nse_s01_0.03_cat_10_n02124075_14021.png
subject-01,1,27,0.984809160232544,bear,bear,0.20,0027_nse_s01_0.20_bear_10_n02133161_7184.png
subject-01,1,28,1.22706699371338,bottle,bottle,0.00,0028_nse_s01_0.00_bottle_10_n03937543_9745.png
subject-01,1,29,1.34845089912415,boat,airplane,0.60,0029_nse_s01_0.60_airplane_10_n02690373_9605.png
subject-01,1,30,0.920403957366943,cat,cat,0.20,0030_nse_s01_0.20_cat_10_n02123045_7167.png
subject-01,1,31,0.824434995651245,airplane,airplane,0.05,0031_nse_s01_0.05_airplane_10_n02690373_4706.png
subject-01,1,32,1.47996091842651,keyboard,knife,0.35,0032_nse_s01_0.35_knife_10_n03041632_45270.png
subject-01,1,33,0.751721858978271,oven,dog,0.35,0033_nse_s01_0.35_dog_10_n02105855_9326.png
subject-01,1,34,0.975621938705444,dog,bear,0.10,0034_nse_s01_0.10_bear_10_n02134418_4349.png
subject-01,1,35,0.753501176834106,cat,cat,0.00,0035_nse_s01_0.00_cat_10_n02123159_469.png
subject-01,1,36,0.757063865661621,cat,truck,0.90,0036_nse_s01_0.90_truck_10_n03417042_5004.png
subject-01,1,37,0.742856025695801,bird,bird,0.10,0037_nse_s01_0.10_bird_10_n02051845_6333.png
subject-01,1,38,0.864983797073364,bear,clock,0.90,0038_nse_s01_0.90_clock_10_n03196217_12701.png
subject-01,1,39,1.04253792762756,cat,chair,0.60,0039_nse_s01_0.60_chair_10_n03376595_12341.png
subject-01,1,40,1.03241300582886,bicycle,bicycle,0.10,0040_nse_s01_0.10_bicycle_10_n03792782_66837.png
subject-01,1,41,0.856250047683716,bicycle,bicycle,0.05,0041_nse_s01_0.05_bicycle_10_n02835271_20177.png
subject-01,1,42,1.12213802337646,cat,knife,0.00,0042_nse_s01_0.00_knife_10_n03041632_22330.png
subject-01,1,43,0.885982990264893,bottle,cat,0.60,0043_nse_s01_0.60_cat_10_n02123045_5913.png
subject-01,1,44,1.50006794929504,elephant,elephant,0.20,0044_nse_s01_0.20_elephant_10_n02504013_2464.png
subject-01,1,45,NaN,na,knife,0.90,0045_nse_s01_0.90_knife_10_n03041632_99460.png
subject-01,1,46,1.25932288169861,bear,dog,0.00,0046_nse_s01_0.00_dog_10_n02099601_8686.png
subject-01,1,47,0.849417924880981,dog,chair,0.90,0047_nse_s01_0.90_chair_10_n02791124_5400.png
subject-01,1,48,1.12122488021851,chair,chair,0.05,0048_nse_s01_0.05_chair_10_n03376595_830.png
subject-01,1,49,0.72102689743042,cat,cat,0.90,0049_nse_s01_0.90_cat_10_n02124075_6024.png
subject-01,1,50,0.708884954452515,bicycle,bicycle,0.10,0050_nse_s01_0.10_bicycle_10_n03792782_9004.png
subject-01,1,51,0.926256895065308,oven,keyboard,0.60,0051_nse_s01_0.60_keyboard_10_n03085013_24088.png
subject-01,1,52,1.18816614151001,dog,cat,0.10,0052_nse_s01_0.10_cat_10_n02125311_33778.png
subject-01,1,53,0.787989854812622,bicycle,bicycle,0.00,0053_nse_s01_0.00_bicycle_10_n03792782_7092.png
subject-01,1,54,1.0440628528595,car,airplane,0.35,0054_nse_s01_0.35_airplane_10_n02690373_5724.png
subject-01,1,55,1.09354710578918,cat,bear,0.60,0055_nse_s01_0.60_bear_10_n02133161_5637.png
subject-01,1,56,0.811491012573242,bear,bear,0.10,0056_nse_s01_0.10_bear_10_n02132136_5365.png
subject-01,1,57,1.07516288757324,car,car,0.35,0057_nse_s01_0.35_car_10_n03100240_1702.png
subject-01,1,58,1.02743697166443,truck,oven,0.35,0058_nse_s01_0.35_oven_10_n04111531_2677.png
subject-01,1,59,1.15074396133423,keyboard,oven,0.05,0059_nse_s01_0.05_oven_10_n04111531_16583.png
subject-01,1,60,0.974756002426147,chair,chair,0.10,0060_nse_s01_0.10_chair_10_n04099969_6266.png
subject-01,1,61,0.902400970458984,boat,oven,0.60,0061_nse_s01_0.60_oven_10_n04111531_6695.png
subject-01,1,62,1.06423592567444,car,car,0.10,0062_nse_s01_0.10_car_10_n03100240_1438.png
subject-01,1,63,1.0740978717804,bottle,keyboard,0.20,0063_nse_s01_0.20_keyboard_10_n04505470_4684.png
subject-01,1,64,0.789834022521973,chair,chair,0.00,0064_nse_s01_0.00_chair_10_n04099969_8021.png
subject-01,1,65,0.93569803237915,car,car,0.20,0065_nse_s01_0.20_car_10_n04285008_7139.png
subject-01,1,66,0.847582101821899,truck,truck,0.03,0066_nse_s01_0.03_truck_10_n03796401_9207.png
subject-01,1,67,1.05541706085205,bottle,bottle,0.05,0067_nse_s01_0.05_bottle_10_n04560804_3651.png
subject-01,1,68,1.30304288864136,dog,chair,0.60,0068_nse_s01_0.60_chair_10_n03376595_3010.png
subject-01,1,69,0.713109970092773,bear,bird,0.90,0069_nse_s01_0.90_bird_10_n01514859_1951.png
subject-01,1,70,0.8768150806427,car,car,0.10,0070_nse_s01_0.10_car_10_n03100240_4594.png
subject-01,1,71,1.32084989547729,airplane,clock,0.35,0071_nse_s01_0.35_clock_10_n03196217_3333.png
subject-01,1,72,0.87839412689209,car,car,0.10,0072_nse_s01_0.10_car_10_n02814533_90798.png
subject-01,1,73,0.671966075897217,keyboard,keyboard,0.00,0073_nse_s01_0.00_keyboard_10_n03085013_19547.png
subject-01,1,74,1.04642701148987,bird,bear,0.05,0074_nse_s01_0.05_bear_10_n02133161_545.png
subject-01,1,75,0.829869031906128,bicycle,oven,0.90,0075_nse_s01_0.90_oven_10_n04111531_6489.png
subject-01,1,76,NaN,na,dog,0.90,0076_nse_s01_0.90_dog_10_n02105056_15299.png
subject-01,1,77,1.12537789344788,bottle,knife,0.05,0077_nse_s01_0.05_knife_10_n03041632_33255.png
subject-01,1,78,1.41131782531738,bear,cat,0.20,0078_nse_s01_0.20_cat_10_n02123394_5895.png
subject-01,1,79,0.860981941223145,bottle,bottle,0.03,0079_nse_s01_0.03_bottle_10_n03983396_11654.png
subject-01,1,80,0.600850105285645,airplane,airplane,0.03,0080_nse_s01_0.03_airplane_10_n02690373_3860.png
subject-01,1,81,1.33724880218506,keyboard,oven,0.03,0081_nse_s01_0.03_oven_10_n04111531_6415.png
subject-01,1,82,1.20112109184265,knife,knife,0.60,0082_nse_s01_0.60_knife_10_n03041632_39342.png
subject-01,1,83,0.957047939300537,bear,bear,0.60,0083_nse_s01_0.60_bear_10_n02133161_4882.png
subject-01,1,84,1.29062294960022,clock,bottle,0.00,0084_nse_s01_0.00_bottle_10_n04591713_7474.png
subject-01,1,85,0.740609884262085,bear,bear,0.20,0085_nse_s01_0.20_bear_10_n02132136_17615.png
subject-01,1,86,0.844300985336304,cat,boat,0.60,0086_nse_s01_0.60_boat_10_n03344393_382.png
subject-01,1,87,0.882228136062622,truck,truck,0.00,0087_nse_s01_0.00_truck_10_n03796401_27811.png
subject-01,1,88,1.11009097099304,car,keyboard,0.60,0088_nse_s01_0.60_keyboard_10_n04505470_2603.png
subject-01,1,89,0.940201044082642,clock,boat,0.35,0089_nse_s01_0.35_boat_10_n03662601_16418.png
subject-01,1,90,0.741729974746704,bear,bear,0.35,0090_nse_s01_0.35_bear_10_n02132136_2760.png
subject-01,1,91,0.927834987640381,bicycle,bicycle,0.05,0091_nse_s01_0.05_bicycle_10_n02835271_10271.png
subject-01,1,92,0.8852379322052,bear,bear,0.10,0092_nse_s01_0.10_bear_10_n02134084_9127.png
subject-01,1,93,0.829092979431152,cat,bird,0.20,0093_nse_s01_0.20_bird_10_n01797886_551.png
subject-01,1,94,0.896988868713379,truck,truck,0.10,0094_nse_s01_0.10_truck_10_n03417042_9559.png
subject-01,1,95,0.73663592338562,keyboard,clock,0.90,0095_nse_s01_0.90_clock_10_n02708093_3114.png
subject-01,1,96,0.982485055923462,bicycle,bicycle,0.05,0096_nse_s01_0.05_bicycle_10_n03792782_122.png
subject-01,1,97,0.752338886260986,cat,oven,0.35,0097_nse_s01_0.35_oven_10_n04111531_3702.png
subject-01,1,98,0.992169857025146,dog,car,0.90,0098_nse_s01_0.90_car_10_n02814533_93476.png
subject-01,1,99,1.13380408287048,bicycle,cat,0.35,0099_nse_s01_0.35_cat_10_n02123045_8491.png
subject-01,1,100,0.94980788230896,bottle,chair,0.35,0100_nse_s01_0.35_chair_10_n02791124_13469.png
subject-01,1,101,0.716030120849609,cat,dog,0.60,0101_nse_s01_0.60_dog_10_n02096294_5451.png
subject-01,1,102,1.39536285400391,elephant,bicycle,0.35,0102_nse_s01_0.35_bicycle_10_n03792782_44296.png
subject-01,1,103,1.06319093704224,oven,cat,0.90,0103_nse_s01_0.90_cat_10_n02123597_7138.png
subject-01,1,104,1.31708407402039,boat,bottle,0.35,0104_nse_s01_0.35_bottle_10_n04560804_12736.png
subject-01,1,105,0.922944068908691,truck,oven,0.60,0105_nse_s01_0.60_oven_10_n04111531_22797.png
subject-01,1,106,0.928695917129517,cat,bird,0.10,0106_nse_s01_0.10_bird_10_n02007558_7446.png
subject-01,1,107,1.07252788543701,airplane,boat,0.60,0107_nse_s01_0.60_boat_10_n03662601_16441.png
subject-01,1,108,0.862340927124023,car,oven,0.60,0108_nse_s01_0.60_oven_10_n04111531_22386.png
subject-01,1,109,0.632046937942505,airplane,airplane,0.00,0109_nse_s01_0.00_airplane_10_n02690373_1381.png
subject-01,1,110,1.50006699562073,bird,keyboard,0.20,0110_nse_s01_0.20_keyboard_10_n03085013_20779.png
subject-01,1,111,1.19389009475708,knife,dog,0.90,0111_nse_s01_0.90_dog_10_n02095570_9488.png
subject-01,1,112,0.853425979614258,dog,dog,0.03,0112_nse_s01_0.03_dog_10_n02107312_3262.png
subject-01,1,113,0.911324977874756,cat,oven,0.03,0113_nse_s01_0.03_oven_10_n04111531_10681.png
subject-01,1,114,0.627026081085205,boat,knife,0.90,0114_nse_s01_0.90_knife_10_n03041632_29285.png
subject-01,1,115,1.38898587226868,dog,elephant,0.60,0115_nse_s01_0.60_elephant_10_n02504458_4776.png
subject-01,1,116,0.884865999221802,bear,boat,0.10,0116_nse_s01_0.10_boat_10_n04273569_11940.png
subject-01,1,117,0.67043399810791,cat,cat,0.20,0117_nse_s01_0.20_cat_10_n02123159_1413.png
subject-01,1,118,0.676455974578857,oven,airplane,0.60,0118_nse_s01_0.60_airplane_10_n02690373_6674.png
subject-01,1,119,1.43017292022705,oven,clock,0.35,0119_nse_s01_0.35_clock_10_n04548280_5088.png
subject-01,1,120,1.03393983840942,bicycle,clock,0.05,0120_nse_s01_0.05_clock_10_n02708093_6624.png
subject-01,1,121,1.00776314735413,bicycle,bicycle,0.20,0121_nse_s01_0.20_bicycle_10_n03792782_29108.png
subject-01,1,122,0.943970918655396,clock,clock,0.20,0122_nse_s01_0.20_clock_10_n04548280_8649.png
subject-01,1,123,0.949406147003174,knife,knife,0.05,0123_nse_s01_0.05_knife_10_n03041632_737.png
subject-01,1,124,0.745344161987305,clock,clock,0.10,0124_nse_s01_0.10_clock_10_n04548280_8668.png
subject-01,1,125,0.795151948928833,bird,bird,0.03,0125_nse_s01_0.03_bird_10_n01558993_34885.png
subject-01,1,126,0.940936088562012,car,truck,0.60,0126_nse_s01_0.60_truck_10_n04467665_37833.png
subject-01,1,127,0.802582025527954,boat,boat,0.05,0127_nse_s01_0.05_boat_10_n03662601_5176.png
subject-01,1,128,1.31842494010925,chair,chair,0.00,0128_nse_s01_0.00_chair_10_n03376595_9139.png
subject-01,1,129,1.19816899299622,keyboard,oven,0.90,0129_nse_s01_0.90_oven_10_n04111531_6211.png
subject-01,1,130,0.694272041320801,boat,boat,0.00,0130_nse_s01_0.00_boat_10_n04273569_11427.png
subject-01,1,131,0.737852811813354,bicycle,bicycle,0.05,0131_nse_s01_0.05_bicycle_10_n03792782_17198.png
subject-01,1,132,0.899688959121704,clock,clock,0.00,0132_nse_s01_0.00_clock_10_n04548280_4560.png
subject-01,1,133,1.23951697349548,knife,knife,0.03,0133_nse_s01_0.03_knife_10_n03041632_3781.png
subject-01,1,134,1.49576878547668,chair,clock,0.10,0134_nse_s01_0.10_clock_10_n03196217_958.png
subject-01,1,135,0.955179929733276,elephant,elephant,0.35,0135_nse_s01_0.35_elephant_10_n02504458_485.png
subject-01,1,136,1.17899298667908,clock,clock,0.00,0136_nse_s01_0.00_clock_10_n02708093_1038.png
subject-01,1,137,0.745201110839844,oven,oven,0.03,0137_nse_s01_0.03_oven_10_n04111531_1723.png
subject-01,1,138,0.82088303565979,cat,dog,0.03,0138_nse_s01_0.03_dog_10_n02110806_27169.png
subject-01,1,139,0.856545925140381,airplane,airplane,0.00,0139_nse_s01_0.00_airplane_10_n02690373_12505.png
subject-01,1,140,0.804257154464722,bird,bird,0.60,0140_nse_s01_0.60_bird_10_n01828970_454.png
subject-01,1,141,0.643977165222168,oven,oven,0.20,0141_nse_s01_0.20_oven_10_n04111531_15635.png
subject-01,1,142,1.02814817428589,bicycle,car,0.00,0142_nse_s01_0.00_car_10_n04285008_8700.png
subject-01,1,143,0.875818014144897,keyboard,keyboard,0.05,0143_nse_s01_0.05_keyboard_10_n04505470_4592.png
subject-01,1,144,0.98935604095459,boat,boat,0.20,0144_nse_s01_0.20_boat_10_n03344393_9560.png
subject-01,1,145,1.46324610710144,cat,bear,0.00,0145_nse_s01_0.00_bear_10_n02132136_5138.png
subject-01,1,146,0.673097848892212,bird,chair,0.60,0146_nse_s01_0.60_chair_10_n03376595_591.png
subject-01,1,147,1.16905808448792,car,keyboard,0.90,0147_nse_s01_0.90_keyboard_10_n03085013_20590.png
subject-01,1,148,1.23870897293091,cat,dog,0.35,0148_nse_s01_0.35_dog_10_n02094258_1224.png
subject-01,1,149,1.11039781570435,clock,clock,0.20,0149_nse_s01_0.20_clock_10_n03196217_4486.png
subject-01,1,150,1.28024101257324,cat,bear,0.20,0150_nse_s01_0.20_bear_10_n02134084_22150.png
subject-01,1,151,0.648171186447144,cat,cat,0.10,0151_nse_s01_0.10_cat_10_n02123045_3098.png
subject-01,1,152,0.781951189041138,bear,bear,0.20,0152_nse_s01_0.20_bear_10_n02134418_271.png
subject-01,1,153,1.34172701835632,bear,oven,0.05,0153_nse_s01_0.05_oven_10_n04111531_274.png
subject-01,1,154,0.945786952972412,bear,knife,0.35,0154_nse_s01_0.35_knife_10_n03041632_8563.png
subject-01,1,155,0.937541961669922,car,car,0.00,0155_nse_s01_0.00_car_10_n02814533_52389.png
subject-01,1,156,0.791295051574707,keyboard,airplane,0.00,0156_nse_s01_0.00_airplane_10_n02690373_10455.png
subject-01,1,157,1.23905992507935,bear,truck,0.35,0157_nse_s01_0.35_truck_10_n04467665_4810.png
subject-01,1,158,0.900835990905762,knife,knife,0.10,0158_nse_s01_0.10_knife_10_n03041632_3159.png
subject-01,1,159,NaN,na,cat,0.05,0159_nse_s01_0.05_cat_10_n02123597_13411.png
subject-01,1,160,0.814430952072144,bird,clock,0.10,0160_nse_s01_0.10_clock_10_n04548280_2654.png
subject-01,1,161,0.761445999145508,oven,elephant,0.90,0161_nse_s01_0.90_elephant_10_n02504013_405.png
subject-01,1,162,1.00127911567688,car,bottle,0.05,0162_nse_s01_0.05_bottle_10_n04560804_14729.png
subject-01,1,163,1.13692903518677,airplane,bottle,0.90,0163_nse_s01_0.90_bottle_10_n02823428_5482.png
subject-01,1,164,0.890887975692749,boat,keyboard,0.90,0164_nse_s01_0.90_keyboard_10_n04505470_4824.png
subject-01,1,165,1.10060214996338,oven,chair,0.20,0165_nse_s01_0.20_chair_10_n04099969_14208.png
subject-01,1,166,0.832318067550659,elephant,elephant,0.00,0166_nse_s01_0.00_elephant_10_n02504013_1647.png
subject-01,1,167,0.750224113464355,bear,cat,0.20,0167_nse_s01_0.20_cat_10_n02123597_11564.png
subject-01,1,168,0.925940036773682,boat,car,0.35,0168_nse_s01_0.35_car_10_n03100240_16653.png
subject-01,1,169,0.901992082595825,oven,oven,0.00,0169_nse_s01_0.00_oven_10_n04111531_9611.png
subject-01,1,170,1.12382316589355,oven,car,0.05,0170_nse_s01_0.05_car_10_n02814533_35054.png
subject-01,1,171,0.729696035385132,bear,oven,0.20,0171_nse_s01_0.20_oven_10_n04111531_3121.png
subject-01,1,172,1.40930795669556,boat,chair,0.20,0172_nse_s01_0.20_chair_10_n02791124_4969.png
subject-01,1,173,0.703163862228394,car,car,0.20,0173_nse_s01_0.20_car_10_n02814533_211.png
subject-01,1,174,0.92709493637085,dog,dog,0.00,0174_nse_s01_0.00_dog_10_n02091244_13118.png
subject-01,1,175,1.31298494338989,bottle,bottle,0.10,0175_nse_s01_0.10_bottle_10_n04560804_3597.png
subject-01,1,176,1.24106597900391,elephant,bottle,0.60,0176_nse_s01_0.60_bottle_10_n04560804_30885.png
subject-01,1,177,0.924252986907959,airplane,bottle,0.60,0177_nse_s01_0.60_bottle_10_n04560804_9813.png
subject-01,1,178,0.996241092681885,bear,boat,0.35,0178_nse_s01_0.35_boat_10_n02951358_10003.png
subject-01,1,179,0.743985891342163,cat,bear,0.35,0179_nse_s01_0.35_bear_10_n02133161_1500.png
subject-01,1,180,0.895992040634155,oven,oven,0.20,0180_nse_s01_0.20_oven_10_n04111531_4467.png
subject-01,1,181,0.72770094871521,clock,clock,0.20,0181_nse_s01_0.20_clock_10_n02708093_8002.png
subject-01,1,182,1.05346894264221,knife,boat,0.90,0182_nse_s01_0.90_boat_10_n02951358_34261.png
subject-01,1,183,0.925143957138062,boat,boat,0.00,0183_nse_s01_0.00_boat_10_n04612504_20067.png
subject-01,1,184,1.50011491775513,bear,clock,0.35,0184_nse_s01_0.35_clock_10_n03196217_6163.png
subject-01,1,185,1.31485605239868,keyboard,keyboard,0.03,0185_nse_s01_0.03_keyboard_10_n03085013_23119.png
subject-01,1,186,0.716838836669922,bird,clock,0.60,0186_nse_s01_0.60_clock_10_n04548280_4358.png
subject-01,1,187,1.50002789497375,cat,dog,0.05,0187_nse_s01_0.05_dog_10_n02101388_2968.png
subject-01,1,188,1.14225006103516,keyboard,oven,0.10,0188_nse_s01_0.10_oven_10_n04111531_8081.png
subject-01,1,189,1.00609397888184,keyboard,keyboard,0.05,0189_nse_s01_0.05_keyboard_10_n04505470_4994.png
subject-01,1,190,1.14790797233582,dog,dog,0.10,0190_nse_s01_0.10_dog_10_n02101006_16132.png
subject-01,1,191,0.809612989425659,elephant,elephant,0.10,0191_nse_s01_0.10_elephant_10_n02504458_6888.png
subject-01,1,192,0.961491823196411,bird,bird,0.60,0192_nse_s01_0.60_bird_10_n02018207_43958.png
subject-01,1,193,0.709239959716797,cat,cat,0.03,0193_nse_s01_0.03_cat_10_n02123045_2719.png
subject-01,1,194,0.835102081298828,keyboard,keyboard,0.05,0194_nse_s01_0.05_keyboard_10_n03085013_5611.png
subject-01,1,195,0.831048011779785,clock,boat,0.03,0195_nse_s01_0.03_boat_10_n03344393_6892.png
subject-01,1,196,1.09666585922241,knife,chair,0.90,0196_nse_s01_0.90_chair_10_n02791124_5411.png
subject-01,1,197,1.00073885917664,elephant,elephant,0.05,0197_nse_s01_0.05_elephant_10_n02504013_8391.png
subject-01,1,198,0.808391094207764,car,chair,0.60,0198_nse_s01_0.60_chair_10_n02791124_7167.png
subject-01,1,199,1.02840995788574,truck,truck,0.10,0199_nse_s01_0.10_truck_10_n03417042_2170.png
subject-01,1,200,0.81801700592041,chair,chair,0.35,0200_nse_s01_0.35_chair_10_n04099969_2109.png
subject-01,1,201,1.18982410430908,elephant,chair,0.90,0201_nse_s01_0.90_chair_10_n04429376_7321.png
subject-01,1,202,0.761634111404419,boat,airplane,0.35,0202_nse_s01_0.35_airplane_10_n02690373_1733.png
subject-01,1,203,1.04159498214722,cat,bird,0.10,0203_nse_s01_0.10_bird_10_n02006656_5719.png
subject-01,1,204,0.881257057189941,bicycle,bicycle,0.03,0204_nse_s01_0.03_bicycle_10_n03792782_12354.png
subject-01,1,205,0.736985206604004,bottle,bottle,0.03,0205_nse_s01_0.03_bottle_10_n04557648_12671.png
subject-01,1,206,0.906955003738403,elephant,elephant,0.05,0206_nse_s01_0.05_elephant_10_n02504013_318.png
subject-01,1,207,0.755059957504272,bird,boat,0.90,0207_nse_s01_0.90_boat_10_n04273569_16078.png
subject-01,1,208,1.12448287010193,oven,cat,0.03,0208_nse_s01_0.03_cat_10_n02123597_9664.png
subject-01,1,209,0.784472227096558,clock,clock,0.35,0209_nse_s01_0.35_clock_10_n04548280_4113.png
subject-01,1,210,1.1960711479187,cat,keyboard,0.60,0210_nse_s01_0.60_keyboard_10_n03085013_20363.png
subject-01,1,211,0.880433082580566,truck,truck,0.03,0211_nse_s01_0.03_truck_10_n04467665_67908.png
subject-01,1,212,1.38772201538086,keyboard,truck,0.90,0212_nse_s01_0.90_truck_10_n04467665_61522.png
subject-01,1,213,0.881722927093506,bird,cat,0.90,0213_nse_s01_0.90_cat_10_n02123045_3648.png
subject-01,1,214,1.50007510185242,bear,dog,0.60,0214_nse_s01_0.60_dog_10_n02107574_3685.png
subject-01,1,215,0.961187124252319,elephant,dog,0.20,0215_nse_s01_0.20_dog_10_n02100236_4048.png
subject-01,1,216,1.10114407539368,bear,bear,0.35,0216_nse_s01_0.35_bear_10_n02134418_5073.png
subject-01,1,217,1.1208701133728,knife,airplane,0.90,0217_nse_s01_0.90_airplane_10_n02690373_9012.png
subject-01,1,218,0.718698978424072,cat,cat,0.35,0218_nse_s01_0.35_cat_10_n02123159_6439.png
subject-01,1,219,0.910668849945068,bear,cat,0.60,0219_nse_s01_0.60_cat_10_n02125311_3616.png
subject-01,1,220,0.750496864318848,elephant,bottle,0.60,0220_nse_s01_0.60_bottle_10_n04557648_4356.png
subject-01,1,221,0.886214017868042,bird,bird,0.35,0221_nse_s01_0.35_bird_10_n02027492_6813.png
subject-01,1,222,1.08795690536499,chair,chair,0.03,0222_nse_s01_0.03_chair_10_n04429376_26765.png
subject-01,1,223,0.842006921768188,elephant,elephant,0.35,0223_nse_s01_0.35_elephant_10_n02504458_4811.png
subject-01,1,224,0.91964316368103,keyboard,keyboard,0.20,0224_nse_s01_0.20_keyboard_10_n04505470_1351.png
subject-01,1,225,0.729286909103394,chair,chair,0.05,0225_nse_s01_0.05_chair_10_n04099969_2532.png
subject-01,1,226,1.38708996772766,boat,airplane,0.10,0226_nse_s01_0.10_airplane_10_n02690373_8547.png
subject-01,1,227,1.43096685409546,dog,truck,0.35,0227_nse_s01_0.35_truck_10_n03417042_23445.png
subject-01,1,228,0.982746124267578,car,truck,0.90,0228_nse_s01_0.90_truck_10_n04467665_48953.png
subject-01,1,229,1.40092611312866,boat,boat,0.20,0229_nse_s01_0.20_boat_10_n03662601_11739.png
subject-01,1,230,0.770409107208252,cat,cat,0.03,0230_nse_s01_0.03_cat_10_n02123597_4948.png
subject-01,1,231,0.752342939376831,oven,oven,0.35,0231_nse_s01_0.35_oven_10_n04111531_9411.png
subject-01,1,232,0.668379068374634,bear,bicycle,0.60,0232_nse_s01_0.60_bicycle_10_n03792782_988.png
subject-01,1,233,1.00197315216064,car,car,0.05,0233_nse_s01_0.05_car_10_n02814533_65294.png
subject-01,1,234,0.719989061355591,bottle,bottle,0.00,0234_nse_s01_0.00_bottle_10_n04557648_10420.png
subject-01,1,235,1.12951278686523,truck,chair,0.60,0235_nse_s01_0.60_chair_10_n04099969_33329.png
subject-01,1,236,1.00353598594666,dog,oven,0.35,0236_nse_s01_0.35_oven_10_n04111531_20493.png
subject-01,1,237,0.655097007751465,clock,clock,0.10,0237_nse_s01_0.10_clock_10_n04548280_7839.png
subject-01,1,238,0.776980876922607,airplane,airplane,0.20,0238_nse_s01_0.20_airplane_10_n02690373_7229.png
subject-01,1,239,1.00097179412842,airplane,airplane,0.10,0239_nse_s01_0.10_airplane_10_n02690373_5003.png
subject-01,1,240,1.19454097747803,chair,chair,0.20,0240_nse_s01_0.20_chair_10_n02791124_206.png
subject-01,1,241,1.18709492683411,keyboard,oven,0.00,0241_nse_s01_0.00_oven_10_n04111531_7283.png
subject-01,1,242,0.64490008354187,cat,chair,0.35,0242_nse_s01_0.35_chair_10_n04429376_8124.png
subject-01,1,243,0.724855184555054,keyboard,keyboard,0.00,0243_nse_s01_0.00_keyboard_10_n04505470_3864.png
subject-01,1,244,1.4504930973053,cat,bottle,0.35,0244_nse_s01_0.35_bottle_10_n03937543_3289.png
subject-01,1,245,0.750527143478394,bottle,boat,0.10,0245_nse_s01_0.10_boat_10_n03344393_5207.png
subject-01,1,246,0.646251916885376,clock,airplane,0.90,0246_nse_s01_0.90_airplane_10_n02690373_629.png
subject-01,1,247,0.886131048202515,elephant,elephant,0.03,0247_nse_s01_0.03_elephant_10_n02504013_104.png
subject-01,1,248,0.924276828765869,bicycle,bicycle,0.03,0248_nse_s01_0.03_bicycle_10_n03792782_42626.png
subject-01,1,249,0.763618946075439,bear,truck,0.35,0249_nse_s01_0.35_truck_10_n03417042_6847.png
subject-01,1,250,1.17331099510193,bicycle,chair,0.10,0250_nse_s01_0.10_chair_10_n04429376_23573.png
subject-01,1,251,1.1713559627533,clock,clock,0.03,0251_nse_s01_0.03_clock_10_n03196217_7637.png
subject-01,1,252,1.01312708854675,airplane,airplane,0.05,0252_nse_s01_0.05_airplane_10_n02690373_932.png
subject-01,1,253,0.939270973205566,truck,truck,0.05,0253_nse_s01_0.05_truck_10_n03417042_9478.png
subject-01,1,254,0.726720094680786,clock,clock,0.05,0254_nse_s01_0.05_clock_10_n04548280_7800.png
subject-01,1,255,0.934536933898926,keyboard,keyboard,0.10,0255_nse_s01_0.10_keyboard_10_n03085013_1698.png
subject-01,1,256,1.22829103469849,boat,boat,0.20,0256_nse_s01_0.20_boat_10_n04273569_32553.png
subject-01,1,257,0.754204988479614,bear,bear,0.03,0257_nse_s01_0.03_bear_10_n02132136_23078.png
subject-01,1,258,0.658256053924561,bottle,bottle,0.00,0258_nse_s01_0.00_bottle_10_n04591713_5476.png
subject-01,1,259,0.863769054412842,oven,knife,0.10,0259_nse_s01_0.10_knife_10_n03041632_31849.png
subject-01,1,260,0.915978908538818,knife,truck,0.90,0260_nse_s01_0.90_truck_10_n03417042_12908.png
subject-01,1,261,1.33549785614014,bear,clock,0.60,0261_nse_s01_0.60_clock_10_n02708093_1418.png
subject-01,1,262,0.87126612663269,car,car,0.05,0262_nse_s01_0.05_car_10_n03100240_4173.png
subject-01,1,263,0.593003988265991,keyboard,keyboard,0.10,0263_nse_s01_0.10_keyboard_10_n03085013_25476.png
subject-01,1,264,0.856964111328125,cat,cat,0.05,0264_nse_s01_0.05_cat_10_n02125311_34464.png
subject-01,1,265,0.908560037612915,oven,knife,0.20,0265_nse_s01_0.20_knife_10_n03041632_36789.png
subject-01,1,266,1.13663220405579,dog,dog,0.03,0266_nse_s01_0.03_dog_10_n02108915_3733.png
subject-01,1,267,0.750231981277466,bear,knife,0.60,0267_nse_s01_0.60_knife_10_n03041632_42162.png
subject-01,1,268,1.01198506355286,keyboard,keyboard,0.10,0268_nse_s01_0.10_keyboard_10_n03085013_29042.png
subject-01,1,269,1.36181497573853,car,airplane,0.00,0269_nse_s01_0.00_airplane_10_n02690373_19407.png
subject-01,1,270,0.809942007064819,cat,bear,0.05,0270_nse_s01_0.05_bear_10_n02134084_22029.png
subject-01,1,271,0.9654541015625,bear,dog,0.60,0271_nse_s01_0.60_dog_10_n02088238_11711.png
subject-01,1,272,0.775355100631714,elephant,elephant,0.20,0272_nse_s01_0.20_elephant_10_n02504013_8522.png
subject-01,1,273,NaN,na,elephant,0.60,0273_nse_s01_0.60_elephant_10_n02504458_5941.png
subject-01,1,274,1.01320290565491,truck,truck,0.00,0274_nse_s01_0.00_truck_10_n04467665_242.png
subject-01,1,275,0.71280312538147,keyboard,keyboard,0.00,0275_nse_s01_0.00_keyboard_10_n04505470_4473.png
subject-01,1,276,0.560545921325684,boat,boat,0.05,0276_nse_s01_0.05_boat_10_n03662601_10811.png
subject-01,1,277,0.894459009170532,keyboard,keyboard,0.03,0277_nse_s01_0.03_keyboard_10_n03085013_20495.png
subject-01,1,278,1.10244607925415,bicycle,bicycle,0.00,0278_nse_s01_0.00_bicycle_10_n02835271_15038.png
subject-01,1,279,0.864038944244385,bear,bear,0.20,0279_nse_s01_0.20_bear_10_n02134418_5271.png
subject-01,1,280,1.02571487426758,chair,chair,0.10,0280_nse_s01_0.10_chair_10_n02791124_1217.png
subject-01,1,281,1.39767909049988,bird,elephant,0.10,0281_nse_s01_0.10_elephant_10_n02504013_2394.png
subject-01,1,282,0.817490816116333,bear,dog,0.35,0282_nse_s01_0.35_dog_10_n02105505_5576.png
subject-01,1,283,0.885293006896973,airplane,airplane,0.10,0283_nse_s01_0.10_airplane_10_n02690373_2579.png
subject-01,1,284,0.967040061950684,dog,dog,0.05,0284_nse_s01_0.05_dog_10_n02102480_10015.png
subject-01,1,285,0.642833948135376,cat,cat,0.10,0285_nse_s01_0.10_cat_10_n02124075_5853.png
subject-01,1,286,1.2487199306488,truck,truck,0.00,0286_nse_s01_0.00_truck_10_n03796401_2012.png
subject-01,1,287,1.22233581542969,keyboard,keyboard,0.10,0287_nse_s01_0.10_keyboard_10_n04505470_1286.png
subject-01,1,288,0.836501121520996,truck,truck,0.10,0288_nse_s01_0.10_truck_10_n04467665_74008.png
subject-01,1,289,1.31013417243958,bear,bottle,0.90,0289_nse_s01_0.90_bottle_10_n04560804_10541.png
subject-01,1,290,0.757852077484131,airplane,airplane,0.20,0290_nse_s01_0.20_airplane_10_n02690373_8967.png
subject-01,1,291,1.34211492538452,oven,keyboard,0.60,0291_nse_s01_0.60_keyboard_10_n04505470_3309.png
subject-01,1,292,1.18380999565125,car,car,0.05,0292_nse_s01_0.05_car_10_n02814533_42665.png
subject-01,1,293,NaN,na,bicycle,0.03,0293_nse_s01_0.03_bicycle_10_n03792782_6613.png
subject-01,1,294,0.847337961196899,knife,knife,0.00,0294_nse_s01_0.00_knife_10_n03041632_38540.png
subject-01,1,295,1.04706192016602,dog,dog,0.90,0295_nse_s01_0.90_dog_10_n02109047_6542.png
subject-01,1,296,0.958909034729004,bicycle,bicycle,0.35,0296_nse_s01_0.35_bicycle_10_n03792782_51156.png
subject-01,1,297,0.728588104248047,bottle,bottle,0.10,0297_nse_s01_0.10_bottle_10_n04579145_5795.png
subject-01,1,298,0.890584945678711,keyboard,chair,0.03,0298_nse_s01_0.03_chair_10_n03376595_787.png
subject-01,1,299,0.76625394821167,oven,bottle,0.90,0299_nse_s01_0.90_bottle_10_n04579145_1117.png
subject-01,1,300,1.26210689544678,bird,bird,0.00,0300_nse_s01_0.00_bird_10_n01795545_11076.png
subject-01,1,301,1.29003095626831,oven,clock,0.20,0301_nse_s01_0.20_clock_10_n03196217_6741.png
subject-01,1,302,1.35764908790588,keyboard,oven,0.00,0302_nse_s01_0.00_oven_10_n04111531_3555.png
subject-01,1,303,1.05155777931213,bird,knife,0.20,0303_nse_s01_0.20_knife_10_n03041632_36280.png
subject-01,1,304,1.28932309150696,truck,truck,0.03,0304_nse_s01_0.03_truck_10_n04467665_74235.png
subject-01,1,305,1.20148682594299,bear,clock,0.90,0305_nse_s01_0.90_clock_10_n04548280_6287.png
subject-01,1,306,0.94689679145813,elephant,elephant,0.00,0306_nse_s01_0.00_elephant_10_n02504458_6472.png
subject-01,1,307,0.886786937713623,bicycle,bicycle,0.05,0307_nse_s01_0.05_bicycle_10_n03792782_11034.png
subject-01,1,308,1.0408411026001,dog,dog,0.60,0308_nse_s01_0.60_dog_10_n02109525_50916.png
subject-01,1,309,0.896239995956421,bear,dog,0.60,0309_nse_s01_0.60_dog_10_n02097658_1923.png
subject-01,1,310,NaN,na,knife,0.03,0310_nse_s01_0.03_knife_10_n03041632_22480.png
subject-01,1,311,1.26389408111572,chair,elephant,0.35,0311_nse_s01_0.35_elephant_10_n02504458_1041.png
subject-01,1,312,1.08005094528198,knife,knife,0.10,0312_nse_s01_0.10_knife_10_n03041632_28129.png
subject-01,1,313,1.10765695571899,car,car,0.00,0313_nse_s01_0.00_car_10_n03100240_14667.png
subject-01,1,314,0.871448993682861,airplane,airplane,0.03,0314_nse_s01_0.03_airplane_10_n02690373_3821.png
subject-01,1,315,0.883072137832642,bear,cat,0.90,0315_nse_s01_0.90_cat_10_n02124075_1183.png
subject-01,1,316,1.08904004096985,keyboard,car,0.90,0316_nse_s01_0.90_car_10_n03100240_1194.png
subject-01,1,317,0.922760963439941,bear,oven,0.60,0317_nse_s01_0.60_oven_10_n04111531_9370.png
subject-01,1,318,0.872740030288696,cat,truck,0.20,0318_nse_s01_0.20_truck_10_n03417042_10597.png
subject-01,1,319,0.720824003219604,truck,truck,0.05,0319_nse_s01_0.05_truck_10_n03417042_6489.png
subject-01,1,320,0.818127870559692,bottle,bottle,0.05,0320_nse_s01_0.05_bottle_10_n04591713_6662.png
subject-01,1,321,1.03458309173584,bottle,bottle,0.60,0321_nse_s01_0.60_bottle_10_n04560804_4624.png
subject-01,1,322,1.2101948261261,bear,bird,0.00,0322_nse_s01_0.00_bird_10_n01818515_7370.png
subject-01,1,323,0.839870929718018,keyboard,keyboard,0.05,0323_nse_s01_0.05_keyboard_10_n03085013_15646.png
subject-01,1,324,0.54194712638855,cat,cat,0.03,0324_nse_s01_0.03_cat_10_n02124075_14924.png
subject-01,1,325,0.84375,elephant,elephant,0.20,0325_nse_s01_0.20_elephant_10_n02504013_18217.png
subject-01,1,326,0.979475021362305,keyboard,keyboard,0.35,0326_nse_s01_0.35_keyboard_10_n04505470_4724.png
subject-01,1,327,0.845409870147705,clock,clock,0.20,0327_nse_s01_0.20_clock_10_n04548280_9646.png
subject-01,1,328,0.967093944549561,bear,cat,0.35,0328_nse_s01_0.35_cat_10_n02123394_6376.png
subject-01,1,329,0.750881910324097,cat,elephant,0.35,0329_nse_s01_0.35_elephant_10_n02504458_130.png
subject-01,1,330,0.842888832092285,bear,cat,0.90,0330_nse_s01_0.90_cat_10_n02124075_9291.png
subject-01,1,331,1.0806770324707,boat,bird,0.10,0331_nse_s01_0.10_bird_10_n02037110_3949.png
subject-01,1,332,0.662275075912476,car,car,0.00,0332_nse_s01_0.00_car_10_n04285008_10905.png
subject-01,1,333,0.70428204536438,chair,chair,0.10,0333_nse_s01_0.10_chair_10_n04429376_619.png
subject-01,1,334,0.942061901092529,cat,boat,0.90,0334_nse_s01_0.90_boat_10_n02951358_30335.png
subject-01,1,335,1.0616660118103,bear,oven,0.90,0335_nse_s01_0.90_oven_10_n04111531_17995.png
subject-01,1,336,0.849673986434937,bird,bird,0.35,0336_nse_s01_0.35_bird_10_n01828970_11221.png
subject-01,1,337,1.23779296875,elephant,elephant,0.10,0337_nse_s01_0.10_elephant_10_n02504013_1719.png
subject-01,1,338,0.709413051605225,oven,oven,0.10,0338_nse_s01_0.10_oven_10_n04111531_8009.png
subject-01,1,339,0.788999080657959,bear,airplane,0.60,0339_nse_s01_0.60_airplane_10_n02690373_8233.png
subject-01,1,340,0.950824975967407,dog,dog,0.10,0340_nse_s01_0.10_dog_10_n02092339_401.png
subject-01,1,341,0.884737014770508,bottle,bottle,0.10,0341_nse_s01_0.10_bottle_10_n02823428_11579.png
subject-01,1,342,0.75656795501709,cat,car,0.60,0342_nse_s01_0.60_car_10_n04285008_6951.png
subject-01,1,343,1.02663278579712,bird,bicycle,0.35,0343_nse_s01_0.35_bicycle_10_n03792782_12504.png
subject-01,1,344,1.1603729724884,bottle,bottle,0.00,0344_nse_s01_0.00_bottle_10_n02823428_4073.png
subject-01,1,345,1.18221187591553,bear,elephant,0.35,0345_nse_s01_0.35_elephant_10_n02504013_945.png
subject-01,1,346,0.810081005096436,cat,cat,0.10,0346_nse_s01_0.10_cat_10_n02124075_12815.png
subject-01,1,347,1.07343292236328,bear,truck,0.60,0347_nse_s01_0.60_truck_10_n03417042_4876.png
subject-01,1,348,1.14940500259399,chair,keyboard,0.05,0348_nse_s01_0.05_keyboard_10_n04505470_4628.png
subject-01,1,349,NaN,na,bear,0.20,0349_nse_s01_0.20_bear_10_n02133161_1427.png
subject-01,1,350,0.969393014907837,cat,boat,0.60,0350_nse_s01_0.60_boat_10_n04273569_7296.png
subject-01,1,351,1.02693200111389,bear,chair,0.90,0351_nse_s01_0.90_chair_10_n04099969_41686.png
subject-01,1,352,0.900507926940918,airplane,airplane,0.03,0352_nse_s01_0.03_airplane_10_n02690373_10006.png
subject-01,1,353,1.24038290977478,boat,knife,0.90,0353_nse_s01_0.90_knife_10_n03041632_20595.png
subject-01,1,354,0.792196035385132,cat,oven,0.90,0354_nse_s01_0.90_oven_10_n04111531_2054.png
subject-01,1,355,0.798120975494385,truck,truck,0.20,0355_nse_s01_0.20_truck_10_n04467665_40307.png
subject-01,1,356,0.785762071609497,bear,bear,0.00,0356_nse_s01_0.00_bear_10_n02133161_396.png
subject-01,1,357,1.00354695320129,dog,dog,0.03,0357_nse_s01_0.03_dog_10_n02105056_5636.png
subject-01,1,358,1.08174419403076,cat,bicycle,0.35,0358_nse_s01_0.35_bicycle_10_n02835271_8798.png
subject-01,1,359,0.96116304397583,knife,bear,0.90,0359_nse_s01_0.90_bear_10_n02134418_5478.png
subject-01,1,360,1.27899694442749,elephant,boat,0.90,0360_nse_s01_0.90_boat_10_n04612504_4250.png
subject-01,1,361,1.23525595664978,knife,knife,0.35,0361_nse_s01_0.35_knife_10_n03041632_18959.png
subject-01,1,362,1.05888104438782,bear,dog,0.35,0362_nse_s01_0.35_dog_10_n02105251_6564.png
subject-01,1,363,1.14251899719238,bear,boat,0.90,0363_nse_s01_0.90_boat_10_n04612504_7148.png
subject-01,1,364,0.710736036300659,boat,boat,0.03,0364_nse_s01_0.03_boat_10_n04273569_4348.png
subject-01,1,365,0.680383920669556,car,car,0.03,0365_nse_s01_0.03_car_10_n02814533_88986.png
subject-01,1,366,0.866398811340332,bear,bear,0.03,0366_nse_s01_0.03_bear_10_n02134418_2590.png
subject-01,1,367,1.23568105697632,bird,bird,0.20,0367_nse_s01_0.20_bird_10_n02007558_5877.png
subject-01,1,368,0.587560892105103,clock,clock,0.05,0368_nse_s01_0.05_clock_10_n02708093_1313.png
subject-01,1,369,0.695384979248047,keyboard,keyboard,0.35,0369_nse_s01_0.35_keyboard_10_n03085013_20798.png
subject-01,1,370,0.781350135803223,bear,dog,0.90,0370_nse_s01_0.90_dog_10_n02109525_13812.png
subject-01,1,371,1.03104901313782,bear,bear,0.20,0371_nse_s01_0.20_bear_10_n02134418_4458.png
subject-01,1,372,0.645220994949341,bottle,bottle,0.20,0372_nse_s01_0.20_bottle_10_n04560804_21519.png
subject-01,1,373,1.49660801887512,elephant,elephant,0.10,0373_nse_s01_0.10_elephant_10_n02504458_8183.png
subject-01,1,374,1.10270881652832,bear,keyboard,0.90,0374_nse_s01_0.90_keyboard_10_n03085013_20330.png
subject-01,1,375,1.12246704101562,dog,elephant,0.10,0375_nse_s01_0.10_elephant_10_n02504013_5533.png
subject-01,1,376,0.862392902374268,car,oven,0.90,0376_nse_s01_0.90_oven_10_n04111531_1009.png
subject-01,1,377,0.796089887619019,bicycle,bicycle,0.05,0377_nse_s01_0.05_bicycle_10_n03792782_48457.png
subject-01,1,378,1.05207300186157,cat,cat,0.10,0378_nse_s01_0.10_cat_10_n02124075_7240.png
subject-01,1,379,1.16543698310852,dog,car,0.60,0379_nse_s01_0.60_car_10_n02814533_39597.png
subject-01,1,380,1.04342007637024,chair,chair,0.03,0380_nse_s01_0.03_chair_10_n04429376_33792.png
subject-01,1,381,0.733497858047485,bear,bicycle,0.60,0381_nse_s01_0.60_bicycle_10_n03792782_15679.png
subject-01,1,382,0.787105798721313,cat,bicycle,0.60,0382_nse_s01_0.60_bicycle_10_n02835271_9237.png
subject-01,1,383,0.932708024978638,bottle,bottle,0.35,0383_nse_s01_0.35_bottle_10_n04591713_665.png
subject-01,1,384,0.772809028625488,cat,cat,0.03,0384_nse_s01_0.03_cat_10_n02123159_8257.png
subject-01,1,385,0.690474033355713,bear,dog,0.10,0385_nse_s01_0.10_dog_10_n02108551_26509.png
subject-01,1,386,1.0704391002655,airplane,clock,0.60,0386_nse_s01_0.60_clock_10_n03196217_3697.png
subject-01,1,387,0.965936183929443,bicycle,bicycle,0.03,0387_nse_s01_0.03_bicycle_10_n02835271_25268.png
subject-01,1,388,1.06384611129761,bottle,truck,0.10,0388_nse_s01_0.10_truck_10_n03796401_407.png
subject-01,1,389,0.587711095809937,clock,clock,0.05,0389_nse_s01_0.05_clock_10_n04548280_2045.png
subject-01,1,390,1.15756607055664,bicycle,oven,0.05,0390_nse_s01_0.05_oven_10_n04111531_5792.png
subject-01,1,391,1.37524104118347,elephant,elephant,0.05,0391_nse_s01_0.05_elephant_10_n02504458_8212.png
subject-01,1,392,0.933146953582764,bird,bird,0.03,0392_nse_s01_0.03_bird_10_n01843383_8624.png
subject-01,1,393,0.664940118789673,airplane,airplane,0.20,0393_nse_s01_0.20_airplane_10_n02690373_4814.png
subject-01,1,394,1.03104901313782,truck,truck,0.60,0394_nse_s01_0.60_truck_10_n03796401_6184.png
subject-01,1,395,0.878684043884277,dog,dog,0.03,0395_nse_s01_0.03_dog_10_n02094114_1589.png
subject-01,1,396,0.86236310005188,bird,clock,0.90,0396_nse_s01_0.90_clock_10_n02708093_6572.png
subject-01,1,397,0.924165964126587,bicycle,boat,0.60,0397_nse_s01_0.60_boat_10_n02951358_15551.png
subject-01,1,398,0.95978307723999,bear,boat,0.35,0398_nse_s01_0.35_boat_10_n03662601_7352.png
subject-01,1,399,0.895740985870361,cat,bicycle,0.60,0399_nse_s01_0.60_bicycle_10_n03792782_14984.png
subject-01,1,400,0.871778011322021,elephant,knife,0.35,0400_nse_s01_0.35_knife_10_n03041632_84012.png
subject-01,1,401,0.702156066894531,keyboard,keyboard,0.10,0401_nse_s01_0.10_keyboard_10_n03085013_9146.png
subject-01,1,402,0.934112071990967,airplane,airplane,0.03,0402_nse_s01_0.03_airplane_10_n02690373_6755.png
subject-01,1,403,0.695657968521118,bear,dog,0.20,0403_nse_s01_0.20_dog_10_n02086079_17983.png
subject-01,1,404,1.50013899803162,bear,bear,0.00,0404_nse_s01_0.00_bear_10_n02134418_3284.png
subject-01,1,405,0.677405118942261,elephant,elephant,0.35,0405_nse_s01_0.35_elephant_10_n02504458_8064.png
subject-01,1,406,0.575078010559082,cat,cat,0.20,0406_nse_s01_0.20_cat_10_n02123394_289.png
subject-01,1,407,1.40292906761169,bicycle,knife,0.20,0407_nse_s01_0.20_knife_10_n03041632_18995.png
subject-01,1,408,0.594802141189575,bird,bird,0.03,0408_nse_s01_0.03_bird_10_n01843065_4999.png
subject-01,1,409,1.08645105361938,knife,keyboard,0.60,0409_nse_s01_0.60_keyboard_10_n03085013_22417.png
subject-01,1,410,0.582552909851074,bear,bear,0.05,0410_nse_s01_0.05_bear_10_n02132136_3224.png
subject-01,1,411,NaN,na,boat,0.05,0411_nse_s01_0.05_boat_10_n03662601_33184.png
subject-01,1,412,1.11988401412964,bear,bear,0.05,0412_nse_s01_0.05_bear_10_n02133161_2396.png
subject-01,1,413,1.42378091812134,boat,keyboard,0.35,0413_nse_s01_0.35_keyboard_10_n03085013_24578.png
subject-01,1,414,0.717538118362427,car,car,0.35,0414_nse_s01_0.35_car_10_n02814533_4519.png
subject-01,1,415,1.33541822433472,clock,bottle,0.00,0415_nse_s01_0.00_bottle_10_n03937543_2428.png
subject-01,1,416,0.940990209579468,dog,dog,0.05,0416_nse_s01_0.05_dog_10_n02091635_8296.png
subject-01,1,417,0.844907999038696,bottle,bottle,0.35,0417_nse_s01_0.35_bottle_10_n03983396_11434.png
subject-01,1,418,0.686887979507446,boat,boat,0.00,0418_nse_s01_0.00_boat_10_n02951358_7315.png
subject-01,1,419,0.92464017868042,bird,bird,0.20,0419_nse_s01_0.20_bird_10_n01860187_7297.png
subject-01,1,420,0.758436918258667,cat,oven,0.20,0420_nse_s01_0.20_oven_10_n04111531_4250.png
subject-01,1,421,0.856135129928589,bear,bear,0.20,0421_nse_s01_0.20_bear_10_n02133161_9463.png
subject-01,1,422,1.07999110221863,bird,bird,0.00,0422_nse_s01_0.00_bird_10_n02009229_4129.png
subject-01,1,423,0.814041137695312,car,knife,0.10,0423_nse_s01_0.10_knife_10_n03041632_30821.png
subject-01,1,424,1.05779004096985,airplane,cat,0.90,0424_nse_s01_0.90_cat_10_n02123394_2490.png
subject-01,1,425,0.749666929244995,dog,dog,0.00,0425_nse_s01_0.00_dog_10_n02087394_2723.png
subject-01,1,426,0.965533971786499,bear,dog,0.90,0426_nse_s01_0.90_dog_10_n02093754_5736.png
subject-01,1,427,1.02721285820007,cat,bottle,0.60,0427_nse_s01_0.60_bottle_10_n02823428_9063.png
subject-01,1,428,1.25288796424866,dog,truck,0.60,0428_nse_s01_0.60_truck_10_n04467665_20933.png
subject-01,1,429,1.05472707748413,car,car,0.10,0429_nse_s01_0.10_car_10_n03100240_5999.png
subject-01,1,430,0.862879991531372,oven,oven,0.03,0430_nse_s01_0.03_oven_10_n04111531_3671.png
subject-01,1,431,0.930259943008423,truck,truck,0.05,0431_nse_s01_0.05_truck_10_n03417042_7187.png
subject-01,1,432,0.90848183631897,bear,bottle,0.35,0432_nse_s01_0.35_bottle_10_n04557648_2954.png
subject-01,1,433,0.9459388256073,keyboard,elephant,0.35,0433_nse_s01_0.35_elephant_10_n02504013_6645.png
subject-01,1,434,0.99773383140564,keyboard,keyboard,0.10,0434_nse_s01_0.10_keyboard_10_n04505470_6876.png
subject-01,1,435,1.05750894546509,bird,bird,0.20,0435_nse_s01_0.20_bird_10_n02056570_3286.png
subject-01,1,436,0.845462083816528,cat,bird,0.90,0436_nse_s01_0.90_bird_10_n02037110_8826.png
subject-01,1,437,0.897119998931885,car,car,0.00,0437_nse_s01_0.00_car_10_n03100240_11400.png
subject-01,1,438,0.954974174499512,chair,bird,0.60,0438_nse_s01_0.60_bird_10_n02018795_6389.png
subject-01,1,439,1.50012707710266,bear,oven,0.35,0439_nse_s01_0.35_oven_10_n04111531_2458.png
subject-01,1,440,1.21465492248535,cat,cat,0.60,0440_nse_s01_0.60_cat_10_n02123159_2256.png
subject-01,1,441,1.06451392173767,elephant,elephant,0.03,0441_nse_s01_0.03_elephant_10_n02504458_611.png
subject-01,1,442,1.13821601867676,knife,knife,0.03,0442_nse_s01_0.03_knife_10_n03041632_18141.png
subject-01,1,443,1.08011412620544,bird,bird,0.60,0443_nse_s01_0.60_bird_10_n01843065_1871.png
subject-01,1,444,0.841849088668823,bird,bird,0.05,0444_nse_s01_0.05_bird_10_n01833805_7361.png
subject-01,1,445,0.853998899459839,elephant,elephant,0.20,0445_nse_s01_0.20_elephant_10_n02504458_5827.png
subject-01,1,446,1.17163920402527,bicycle,bicycle,0.35,0446_nse_s01_0.35_bicycle_10_n02835271_5825.png
subject-01,1,447,0.989480972290039,car,bear,0.90,0447_nse_s01_0.90_bear_10_n02134084_12801.png
subject-01,1,448,0.613157987594604,cat,cat,0.10,0448_nse_s01_0.10_cat_10_n02123394_3611.png
subject-01,1,449,0.892902851104736,bear,chair,0.35,0449_nse_s01_0.35_chair_10_n04429376_9589.png
subject-01,1,450,0.682961940765381,cat,cat,0.35,0450_nse_s01_0.35_cat_10_n02123394_3885.png
subject-01,1,451,1.24865818023682,cat,elephant,0.90,0451_nse_s01_0.90_elephant_10_n02504013_22633.png
subject-01,1,452,0.816537141799927,car,car,0.20,0452_nse_s01_0.20_car_10_n02814533_2271.png
subject-01,1,453,0.720362901687622,truck,truck,0.05,0453_nse_s01_0.05_truck_10_n03417042_10150.png
subject-01,1,454,1.1179838180542,truck,oven,0.35,0454_nse_s01_0.35_oven_10_n04111531_10583.png
subject-01,1,455,0.678153038024902,bottle,bottle,0.03,0455_nse_s01_0.03_bottle_10_n03937543_1602.png
subject-01,1,456,1.49999904632568,bottle,knife,0.03,0456_nse_s01_0.03_knife_10_n03041632_3504.png
subject-01,1,457,0.781475067138672,bicycle,bicycle,0.03,0457_nse_s01_0.03_bicycle_10_n03792782_1004.png
subject-01,1,458,0.631428956985474,cat,cat,0.05,0458_nse_s01_0.05_cat_10_n02123394_8172.png
subject-01,1,459,1.12900996208191,elephant,elephant,0.10,0459_nse_s01_0.10_elephant_10_n02504013_156.png
subject-01,1,460,0.975059032440186,car,car,0.03,0460_nse_s01_0.03_car_10_n04285008_5559.png
subject-01,1,461,0.83283805847168,elephant,elephant,0.35,0461_nse_s01_0.35_elephant_10_n02504458_6694.png
subject-01,1,462,0.800514221191406,cat,car,0.90,0462_nse_s01_0.90_car_10_n04285008_15003.png
subject-01,1,463,0.664699077606201,chair,chair,0.10,0463_nse_s01_0.10_chair_10_n03376595_15723.png
subject-01,1,464,1.19448280334473,bird,knife,0.60,0464_nse_s01_0.60_knife_10_n03041632_48816.png
subject-01,1,465,1.22987818717957,cat,chair,0.90,0465_nse_s01_0.90_chair_10_n03376595_4142.png
subject-01,1,466,1.31170010566711,bear,car,0.60,0466_nse_s01_0.60_car_10_n04285008_2363.png
subject-01,1,467,0.821694135665894,truck,truck,0.10,0467_nse_s01_0.10_truck_10_n03417042_7335.png
subject-01,1,468,1.15544700622559,keyboard,oven,0.00,0468_nse_s01_0.00_oven_10_n04111531_6313.png
subject-01,1,469,1.25926899909973,bird,bird,0.05,0469_nse_s01_0.05_bird_10_n02033041_6728.png
subject-01,1,470,1.49907994270325,oven,clock,0.00,0470_nse_s01_0.00_clock_10_n04548280_1032.png
subject-01,1,471,1.29280114173889,airplane,airplane,0.03,0471_nse_s01_0.03_airplane_10_n02690373_1983.png
subject-01,1,472,0.944697141647339,keyboard,keyboard,0.00,0472_nse_s01_0.00_keyboard_10_n03085013_23369.png
subject-01,1,473,0.850516080856323,cat,elephant,0.90,0473_nse_s01_0.90_elephant_10_n02504458_2419.png
subject-01,1,474,1.05842089653015,truck,truck,0.20,0474_nse_s01_0.20_truck_10_n04467665_72022.png
subject-01,1,475,1.19611001014709,bottle,bottle,0.05,0475_nse_s01_0.05_bottle_10_n04579145_5289.png
subject-01,1,476,0.615839958190918,clock,clock,0.05,0476_nse_s01_0.05_clock_10_n02708093_2898.png
subject-01,1,477,1.16978001594543,dog,dog,0.20,0477_nse_s01_0.20_dog_10_n02101556_4066.png
subject-01,1,478,0.913476943969727,bear,car,0.90,0478_nse_s01_0.90_car_10_n04285008_17052.png
subject-01,1,479,0.871816158294678,knife,truck,0.90,0479_nse_s01_0.90_truck_10_n04467665_37811.png
subject-01,1,480,0.989219903945923,keyboard,keyboard,0.20,0480_nse_s01_0.20_keyboard_10_n04505470_578.png
subject-01,1,481,0.640752077102661,cat,cat,0.10,0481_nse_s01_0.10_cat_10_n02123045_2721.png
subject-01,1,482,0.684401035308838,car,car,0.10,0482_nse_s01_0.10_car_10_n04285008_7776.png
subject-01,1,483,1.09624600410461,bear,bottle,0.90,0483_nse_s01_0.90_bottle_10_n04591713_2014.png
subject-01,1,484,0.718125104904175,bottle,bottle,0.10,0484_nse_s01_0.10_bottle_10_n03983396_9662.png
subject-01,1,485,0.651777029037476,cat,bicycle,0.35,0485_nse_s01_0.35_bicycle_10_n03792782_10367.png
subject-01,1,486,0.923804044723511,cat,keyboard,0.60,0486_nse_s01_0.60_keyboard_10_n03085013_22942.png
subject-01,1,487,0.577672004699707,cat,cat,0.00,0487_nse_s01_0.00_cat_10_n02123597_3896.png
subject-01,1,488,0.817339897155762,bicycle,bicycle,0.03,0488_nse_s01_0.03_bicycle_10_n03792782_2649.png
subject-01,1,489,0.711138963699341,bear,bear,0.10,0489_nse_s01_0.10_bear_10_n02133161_2476.png
subject-01,1,490,1.05106091499329,car,car,0.10,0490_nse_s01_0.10_car_10_n04285008_7249.png
subject-01,1,491,0.672789812088013,chair,chair,0.20,0491_nse_s01_0.20_chair_10_n04099969_8604.png
subject-01,1,492,0.700549125671387,bicycle,bicycle,0.05,0492_nse_s01_0.05_bicycle_10_n02835271_5963.png
subject-01,1,493,0.980431079864502,car,airplane,0.90,0493_nse_s01_0.90_airplane_10_n02690373_17011.png
subject-01,1,494,0.672296047210693,keyboard,bird,0.90,0494_nse_s01_0.90_bird_10_n02028035_889.png
subject-01,1,495,0.904114961624146,airplane,cat,0.60,0495_nse_s01_0.60_cat_10_n02123159_7949.png
subject-01,1,496,0.611845016479492,car,car,0.03,0496_nse_s01_0.03_car_10_n03100240_15686.png
subject-01,1,497,1.14169502258301,cat,cat,0.35,0497_nse_s01_0.35_cat_10_n02123159_6106.png
subject-01,1,498,0.543657064437866,cat,cat,0.00,0498_nse_s01_0.00_cat_10_n02123394_7105.png
subject-01,1,499,0.933135032653809,bear,clock,0.35,0499_nse_s01_0.35_clock_10_n04548280_4747.png
subject-01,1,500,1.09314608573914,dog,elephant,0.20,0500_nse_s01_0.20_elephant_10_n02504458_975.png
subject-01,1,501,1.30090999603271,car,boat,0.20,0501_nse_s01_0.20_boat_10_n03344393_11590.png
subject-01,1,502,1.27878999710083,elephant,airplane,0.90,0502_nse_s01_0.90_airplane_10_n02690373_2026.png
subject-01,1,503,0.962488889694214,oven,clock,0.60,0503_nse_s01_0.60_clock_10_n03196217_2346.png
subject-01,1,504,0.816240072250366,knife,truck,0.60,0504_nse_s01_0.60_truck_10_n04467665_34932.png
subject-01,1,505,0.634171962738037,cat,oven,0.35,0505_nse_s01_0.35_oven_10_n04111531_13625.png
subject-01,1,506,0.583898067474365,airplane,airplane,0.00,0506_nse_s01_0.00_airplane_10_n02690373_8666.png
subject-01,1,507,1.09972596168518,keyboard,oven,0.35,0507_nse_s01_0.35_oven_10_n04111531_4148.png
subject-01,1,508,0.745653867721558,dog,dog,0.00,0508_nse_s01_0.00_dog_10_n02107683_7021.png
subject-01,1,509,0.917570114135742,truck,bird,0.05,0509_nse_s01_0.05_bird_10_n02025239_22440.png
subject-01,1,510,1.50014686584473,bird,elephant,0.90,0510_nse_s01_0.90_elephant_10_n02504013_7032.png
subject-01,1,511,1.01105499267578,bear,truck,0.90,0511_nse_s01_0.90_truck_10_n03417042_10788.png
subject-01,1,512,0.702717065811157,bottle,knife,0.05,0512_nse_s01_0.05_knife_10_n03041632_86118.png
subject-01,1,513,0.792814970016479,bottle,bottle,0.00,0513_nse_s01_0.00_bottle_10_n04557648_9790.png
subject-01,1,514,1.43837308883667,elephant,chair,0.90,0514_nse_s01_0.90_chair_10_n02791124_8788.png
subject-01,1,515,1.31026816368103,dog,dog,0.03,0515_nse_s01_0.03_dog_10_n02095314_4996.png
subject-01,1,516,0.740041971206665,keyboard,keyboard,0.20,0516_nse_s01_0.20_keyboard_10_n04505470_4679.png
subject-01,1,517,1.30780506134033,airplane,bird,0.03,0517_nse_s01_0.03_bird_10_n01860187_24935.png
subject-01,1,518,1.50011515617371,bear,bicycle,0.60,0518_nse_s01_0.60_bicycle_10_n02835271_14123.png
subject-01,1,519,0.733620882034302,boat,boat,0.10,0519_nse_s01_0.10_boat_10_n03344393_7075.png
subject-01,1,520,0.787362813949585,knife,knife,0.03,0520_nse_s01_0.03_knife_10_n03041632_13130.png
subject-01,1,521,1.19109582901001,bird,bottle,0.20,0521_nse_s01_0.20_bottle_10_n04591713_5569.png
subject-01,1,522,0.944890022277832,elephant,elephant,0.05,0522_nse_s01_0.05_elephant_10_n02504013_19753.png
subject-01,1,523,1.00882411003113,keyboard,dog,0.60,0523_nse_s01_0.60_dog_10_n02099849_4819.png
subject-01,1,524,0.688524961471558,car,elephant,0.90,0524_nse_s01_0.90_elephant_10_n02504458_12938.png
subject-01,1,525,0.694395065307617,bottle,bottle,0.03,0525_nse_s01_0.03_bottle_10_n02823428_901.png
subject-01,1,526,0.934026956558228,car,bicycle,0.00,0526_nse_s01_0.00_bicycle_10_n03792782_2024.png
subject-01,1,527,0.880078077316284,truck,truck,0.05,0527_nse_s01_0.05_truck_10_n03417042_24856.png
subject-01,1,528,0.715938091278076,elephant,elephant,0.00,0528_nse_s01_0.00_elephant_10_n02504013_19694.png
subject-01,1,529,0.877985954284668,bird,bird,0.20,0529_nse_s01_0.20_bird_10_n01530575_10119.png
subject-01,1,530,1.26353907585144,airplane,bottle,0.20,0530_nse_s01_0.20_bottle_10_n04557648_954.png
subject-01,1,531,1.34334897994995,keyboard,cat,0.90,0531_nse_s01_0.90_cat_10_n02123159_277.png
subject-01,1,532,1.20112609863281,knife,knife,0.00,0532_nse_s01_0.00_knife_10_n03041632_289.png
subject-01,1,533,1.32493615150452,truck,truck,0.35,0533_nse_s01_0.35_truck_10_n04467665_450.png
subject-01,1,534,1.16271710395813,knife,knife,0.00,0534_nse_s01_0.00_knife_10_n03041632_1607.png
subject-01,1,535,0.79867696762085,bird,bird,0.20,0535_nse_s01_0.20_bird_10_n01532829_4692.png
subject-01,1,536,0.898333072662354,dog,dog,0.10,0536_nse_s01_0.10_dog_10_n02102177_4771.png
subject-01,1,537,1.12632179260254,car,car,0.10,0537_nse_s01_0.10_car_10_n04285008_14554.png
subject-01,1,538,0.997901201248169,clock,clock,0.00,0538_nse_s01_0.00_clock_10_n04548280_3716.png
subject-01,1,539,0.855769157409668,car,car,0.03,0539_nse_s01_0.03_car_10_n04285008_6849.png
subject-01,1,540,0.775529146194458,keyboard,keyboard,0.35,0540_nse_s01_0.35_keyboard_10_n03085013_24467.png
subject-01,1,541,1.22519683837891,keyboard,clock,0.35,0541_nse_s01_0.35_clock_10_n03196217_6672.png
subject-01,1,542,1.09110593795776,dog,dog,0.10,0542_nse_s01_0.10_dog_10_n02105251_5570.png
subject-01,1,543,1.48715496063232,dog,dog,0.35,0543_nse_s01_0.35_dog_10_n02107574_3352.png
subject-01,1,544,0.872753858566284,oven,boat,0.60,0544_nse_s01_0.60_boat_10_n03662601_8191.png
subject-01,1,545,0.762752056121826,boat,boat,0.00,0545_nse_s01_0.00_boat_10_n04612504_30617.png
subject-01,1,546,0.842520952224731,bear,bear,0.60,0546_nse_s01_0.60_bear_10_n02132136_2900.png
subject-01,1,547,0.934230089187622,truck,truck,0.10,0547_nse_s01_0.10_truck_10_n03417042_8139.png
subject-01,1,548,0.790008068084717,chair,chair,0.03,0548_nse_s01_0.03_chair_10_n03376595_5112.png
subject-01,1,549,1.02382802963257,bird,bird,0.05,0549_nse_s01_0.05_bird_10_n02006656_10360.png
subject-01,1,550,1.17765808105469,elephant,elephant,0.20,0550_nse_s01_0.20_elephant_10_n02504458_2799.png
subject-01,1,551,0.823432922363281,airplane,airplane,0.10,0551_nse_s01_0.10_airplane_10_n02690373_6096.png
subject-01,1,552,0.951189994812012,bird,bird,0.20,0552_nse_s01_0.20_bird_10_n02002556_139.png
subject-01,1,553,0.776970863342285,car,car,0.00,0553_nse_s01_0.00_car_10_n04285008_3056.png
subject-01,1,554,0.900867938995361,car,knife,0.10,0554_nse_s01_0.10_knife_10_n03041632_14774.png
subject-01,1,555,0.68271803855896,keyboard,oven,0.20,0555_nse_s01_0.20_oven_10_n04111531_2163.png
subject-01,1,556,0.682852983474731,cat,cat,0.20,0556_nse_s01_0.20_cat_10_n02123597_30864.png
subject-01,1,557,1.07231402397156,bird,boat,0.35,0557_nse_s01_0.35_boat_10_n02951358_33559.png
subject-01,1,558,0.912195920944214,car,bicycle,0.60,0558_nse_s01_0.60_bicycle_10_n02835271_4619.png
subject-01,1,559,0.924031972885132,truck,truck,0.03,0559_nse_s01_0.03_truck_10_n03796401_21261.png
subject-01,1,560,0.975826025009155,airplane,airplane,0.10,0560_nse_s01_0.10_airplane_10_n02690373_2496.png
subject-01,1,561,0.637187004089355,oven,boat,0.35,0561_nse_s01_0.35_boat_10_n03662601_5419.png
subject-01,1,562,0.741002082824707,airplane,airplane,0.03,0562_nse_s01_0.03_airplane_10_n02690373_7686.png
subject-01,1,563,0.824862957000732,car,oven,0.90,0563_nse_s01_0.90_oven_10_n04111531_5246.png
subject-01,1,564,1.50009989738464,dog,bicycle,0.60,0564_nse_s01_0.60_bicycle_10_n03792782_1099.png
subject-01,1,565,1.06859993934631,knife,chair,0.35,0565_nse_s01_0.35_chair_10_n04099969_12909.png
subject-01,1,566,0.96445894241333,bear,elephant,0.03,0566_nse_s01_0.03_elephant_10_n02504013_7147.png
subject-01,1,567,0.712067127227783,cat,truck,0.35,0567_nse_s01_0.35_truck_10_n04467665_44715.png
subject-01,1,568,0.646012783050537,keyboard,keyboard,0.00,0568_nse_s01_0.00_keyboard_10_n04505470_1338.png
subject-01,1,569,0.65985894203186,car,airplane,0.90,0569_nse_s01_0.90_airplane_10_n02690373_4982.png
subject-01,1,570,0.787564992904663,airplane,bicycle,0.90,0570_nse_s01_0.90_bicycle_10_n03792782_3754.png
subject-01,1,571,0.777292013168335,bicycle,bicycle,0.00,0571_nse_s01_0.00_bicycle_10_n03792782_1418.png
subject-01,1,572,1.03320002555847,truck,truck,0.03,0572_nse_s01_0.03_truck_10_n03796401_26359.png
subject-01,1,573,0.953001022338867,car,car,0.05,0573_nse_s01_0.05_car_10_n03100240_9149.png
subject-01,1,574,0.771257877349854,keyboard,bird,0.90,0574_nse_s01_0.90_bird_10_n01534433_14677.png
subject-01,1,575,1.02680206298828,car,car,0.03,0575_nse_s01_0.03_car_10_n03100240_8683.png
subject-01,1,576,1.21466112136841,chair,chair,0.03,0576_nse_s01_0.03_chair_10_n03376595_524.png
subject-01,1,577,1.0524218082428,dog,dog,0.20,0577_nse_s01_0.20_dog_10_n02094433_6402.png
subject-01,1,578,0.932277917861938,car,car,0.20,0578_nse_s01_0.20_car_10_n03100240_16803.png
subject-01,1,579,0.70387601852417,bicycle,bicycle,0.20,0579_nse_s01_0.20_bicycle_10_n03792782_15114.png
subject-01,1,580,0.857934951782227,bicycle,chair,0.60,0580_nse_s01_0.60_chair_10_n04429376_21362.png
subject-01,1,581,1.1275680065155,bird,keyboard,0.90,0581_nse_s01_0.90_keyboard_10_n04505470_3499.png
subject-01,1,582,0.827816963195801,keyboard,boat,0.90,0582_nse_s01_0.90_boat_10_n04273569_26577.png
subject-01,1,583,0.68737006187439,boat,boat,0.10,0583_nse_s01_0.10_boat_10_n04273569_27325.png
subject-01,1,584,0.83489203453064,keyboard,keyboard,0.20,0584_nse_s01_0.20_keyboard_10_n04505470_9570.png
subject-01,1,585,1.01474595069885,bird,bicycle,0.90,0585_nse_s01_0.90_bicycle_10_n03792782_4067.png
subject-01,1,586,0.996523141860962,bear,bear,0.10,0586_nse_s01_0.10_bear_10_n02132136_282.png
subject-01,1,587,0.742336988449097,boat,boat,0.03,0587_nse_s01_0.03_boat_10_n04612504_30424.png
subject-01,1,588,0.818333148956299,car,knife,0.90,0588_nse_s01_0.90_knife_10_n03041632_4879.png
subject-01,1,589,1.50006294250488,elephant,elephant,0.05,0589_nse_s01_0.05_elephant_10_n02504458_7634.png
subject-01,1,590,1.33583998680115,cat,cat,0.35,0590_nse_s01_0.35_cat_10_n02123597_7615.png
subject-01,1,591,0.651692867279053,bicycle,bicycle,0.35,0591_nse_s01_0.35_bicycle_10_n03792782_20387.png
subject-01,1,592,0.741447925567627,clock,clock,0.10,0592_nse_s01_0.10_clock_10_n02708093_527.png
subject-01,1,593,1.40918302536011,elephant,elephant,0.05,0593_nse_s01_0.05_elephant_10_n02504013_5501.png
subject-01,1,594,0.977246046066284,bear,dog,0.35,0594_nse_s01_0.35_dog_10_n02106166_2273.png
subject-01,1,595,0.820809841156006,boat,boat,0.03,0595_nse_s01_0.03_boat_10_n03662601_34009.png
subject-01,1,596,0.574633121490479,boat,boat,0.35,0596_nse_s01_0.35_boat_10_n04273569_12536.png
subject-01,1,597,1.46249794960022,elephant,elephant,0.00,0597_nse_s01_0.00_elephant_10_n02504013_8534.png
subject-01,1,598,1.08227300643921,truck,clock,0.35,0598_nse_s01_0.35_clock_10_n04548280_156.png
subject-01,1,599,0.672286987304688,keyboard,bicycle,0.90,0599_nse_s01_0.90_bicycle_10_n02835271_542.png
subject-01,1,600,0.798092126846313,bear,bear,0.00,0600_nse_s01_0.00_bear_10_n02133161_5434.png
subject-01,1,601,0.98178505897522,car,truck,0.60,0601_nse_s01_0.60_truck_10_n04467665_63829.png
subject-01,1,602,1.13153600692749,airplane,oven,0.90,0602_nse_s01_0.90_oven_10_n04111531_10220.png
subject-01,1,603,0.989473104476929,bear,boat,0.60,0603_nse_s01_0.60_boat_10_n04273569_28074.png
subject-01,1,604,1.05517792701721,dog,cat,0.00,0604_nse_s01_0.00_cat_10_n02123394_2482.png
subject-01,1,605,0.95921802520752,oven,boat,0.90,0605_nse_s01_0.90_boat_10_n03662601_20381.png
subject-01,1,606,1.19109892845154,knife,bird,0.35,0606_nse_s01_0.35_bird_10_n01817953_12511.png
subject-01,1,607,0.690799951553345,cat,cat,0.05,0607_nse_s01_0.05_cat_10_n02125311_5346.png
subject-01,1,608,1.240553855896,knife,oven,0.00,0608_nse_s01_0.00_oven_10_n04111531_14758.png
subject-01,1,609,0.662371873855591,bird,bird,0.10,0609_nse_s01_0.10_bird_10_n02002556_1398.png
subject-01,1,610,1.12197303771973,car,knife,0.05,0610_nse_s01_0.05_knife_10_n03041632_99912.png
subject-01,1,611,0.93779993057251,airplane,airplane,0.05,0611_nse_s01_0.05_airplane_10_n02690373_1075.png
subject-01,1,612,0.889851808547974,cat,cat,0.35,0612_nse_s01_0.35_cat_10_n02123045_10834.png
subject-01,1,613,1.03562808036804,bear,car,0.60,0613_nse_s01_0.60_car_10_n02814533_41478.png
subject-01,1,614,0.607534170150757,cat,cat,0.00,0614_nse_s01_0.00_cat_10_n02123394_1602.png
subject-01,1,615,1.16519117355347,knife,knife,0.03,0615_nse_s01_0.03_knife_10_n03041632_21017.png
subject-01,1,616,0.84931206703186,bear,bear,0.03,0616_nse_s01_0.03_bear_10_n02134084_572.png
subject-01,1,617,0.879127025604248,keyboard,clock,0.05,0617_nse_s01_0.05_clock_10_n03196217_3987.png
subject-01,1,618,1.11651611328125,dog,dog,0.03,0618_nse_s01_0.03_dog_10_n02098286_6303.png
subject-01,1,619,0.88236403465271,keyboard,keyboard,0.00,0619_nse_s01_0.00_keyboard_10_n04505470_4379.png
subject-01,1,620,1.06029009819031,boat,boat,0.05,0620_nse_s01_0.05_boat_10_n04273569_15138.png
subject-01,1,621,1.10810589790344,car,airplane,0.90,0621_nse_s01_0.90_airplane_10_n02690373_18234.png
subject-01,1,622,0.917848110198975,cat,clock,0.90,0622_nse_s01_0.90_clock_10_n03196217_2179.png
subject-01,1,623,0.813671112060547,bottle,bottle,0.03,0623_nse_s01_0.03_bottle_10_n04579145_6860.png
subject-01,1,624,0.99785590171814,car,car,0.35,0624_nse_s01_0.35_car_10_n02814533_81455.png
subject-01,1,625,1.09757494926453,car,car,0.03,0625_nse_s01_0.03_car_10_n04285008_6278.png
subject-01,1,626,1.07914209365845,truck,truck,0.05,0626_nse_s01_0.05_truck_10_n04467665_3612.png
subject-01,1,627,0.947116851806641,bottle,bottle,0.10,0627_nse_s01_0.10_bottle_10_n03983396_10251.png
subject-01,1,628,NaN,na,dog,0.60,0628_nse_s01_0.60_dog_10_n02086646_6407.png
subject-01,1,629,0.748608112335205,oven,oven,0.35,0629_nse_s01_0.35_oven_10_n04111531_21404.png
subject-01,1,630,0.872379064559937,bottle,bottle,0.05,0630_nse_s01_0.05_bottle_10_n03983396_3185.png
subject-01,1,631,0.814308166503906,cat,elephant,0.05,0631_nse_s01_0.05_elephant_10_n02504013_13766.png
subject-01,1,632,0.934004068374634,bird,bird,0.05,0632_nse_s01_0.05_bird_10_n01514859_10633.png
subject-01,1,633,0.891853094100952,chair,chair,0.05,0633_nse_s01_0.05_chair_10_n03376595_2351.png
subject-01,1,634,0.643682956695557,bird,bird,0.00,0634_nse_s01_0.00_bird_10_n02009912_31837.png
subject-01,1,635,0.727613925933838,cat,dog,0.90,0635_nse_s01_0.90_dog_10_n02110958_8971.png
subject-01,1,636,1.21534299850464,dog,dog,0.20,0636_nse_s01_0.20_dog_10_n02113799_3680.png
subject-01,1,637,1.17130494117737,airplane,airplane,0.35,0637_nse_s01_0.35_airplane_10_n02690373_6491.png
subject-01,1,638,1.03506517410278,keyboard,clock,0.60,0638_nse_s01_0.60_clock_10_n04548280_1438.png
subject-01,1,639,1.09259605407715,airplane,airplane,0.05,0639_nse_s01_0.05_airplane_10_n02690373_2981.png
subject-01,1,640,0.79856014251709,car,car,0.03,0640_nse_s01_0.03_car_10_n04285008_7155.png
subject-01,1,641,0.794754028320312,chair,chair,0.20,0641_nse_s01_0.20_chair_10_n03376595_5909.png
subject-01,1,642,0.816547870635986,elephant,elephant,0.60,0642_nse_s01_0.60_elephant_10_n02504013_5876.png
subject-01,1,643,0.662752151489258,cat,cat,0.00,0643_nse_s01_0.00_cat_10_n02125311_25104.png
subject-01,1,644,0.976492881774902,oven,dog,0.90,0644_nse_s01_0.90_dog_10_n02111277_11664.png
subject-01,1,645,1.02199101448059,airplane,airplane,0.35,0645_nse_s01_0.35_airplane_10_n02690373_2185.png
subject-01,1,646,1.1258270740509,bear,bird,0.05,0646_nse_s01_0.05_bird_10_n02017213_7721.png
subject-01,1,647,0.625787973403931,boat,boat,0.05,0647_nse_s01_0.05_boat_10_n03662601_25577.png
subject-01,1,648,1.30573201179504,elephant,elephant,0.03,0648_nse_s01_0.03_elephant_10_n02504013_8028.png
subject-01,1,649,1.27941703796387,bird,airplane,0.60,0649_nse_s01_0.60_airplane_10_n02690373_6665.png
subject-01,1,650,1.20115613937378,dog,bird,0.60,0650_nse_s01_0.60_bird_10_n02011460_2611.png
subject-01,1,651,0.837150096893311,cat,knife,0.10,0651_nse_s01_0.10_knife_10_n03041632_90407.png
subject-01,1,652,1.10671806335449,airplane,airplane,0.03,0652_nse_s01_0.03_airplane_10_n02690373_10817.png
subject-01,1,653,0.684487104415894,bird,bird,0.00,0653_nse_s01_0.00_bird_10_n02051845_15350.png
subject-01,1,654,1.41022920608521,elephant,knife,0.60,0654_nse_s01_0.60_knife_10_n03041632_4269.png
subject-01,1,655,1.03829097747803,bottle,bottle,0.03,0655_nse_s01_0.03_bottle_10_n04560804_11426.png
subject-01,1,656,1.32613396644592,bird,bicycle,0.20,0656_nse_s01_0.20_bicycle_10_n03792782_7050.png
subject-01,1,657,0.839745998382568,elephant,elephant,0.05,0657_nse_s01_0.05_elephant_10_n02504013_9144.png
subject-01,1,658,0.8976149559021,bird,bear,0.90,0658_nse_s01_0.90_bear_10_n02134418_5630.png
subject-01,1,659,0.757342100143433,cat,bear,0.00,0659_nse_s01_0.00_bear_10_n02133161_16147.png
subject-01,1,660,0.661352872848511,keyboard,keyboard,0.05,0660_nse_s01_0.05_keyboard_10_n03085013_6857.png
subject-01,1,661,0.608942031860352,cat,car,0.90,0661_nse_s01_0.90_car_10_n02814533_72079.png
subject-01,1,662,0.730848073959351,chair,chair,0.00,0662_nse_s01_0.00_chair_10_n04429376_5770.png
subject-01,1,663,1.19263815879822,cat,dog,0.05,0663_nse_s01_0.05_dog_10_n02112706_5500.png
subject-01,1,664,1.15650200843811,bear,boat,0.60,0664_nse_s01_0.60_boat_10_n03662601_32391.png
subject-01,1,665,1.34846997261047,truck,truck,0.20,0665_nse_s01_0.20_truck_10_n03796401_16046.png
subject-01,1,666,1.50012898445129,elephant,bottle,0.35,0666_nse_s01_0.35_bottle_10_n04557648_310.png
subject-01,1,667,0.925733089447021,chair,chair,0.00,0667_nse_s01_0.00_chair_10_n04429376_14995.png
subject-01,1,668,0.89980411529541,cat,oven,0.05,0668_nse_s01_0.05_oven_10_n04111531_24096.png
subject-01,1,669,1.02166986465454,bird,bird,0.03,0669_nse_s01_0.03_bird_10_n01855672_12414.png
subject-01,1,670,1.4554169178009,cat,chair,0.90,0670_nse_s01_0.90_chair_10_n03376595_4887.png
subject-01,1,671,0.889173984527588,bottle,bottle,0.20,0671_nse_s01_0.20_bottle_10_n04557648_11992.png
subject-01,1,672,0.809000015258789,cat,cat,0.20,0672_nse_s01_0.20_cat_10_n02124075_951.png
subject-01,1,673,0.5468909740448,chair,chair,0.10,0673_nse_s01_0.10_chair_10_n04099969_8647.png
subject-01,1,674,1.07072305679321,bottle,bottle,0.00,0674_nse_s01_0.00_bottle_10_n04591713_2808.png
subject-01,1,675,0.994345188140869,airplane,airplane,0.20,0675_nse_s01_0.20_airplane_10_n02690373_15097.png
subject-01,1,676,1.50002098083496,chair,knife,0.00,0676_nse_s01_0.00_knife_10_n03041632_62810.png
subject-01,1,677,0.952136039733887,airplane,airplane,0.20,0677_nse_s01_0.20_airplane_10_n02690373_1441.png
subject-01,1,678,0.611877918243408,cat,clock,0.90,0678_nse_s01_0.90_clock_10_n04548280_942.png
subject-01,1,679,0.977682828903198,bear,bear,0.10,0679_nse_s01_0.10_bear_10_n02133161_4060.png
subject-01,1,680,0.779503107070923,chair,chair,0.03,0680_nse_s01_0.03_chair_10_n03376595_8227.png
subject-01,1,681,0.83942985534668,boat,boat,0.20,0681_nse_s01_0.20_boat_10_n02951358_28889.png
subject-01,1,682,0.983148097991943,boat,boat,0.00,0682_nse_s01_0.00_boat_10_n04273569_1141.png
subject-01,1,683,0.826968908309937,dog,dog,0.00,0683_nse_s01_0.00_dog_10_n02098105_5905.png
subject-01,1,684,0.872811079025269,bird,bird,0.35,0684_nse_s01_0.35_bird_10_n01534433_12864.png
subject-01,1,685,1.39249491691589,keyboard,keyboard,0.00,0685_nse_s01_0.00_keyboard_10_n04505470_6847.png
subject-01,1,686,1.46450090408325,cat,car,0.60,0686_nse_s01_0.60_car_10_n02814533_92286.png
subject-01,1,687,0.614207983016968,clock,clock,0.05,0687_nse_s01_0.05_clock_10_n02708093_3462.png
subject-01,1,688,1.42225885391235,knife,elephant,0.00,0688_nse_s01_0.00_elephant_10_n02504013_3602.png
subject-01,1,689,0.991749048233032,clock,clock,0.20,0689_nse_s01_0.20_clock_10_n02708093_2800.png
subject-01,1,690,1.33969378471375,clock,bottle,0.03,0690_nse_s01_0.03_bottle_10_n03983396_4627.png
subject-01,1,691,1.10185384750366,cat,elephant,0.60,0691_nse_s01_0.60_elephant_10_n02504458_6835.png
subject-01,1,692,0.829524040222168,bicycle,bicycle,0.10,0692_nse_s01_0.10_bicycle_10_n02835271_7594.png
subject-01,1,693,1.2770459651947,keyboard,oven,0.10,0693_nse_s01_0.10_oven_10_n04111531_538.png
subject-01,1,694,0.845072031021118,bear,elephant,0.03,0694_nse_s01_0.03_elephant_10_n02504013_10909.png
subject-01,1,695,0.776649951934814,car,boat,0.90,0695_nse_s01_0.90_boat_10_n03344393_771.png
subject-01,1,696,0.848500967025757,boat,boat,0.10,0696_nse_s01_0.10_boat_10_n02951358_15413.png
subject-01,1,697,0.91659688949585,bird,cat,0.60,0697_nse_s01_0.60_cat_10_n02124075_12176.png
subject-01,1,698,0.782306909561157,airplane,airplane,0.60,0698_nse_s01_0.60_airplane_10_n02690373_5197.png
subject-01,1,699,1.16177797317505,bicycle,bicycle,0.00,0699_nse_s01_0.00_bicycle_10_n03792782_7101.png
subject-01,1,700,1.20579218864441,elephant,bicycle,0.60,0700_nse_s01_0.60_bicycle_10_n02835271_358.png
subject-01,1,701,0.931414842605591,dog,dog,0.03,0701_nse_s01_0.03_dog_10_n02092002_15319.png
subject-01,1,702,0.831377029418945,airplane,airplane,0.10,0702_nse_s01_0.10_airplane_10_n02690373_3818.png
subject-01,1,703,1.04713892936707,dog,dog,0.10,0703_nse_s01_0.10_dog_10_n02097130_7349.png
subject-01,1,704,0.763152837753296,bear,elephant,0.20,0704_nse_s01_0.20_elephant_10_n02504013_7210.png
subject-01,1,705,1.24507403373718,bottle,clock,0.20,0705_nse_s01_0.20_clock_10_n04548280_1109.png
subject-01,1,706,1.3946681022644,airplane,boat,0.35,0706_nse_s01_0.35_boat_10_n03344393_4143.png
subject-01,1,707,0.710564136505127,oven,oven,0.60,0707_nse_s01_0.60_oven_10_n04111531_326.png
subject-01,1,708,1.03225803375244,boat,bottle,0.35,0708_nse_s01_0.35_bottle_10_n04557648_3529.png
subject-01,1,709,0.945978879928589,bird,knife,0.90,0709_nse_s01_0.90_knife_10_n03041632_27960.png
subject-01,1,710,1.07627296447754,elephant,elephant,0.00,0710_nse_s01_0.00_elephant_10_n02504458_8889.png
subject-01,1,711,1.02184987068176,knife,knife,0.05,0711_nse_s01_0.05_knife_10_n03041632_38610.png
subject-01,1,712,1.17354011535645,bear,bear,0.00,0712_nse_s01_0.00_bear_10_n02132136_2263.png
subject-01,1,713,0.787452936172485,bicycle,bicycle,0.03,0713_nse_s01_0.03_bicycle_10_n02835271_6167.png
subject-01,1,714,0.727107048034668,bird,bird,0.00,0714_nse_s01_0.00_bird_10_n02027492_597.png
subject-01,1,715,1.34896111488342,car,boat,0.60,0715_nse_s01_0.60_boat_10_n03662601_7585.png
subject-01,1,716,NaN,na,knife,0.10,0716_nse_s01_0.10_knife_10_n03041632_22738.png
subject-01,1,717,0.584571838378906,clock,clock,0.10,0717_nse_s01_0.10_clock_10_n03196217_3140.png
subject-01,1,718,0.994802951812744,bear,truck,0.90,0718_nse_s01_0.90_truck_10_n03417042_27988.png
subject-01,1,719,0.83452296257019,bear,bear,0.60,0719_nse_s01_0.60_bear_10_n02133161_97.png
subject-01,1,720,0.688039064407349,bottle,bottle,0.10,0720_nse_s01_0.10_bottle_10_n04579145_815.png
subject-01,1,721,0.684341907501221,clock,clock,0.05,0721_nse_s01_0.05_clock_10_n03196217_8792.png
subject-01,1,722,0.824212074279785,car,clock,0.90,0722_nse_s01_0.90_clock_10_n04548280_2827.png
subject-01,1,723,0.937698125839233,knife,knife,0.35,0723_nse_s01_0.35_knife_10_n03041632_2153.png
subject-01,1,724,0.801504135131836,bicycle,car,0.60,0724_nse_s01_0.60_car_10_n04285008_5078.png
subject-01,1,725,0.639389038085938,cat,airplane,0.60,0725_nse_s01_0.60_airplane_10_n02690373_3377.png
subject-01,1,726,0.577291965484619,bicycle,bicycle,0.20,0726_nse_s01_0.20_bicycle_10_n02835271_22623.png
subject-01,1,727,0.719166994094849,boat,boat,0.00,0727_nse_s01_0.00_boat_10_n03344393_1125.png
subject-01,1,728,0.665031909942627,keyboard,keyboard,0.10,0728_nse_s01_0.10_keyboard_10_n04505470_4507.png
subject-01,1,729,0.934698104858398,knife,knife,0.00,0729_nse_s01_0.00_knife_10_n03041632_25512.png
subject-01,1,730,0.872566938400269,airplane,airplane,0.35,0730_nse_s01_0.35_airplane_10_n02690373_8524.png
subject-01,1,731,1.34833312034607,airplane,airplane,0.10,0731_nse_s01_0.10_airplane_10_n02690373_2521.png
subject-01,1,732,0.786040067672729,clock,clock,0.35,0732_nse_s01_0.35_clock_10_n02708093_4415.png
subject-01,1,733,1.12604212760925,bear,bear,0.10,0733_nse_s01_0.10_bear_10_n02132136_7253.png
subject-01,1,734,1.22581815719604,car,knife,0.20,0734_nse_s01_0.20_knife_10_n03041632_7448.png
subject-01,1,735,1.16369605064392,dog,dog,0.20,0735_nse_s01_0.20_dog_10_n02110185_10879.png
subject-01,1,736,1.24738311767578,cat,keyboard,0.00,0736_nse_s01_0.00_keyboard_10_n03085013_23289.png
subject-01,1,737,1.27545785903931,airplane,chair,0.35,0737_nse_s01_0.35_chair_10_n04099969_6425.png
subject-01,1,738,1.15478801727295,keyboard,keyboard,0.03,0738_nse_s01_0.03_keyboard_10_n03085013_23697.png
subject-01,1,739,1.07469391822815,bear,bear,0.00,0739_nse_s01_0.00_bear_10_n02133161_11816.png
subject-01,1,740,1.21051597595215,dog,dog,0.35,0740_nse_s01_0.35_dog_10_n02097474_10860.png
subject-01,1,741,1.26880216598511,car,car,0.05,0741_nse_s01_0.05_car_10_n02814533_59264.png
subject-01,1,742,1.02032113075256,boat,boat,0.03,0742_nse_s01_0.03_boat_10_n03344393_6577.png
subject-01,1,743,0.778048038482666,cat,car,0.60,0743_nse_s01_0.60_car_10_n04285008_12501.png
subject-01,1,744,1.03193187713623,airplane,dog,0.90,0744_nse_s01_0.90_dog_10_n02105505_6715.png
subject-01,1,745,1.37155389785767,cat,elephant,0.90,0745_nse_s01_0.90_elephant_10_n02504458_12555.png
subject-01,1,746,0.659526824951172,cat,cat,0.35,0746_nse_s01_0.35_cat_10_n02123159_5950.png
subject-01,1,747,1.27326488494873,car,bird,0.90,0747_nse_s01_0.90_bird_10_n02018795_5868.png
subject-01,1,748,0.957514047622681,dog,dog,0.05,0748_nse_s01_0.05_dog_10_n02086646_4881.png
subject-01,1,749,1.10317993164062,cat,chair,0.60,0749_nse_s01_0.60_chair_10_n04099969_3052.png
subject-01,1,750,1.02910590171814,truck,truck,0.03,0750_nse_s01_0.03_truck_10_n03796401_6444.png
subject-01,1,751,1.49999904632568,knife,truck,0.05,0751_nse_s01_0.05_truck_10_n03417042_94.png
subject-01,1,752,0.828217029571533,cat,knife,0.35,0752_nse_s01_0.35_knife_10_n03041632_54732.png
subject-01,1,753,0.762292146682739,knife,knife,0.10,0753_nse_s01_0.10_knife_10_n03041632_29862.png
subject-01,1,754,0.819952011108398,cat,bird,0.60,0754_nse_s01_0.60_bird_10_n01530575_280.png
subject-01,1,755,0.60178017616272,boat,boat,0.00,0755_nse_s01_0.00_boat_10_n03662601_8398.png
subject-01,1,756,NaN,na,chair,0.05,0756_nse_s01_0.05_chair_10_n04099969_5242.png
subject-01,1,757,1.29731392860413,bird,bicycle,0.60,0757_nse_s01_0.60_bicycle_10_n02835271_5821.png
subject-01,1,758,0.943202018737793,dog,bicycle,0.90,0758_nse_s01_0.90_bicycle_10_n03792782_37794.png
subject-01,1,759,0.867177963256836,bicycle,bicycle,0.10,0759_nse_s01_0.10_bicycle_10_n02835271_8324.png
subject-01,1,760,0.838725805282593,chair,chair,0.10,0760_nse_s01_0.10_chair_10_n04099969_3393.png
subject-01,1,761,1.24901390075684,dog,bottle,0.90,0761_nse_s01_0.90_bottle_10_n03937543_4463.png
subject-01,1,762,0.94882607460022,truck,truck,0.05,0762_nse_s01_0.05_truck_10_n03796401_13349.png
subject-01,1,763,1.50011110305786,chair,chair,0.03,0763_nse_s01_0.03_chair_10_n04099969_5453.png
subject-01,1,764,1.17841100692749,chair,chair,0.05,0764_nse_s01_0.05_chair_10_n02791124_7142.png
subject-01,1,765,1.45377111434937,knife,oven,0.00,0765_nse_s01_0.00_oven_10_n04111531_3270.png
subject-01,1,766,1.34399700164795,clock,oven,0.20,0766_nse_s01_0.20_oven_10_n04111531_5727.png
subject-01,1,767,1.33139204978943,chair,knife,0.00,0767_nse_s01_0.00_knife_10_n03041632_19614.png
subject-01,1,768,1.38944005966187,bicycle,bicycle,0.35,0768_nse_s01_0.35_bicycle_10_n02835271_24131.png
subject-01,1,769,0.829275846481323,bird,bird,0.00,0769_nse_s01_0.00_bird_10_n01820546_4535.png
subject-01,1,770,0.561148881912231,clock,clock,0.20,0770_nse_s01_0.20_clock_10_n03196217_5827.png
subject-01,1,771,0.914711952209473,cat,car,0.90,0771_nse_s01_0.90_car_10_n03100240_1065.png
subject-01,1,772,0.792434930801392,car,truck,0.35,0772_nse_s01_0.35_truck_10_n04467665_47602.png
subject-01,1,773,1.40045595169067,bear,bicycle,0.90,0773_nse_s01_0.90_bicycle_10_n02835271_9116.png
subject-01,1,774,1.04462790489197,car,car,0.10,0774_nse_s01_0.10_car_10_n03100240_4071.png
subject-01,1,775,0.904186010360718,airplane,bird,0.90,0775_nse_s01_0.90_bird_10_n01843383_4896.png
subject-01,1,776,0.95983099937439,elephant,elephant,0.35,0776_nse_s01_0.35_elephant_10_n02504013_20042.png
subject-01,1,777,1.27358198165894,keyboard,clock,0.90,0777_nse_s01_0.90_clock_10_n04548280_3053.png
subject-01,1,778,0.903424978256226,oven,oven,0.03,0778_nse_s01_0.03_oven_10_n04111531_7449.png
subject-01,1,779,1.40533399581909,bottle,truck,0.10,0779_nse_s01_0.10_truck_10_n03417042_5380.png
subject-01,1,780,0.803092002868652,bird,bird,0.10,0780_nse_s01_0.10_bird_10_n02002556_5468.png
subject-01,1,781,1.01889300346375,bird,bird,0.03,0781_nse_s01_0.03_bird_10_n02025239_19864.png
subject-01,1,782,0.748847007751465,bicycle,bicycle,0.03,0782_nse_s01_0.03_bicycle_10_n03792782_3299.png
subject-01,1,783,1.12845897674561,clock,boat,0.03,0783_nse_s01_0.03_boat_10_n03344393_8545.png
subject-01,1,784,1.11844491958618,bird,bird,0.05,0784_nse_s01_0.05_bird_10_n01820546_3203.png
subject-01,1,785,0.896180868148804,bird,knife,0.03,0785_nse_s01_0.03_knife_10_n03041632_29580.png
subject-01,1,786,0.98415994644165,airplane,bird,0.60,0786_nse_s01_0.60_bird_10_n01530575_10612.png
subject-01,1,787,0.797850847244263,car,cat,0.35,0787_nse_s01_0.35_cat_10_n02123159_3299.png
subject-01,1,788,1.50003504753113,car,bear,0.10,0788_nse_s01_0.10_bear_10_n02134418_1749.png
subject-01,1,789,0.575484991073608,elephant,elephant,0.03,0789_nse_s01_0.03_elephant_10_n02504458_2135.png
subject-01,1,790,1.50011301040649,keyboard,keyboard,0.10,0790_nse_s01_0.10_keyboard_10_n04505470_4521.png
subject-01,1,791,0.830923080444336,truck,keyboard,0.60,0791_nse_s01_0.60_keyboard_10_n03085013_23790.png
subject-01,1,792,1.08678197860718,car,bottle,0.60,0792_nse_s01_0.60_bottle_10_n04579145_2485.png
subject-01,1,793,1.03270697593689,elephant,elephant,0.10,0793_nse_s01_0.10_elephant_10_n02504458_2054.png
subject-01,1,794,0.942783117294312,truck,truck,0.00,0794_nse_s01_0.00_truck_10_n03417042_943.png
subject-01,1,795,1.15033102035522,bear,bear,0.03,0795_nse_s01_0.03_bear_10_n02132136_9735.png
subject-01,1,796,1.28213906288147,bird,bird,0.35,0796_nse_s01_0.35_bird_10_n01819313_358.png
subject-01,1,797,1.30005502700806,boat,boat,0.00,0797_nse_s01_0.00_boat_10_n03662601_31508.png
subject-01,1,798,0.871778011322021,airplane,airplane,0.20,0798_nse_s01_0.20_airplane_10_n02690373_4201.png
subject-01,1,799,0.845605134963989,cat,cat,0.20,0799_nse_s01_0.20_cat_10_n02124075_12622.png
subject-01,1,800,1.4999988079071,chair,bottle,0.20,0800_nse_s01_0.20_bottle_10_n04560804_9981.png
subject-01,1,801,0.651796102523804,airplane,airplane,0.00,0801_nse_s01_0.00_airplane_10_n02690373_17722.png
subject-01,1,802,0.905668020248413,bear,bear,0.05,0802_nse_s01_0.05_bear_10_n02132136_10412.png
subject-01,1,803,0.705582857131958,bear,bear,0.10,0803_nse_s01_0.10_bear_10_n02133161_431.png
subject-01,1,804,1.15719103813171,bird,knife,0.60,0804_nse_s01_0.60_knife_10_n03041632_2468.png
subject-01,1,805,1.06296801567078,bicycle,bicycle,0.00,0805_nse_s01_0.00_bicycle_10_n02835271_9297.png
subject-01,1,806,1.50013589859009,keyboard,airplane,0.10,0806_nse_s01_0.10_airplane_10_n02690373_10285.png
subject-01,1,807,0.842684030532837,car,car,0.00,0807_nse_s01_0.00_car_10_n03100240_9639.png
subject-01,1,808,0.696403980255127,bear,elephant,0.90,0808_nse_s01_0.90_elephant_10_n02504458_4139.png
subject-01,1,809,0.770492076873779,dog,clock,0.90,0809_nse_s01_0.90_clock_10_n02708093_6967.png
subject-01,1,810,1.16430687904358,elephant,elephant,0.03,0810_nse_s01_0.03_elephant_10_n02504013_2385.png
subject-01,1,811,0.899976968765259,keyboard,airplane,0.90,0811_nse_s01_0.90_airplane_10_n02690373_5328.png
subject-01,1,812,0.885687112808228,boat,boat,0.05,0812_nse_s01_0.05_boat_10_n03344393_7433.png
subject-01,1,813,0.74762487411499,elephant,elephant,0.00,0813_nse_s01_0.00_elephant_10_n02504013_5397.png
subject-01,1,814,1.01165390014648,elephant,elephant,0.00,0814_nse_s01_0.00_elephant_10_n02504458_6424.png
subject-01,1,815,1.0212550163269,keyboard,oven,0.60,0815_nse_s01_0.60_oven_10_n04111531_1752.png
subject-01,1,816,0.595078945159912,boat,boat,0.20,0816_nse_s01_0.20_boat_10_n04273569_22495.png
subject-01,1,817,1.20864701271057,cat,bear,0.90,0817_nse_s01_0.90_bear_10_n02133161_10190.png
subject-01,1,818,0.862679004669189,keyboard,keyboard,0.05,0818_nse_s01_0.05_keyboard_10_n03085013_24577.png
subject-01,1,819,0.812421083450317,bicycle,bicycle,0.00,0819_nse_s01_0.00_bicycle_10_n03792782_13608.png
subject-01,1,820,1.08610796928406,keyboard,keyboard,0.03,0820_nse_s01_0.03_keyboard_10_n03085013_24309.png
subject-01,1,821,1.09004306793213,chair,chair,0.20,0821_nse_s01_0.20_chair_10_n03376595_9900.png
subject-01,1,822,1.07196593284607,bottle,knife,0.05,0822_nse_s01_0.05_knife_10_n03041632_33225.png
subject-01,1,823,0.89572811126709,car,elephant,0.60,0823_nse_s01_0.60_elephant_10_n02504013_1132.png
subject-01,1,824,1.29141402244568,cat,oven,0.60,0824_nse_s01_0.60_oven_10_n04111531_13391.png
subject-01,1,825,0.807203054428101,chair,chair,0.00,0825_nse_s01_0.00_chair_10_n04099969_14288.png
subject-01,1,826,0.889346122741699,truck,truck,0.03,0826_nse_s01_0.03_truck_10_n04467665_2098.png
subject-01,1,827,1.39486718177795,car,car,0.00,0827_nse_s01_0.00_car_10_n03100240_4348.png
subject-01,1,828,1.20896506309509,bird,bird,0.00,0828_nse_s01_0.00_bird_10_n02033041_2320.png
subject-01,1,829,0.950623035430908,car,car,0.10,0829_nse_s01_0.10_car_10_n04285008_810.png
subject-01,1,830,0.938335180282593,car,boat,0.35,0830_nse_s01_0.35_boat_10_n02951358_16285.png
subject-01,1,831,0.782224893569946,bear,bear,0.05,0831_nse_s01_0.05_bear_10_n02133161_547.png
subject-01,1,832,1.36607599258423,knife,bottle,0.60,0832_nse_s01_0.60_bottle_10_n04591713_5290.png
subject-01,1,833,0.833920955657959,clock,clock,0.03,0833_nse_s01_0.03_clock_10_n02708093_742.png
subject-01,1,834,1.09764194488525,knife,knife,0.05,0834_nse_s01_0.05_knife_10_n03041632_11797.png
subject-01,1,835,0.997428894042969,truck,truck,0.00,0835_nse_s01_0.00_truck_10_n03417042_12588.png
subject-01,1,836,1.15760397911072,bird,bird,0.20,0836_nse_s01_0.20_bird_10_n02011460_13026.png
subject-01,1,837,1.40311813354492,car,bottle,0.35,0837_nse_s01_0.35_bottle_10_n03983396_10174.png
subject-01,1,838,0.866990804672241,bird,bird,0.10,0838_nse_s01_0.10_bird_10_n02051845_33968.png
subject-01,1,839,1.26068305969238,elephant,knife,0.60,0839_nse_s01_0.60_knife_10_n03041632_13645.png
subject-01,1,840,0.816421985626221,cat,cat,0.00,0840_nse_s01_0.00_cat_10_n02123159_5799.png
subject-01,1,841,1.15829992294312,elephant,elephant,0.60,0841_nse_s01_0.60_elephant_10_n02504458_12368.png
subject-01,1,842,0.942232131958008,keyboard,keyboard,0.05,0842_nse_s01_0.05_keyboard_10_n03085013_19504.png
subject-01,1,843,1.16991710662842,dog,knife,0.60,0843_nse_s01_0.60_knife_10_n03041632_14766.png
subject-01,1,844,NaN,na,airplane,0.10,0844_nse_s01_0.10_airplane_10_n02690373_3753.png
subject-01,1,845,0.757545948028564,chair,chair,0.00,0845_nse_s01_0.00_chair_10_n03376595_11352.png
subject-01,1,846,0.617404937744141,boat,boat,0.05,0846_nse_s01_0.05_boat_10_n03344393_2937.png
subject-01,1,847,1.18706893920898,boat,bear,0.00,0847_nse_s01_0.00_bear_10_n02132136_25897.png
subject-01,1,848,1.05503797531128,airplane,oven,0.05,0848_nse_s01_0.05_oven_10_n04111531_2630.png
subject-01,1,849,0.939136981964111,bear,bear,0.03,0849_nse_s01_0.03_bear_10_n02132136_50.png
subject-01,1,850,0.796627998352051,chair,chair,0.05,0850_nse_s01_0.05_chair_10_n04099969_2694.png
subject-01,1,851,0.836445093154907,clock,clock,0.05,0851_nse_s01_0.05_clock_10_n03196217_3868.png
subject-01,1,852,1.04457092285156,truck,airplane,0.60,0852_nse_s01_0.60_airplane_10_n02690373_6285.png
subject-01,1,853,1.50006008148193,dog,bird,0.35,0853_nse_s01_0.35_bird_10_n01833805_6289.png
subject-01,1,854,0.837929010391235,clock,clock,0.60,0854_nse_s01_0.60_clock_10_n02708093_1100.png
subject-01,1,855,1.02192306518555,truck,truck,0.10,0855_nse_s01_0.10_truck_10_n03796401_21198.png
subject-01,1,856,1.09551119804382,bird,elephant,0.90,0856_nse_s01_0.90_elephant_10_n02504013_1255.png
subject-01,1,857,0.73528003692627,bicycle,bicycle,0.20,0857_nse_s01_0.20_bicycle_10_n03792782_11417.png
subject-01,1,858,0.785041093826294,boat,boat,0.00,0858_nse_s01_0.00_boat_10_n04612504_7446.png
subject-01,1,859,0.676959037780762,keyboard,bicycle,0.90,0859_nse_s01_0.90_bicycle_10_n03792782_30942.png
subject-01,1,860,1.10702800750732,dog,bear,0.90,0860_nse_s01_0.90_bear_10_n02132136_4636.png
subject-01,1,861,0.900603055953979,airplane,airplane,0.00,0861_nse_s01_0.00_airplane_10_n02690373_563.png
subject-01,1,862,1.49626994132996,airplane,oven,0.10,0862_nse_s01_0.10_oven_10_n04111531_7600.png
subject-01,1,863,0.906219005584717,keyboard,keyboard,0.05,0863_nse_s01_0.05_keyboard_10_n04505470_1043.png
subject-01,1,864,0.731971979141235,cat,cat,0.03,0864_nse_s01_0.03_cat_10_n02123394_6828.png
subject-01,1,865,0.92973804473877,car,airplane,0.60,0865_nse_s01_0.60_airplane_10_n02690373_9001.png
subject-01,1,866,1.19763016700745,clock,knife,0.90,0866_nse_s01_0.90_knife_10_n03041632_7116.png
subject-01,1,867,0.715245962142944,car,car,0.03,0867_nse_s01_0.03_car_10_n03100240_15979.png
subject-01,1,868,1.22323203086853,bear,bear,0.20,0868_nse_s01_0.20_bear_10_n02134418_289.png
subject-01,1,869,0.738951206207275,airplane,airplane,0.05,0869_nse_s01_0.05_airplane_10_n02690373_9535.png
subject-01,1,870,1.06696820259094,car,oven,0.05,0870_nse_s01_0.05_oven_10_n04111531_22872.png
subject-01,1,871,1.47069787979126,clock,chair,0.00,0871_nse_s01_0.00_chair_10_n03376595_6012.png
subject-01,1,872,1.30667185783386,clock,chair,0.05,0872_nse_s01_0.05_chair_10_n02791124_4595.png
subject-01,1,873,1.17433714866638,knife,knife,0.00,0873_nse_s01_0.00_knife_10_n03041632_45636.png
subject-01,1,874,1.43620014190674,oven,oven,0.20,0874_nse_s01_0.20_oven_10_n04111531_8144.png
subject-01,1,875,1.03790402412415,chair,chair,0.20,0875_nse_s01_0.20_chair_10_n04429376_19459.png
subject-01,1,876,1.06984496116638,cat,bear,0.10,0876_nse_s01_0.10_bear_10_n02134084_11993.png
subject-01,1,877,1.47748398780823,knife,bicycle,0.35,0877_nse_s01_0.35_bicycle_10_n02835271_845.png
subject-01,1,878,1.08916306495667,car,knife,0.60,0878_nse_s01_0.60_knife_10_n03041632_16826.png
subject-01,1,879,0.859128952026367,bottle,bottle,0.20,0879_nse_s01_0.20_bottle_10_n04557648_2075.png
subject-01,1,880,0.994894027709961,airplane,cat,0.60,0880_nse_s01_0.60_cat_10_n02123159_6596.png
subject-01,1,881,1.16450905799866,dog,cat,0.05,0881_nse_s01_0.05_cat_10_n02124075_8799.png
subject-01,1,882,1.1408109664917,dog,dog,0.00,0882_nse_s01_0.00_dog_10_n02107683_6800.png
subject-01,1,883,0.776369094848633,keyboard,keyboard,0.03,0883_nse_s01_0.03_keyboard_10_n04505470_4983.png
subject-01,1,884,0.477976083755493,cat,cat,0.05,0884_nse_s01_0.05_cat_10_n02123045_5381.png
subject-01,1,885,0.836025953292847,keyboard,keyboard,0.10,0885_nse_s01_0.10_keyboard_10_n03085013_2073.png
subject-01,1,886,0.871556043624878,keyboard,keyboard,0.35,0886_nse_s01_0.35_keyboard_10_n04505470_2141.png
subject-01,1,887,0.747509956359863,car,elephant,0.90,0887_nse_s01_0.90_elephant_10_n02504013_1125.png
subject-01,1,888,0.715264081954956,cat,elephant,0.60,0888_nse_s01_0.60_elephant_10_n02504458_4824.png
subject-01,1,889,0.680906057357788,bird,bird,0.00,0889_nse_s01_0.00_bird_10_n01560419_2432.png
subject-01,1,890,1.07485389709473,truck,truck,0.03,0890_nse_s01_0.03_truck_10_n03417042_12874.png
subject-01,1,891,1.12670397758484,knife,knife,0.35,0891_nse_s01_0.35_knife_10_n03041632_36390.png
subject-01,1,892,0.898518085479736,clock,clock,0.03,0892_nse_s01_0.03_clock_10_n04548280_9752.png
subject-01,1,893,0.930104970932007,dog,knife,0.05,0893_nse_s01_0.05_knife_10_n03041632_19098.png
subject-01,1,894,0.706031084060669,keyboard,keyboard,0.35,0894_nse_s01_0.35_keyboard_10_n03085013_20784.png
subject-01,1,895,0.669879913330078,boat,boat,0.05,0895_nse_s01_0.05_boat_10_n04612504_15898.png
subject-01,1,896,1.05387592315674,cat,cat,0.35,0896_nse_s01_0.35_cat_10_n02123159_3083.png
subject-01,1,897,1.03584289550781,boat,boat,0.03,0897_nse_s01_0.03_boat_10_n02951358_512.png
subject-01,1,898,1.00922203063965,bird,bird,0.03,0898_nse_s01_0.03_bird_10_n01843065_654.png
subject-01,1,899,0.627220869064331,airplane,airplane,0.20,0899_nse_s01_0.20_airplane_10_n02690373_4136.png
subject-01,1,900,1.41091513633728,clock,airplane,0.35,0900_nse_s01_0.35_airplane_10_n02690373_3212.png
subject-01,1,901,1.1488139629364,truck,bottle,0.90,0901_nse_s01_0.90_bottle_10_n04560804_7375.png
subject-01,1,902,1.07085180282593,cat,bottle,0.35,0902_nse_s01_0.35_bottle_10_n04591713_6138.png
subject-01,1,903,1.04844403266907,bear,bear,0.03,0903_nse_s01_0.03_bear_10_n02134084_16632.png
subject-01,1,904,1.09833598136902,keyboard,oven,0.10,0904_nse_s01_0.10_oven_10_n04111531_12129.png
subject-01,1,905,0.791927099227905,bird,bottle,0.90,0905_nse_s01_0.90_bottle_10_n04579145_3830.png
subject-01,1,906,1.50011301040649,bird,bird,0.90,0906_nse_s01_0.90_bird_10_n01530575_310.png
subject-01,1,907,NaN,na,elephant,0.05,0907_nse_s01_0.05_elephant_10_n02504458_2965.png
subject-01,1,908,0.641807079315186,cat,chair,0.60,0908_nse_s01_0.60_chair_10_n02791124_5089.png
subject-01,1,909,0.831176042556763,car,car,0.05,0909_nse_s01_0.05_car_10_n03100240_9000.png
subject-01,1,910,1.12346601486206,truck,bear,0.90,0910_nse_s01_0.90_bear_10_n02134418_4893.png
subject-01,1,911,0.694921970367432,cat,cat,0.00,0911_nse_s01_0.00_cat_10_n02124075_4116.png
subject-01,1,912,0.816715002059937,bottle,bottle,0.03,0912_nse_s01_0.03_bottle_10_n04560804_13279.png
subject-01,1,913,0.880439043045044,bicycle,bicycle,0.20,0913_nse_s01_0.20_bicycle_10_n03792782_31101.png
subject-01,1,914,0.708280086517334,clock,clock,0.10,0914_nse_s01_0.10_clock_10_n03196217_5441.png
subject-01,1,915,0.612139940261841,clock,clock,0.10,0915_nse_s01_0.10_clock_10_n04548280_4738.png
subject-01,1,916,0.746016979217529,bicycle,bicycle,0.10,0916_nse_s01_0.10_bicycle_10_n03792782_11921.png
subject-01,1,917,0.845729827880859,bicycle,bicycle,0.05,0917_nse_s01_0.05_bicycle_10_n02835271_1530.png
subject-01,1,918,1.02748489379883,bicycle,airplane,0.00,0918_nse_s01_0.00_airplane_10_n02690373_6031.png
subject-01,1,919,0.723620891571045,bird,bird,0.20,0919_nse_s01_0.20_bird_10_n02033041_17119.png
subject-01,1,920,0.86932110786438,car,oven,0.60,0920_nse_s01_0.60_oven_10_n04111531_9915.png
subject-01,1,921,1.28512907028198,bicycle,bicycle,0.00,0921_nse_s01_0.00_bicycle_10_n02835271_8617.png
subject-01,1,922,0.812934875488281,boat,keyboard,0.60,0922_nse_s01_0.60_keyboard_10_n03085013_23718.png
subject-01,1,923,0.918551921844482,airplane,bottle,0.10,0923_nse_s01_0.10_bottle_10_n03937543_1290.png
subject-01,1,924,0.694631099700928,car,cat,0.60,0924_nse_s01_0.60_cat_10_n02125311_22037.png
subject-01,1,925,0.666167020797729,chair,chair,0.35,0925_nse_s01_0.35_chair_10_n03376595_7515.png
subject-01,1,926,0.968011140823364,bear,chair,0.60,0926_nse_s01_0.60_chair_10_n03376595_8995.png
subject-01,1,927,1.25381517410278,boat,boat,0.05,0927_nse_s01_0.05_boat_10_n03662601_19809.png
subject-01,1,928,1.1159610748291,bicycle,bicycle,0.20,0928_nse_s01_0.20_bicycle_10_n03792782_50446.png
subject-01,1,929,1.50005888938904,car,airplane,0.60,0929_nse_s01_0.60_airplane_10_n02690373_7115.png
subject-01,1,930,1.15538096427917,bear,bear,0.00,0930_nse_s01_0.00_bear_10_n02134084_12389.png
subject-01,1,931,0.845330953598022,elephant,dog,0.90,0931_nse_s01_0.90_dog_10_n02105162_10475.png
subject-01,1,932,0.89093804359436,clock,oven,0.03,0932_nse_s01_0.03_oven_10_n04111531_11669.png
subject-01,1,933,0.916675806045532,airplane,dog,0.60,0933_nse_s01_0.60_dog_10_n02113023_6945.png
subject-01,1,934,0.906607151031494,bicycle,bear,0.90,0934_nse_s01_0.90_bear_10_n02133161_16103.png
subject-01,1,935,0.986333847045898,elephant,elephant,0.10,0935_nse_s01_0.10_elephant_10_n02504013_7553.png
subject-01,1,936,0.754156112670898,bear,bear,0.60,0936_nse_s01_0.60_bear_10_n02133161_830.png
subject-01,1,937,0.756247997283936,bird,knife,0.60,0937_nse_s01_0.60_knife_10_n03041632_37618.png
subject-01,1,938,0.617985010147095,airplane,knife,0.20,0938_nse_s01_0.20_knife_10_n03041632_46103.png
subject-01,1,939,0.918123006820679,clock,clock,0.03,0939_nse_s01_0.03_clock_10_n02708093_3213.png
subject-01,1,940,0.711251020431519,bottle,truck,0.35,0940_nse_s01_0.35_truck_10_n03417042_10751.png
subject-01,1,941,0.65919303894043,car,bottle,0.60,0941_nse_s01_0.60_bottle_10_n04591713_765.png
subject-01,1,942,1.50015592575073,oven,oven,0.03,0942_nse_s01_0.03_oven_10_n04111531_9474.png
subject-01,1,943,1.41311097145081,cat,truck,0.60,0943_nse_s01_0.60_truck_10_n04467665_33099.png
subject-01,1,944,0.906557083129883,clock,clock,0.03,0944_nse_s01_0.03_clock_10_n04548280_4872.png
subject-01,1,945,1.16642498970032,car,car,0.35,0945_nse_s01_0.35_car_10_n02814533_16978.png
subject-01,1,946,1.16654801368713,chair,keyboard,0.90,0946_nse_s01_0.90_keyboard_10_n03085013_20152.png
subject-01,1,947,0.838021993637085,car,car,0.20,0947_nse_s01_0.20_car_10_n04285008_5788.png
subject-01,1,948,1.10784697532654,dog,knife,0.90,0948_nse_s01_0.90_knife_10_n03041632_41493.png
subject-01,1,949,1.03361701965332,airplane,airplane,0.05,0949_nse_s01_0.05_airplane_10_n02690373_1751.png
subject-01,1,950,1.49999499320984,bird,keyboard,0.05,0950_nse_s01_0.05_keyboard_10_n03085013_23865.png
subject-01,1,951,1.32535290718079,dog,cat,0.05,0951_nse_s01_0.05_cat_10_n02123045_10433.png
subject-01,1,952,1.03300499916077,bottle,chair,0.10,0952_nse_s01_0.10_chair_10_n02791124_7335.png
subject-01,1,953,0.764810800552368,bicycle,bicycle,0.03,0953_nse_s01_0.03_bicycle_10_n02835271_3135.png
subject-01,1,954,1.09868502616882,car,car,0.20,0954_nse_s01_0.20_car_10_n02814533_7028.png
subject-01,1,955,1.44261503219604,cat,oven,0.05,0955_nse_s01_0.05_oven_10_n04111531_9314.png
subject-01,1,956,1.12828898429871,knife,knife,0.10,0956_nse_s01_0.10_knife_10_n03041632_43289.png
subject-01,1,957,1.13425588607788,car,truck,0.20,0957_nse_s01_0.20_truck_10_n03796401_3191.png
subject-01,1,958,1.34004402160645,boat,car,0.05,0958_nse_s01_0.05_car_10_n03100240_9305.png
subject-01,1,959,0.91199803352356,truck,bicycle,0.60,0959_nse_s01_0.60_bicycle_10_n02835271_12799.png
subject-01,1,960,1.04946899414062,bottle,bottle,0.10,0960_nse_s01_0.10_bottle_10_n04591713_1978.png
subject-01,1,961,1.34753608703613,truck,truck,0.10,0961_nse_s01_0.10_truck_10_n04467665_68821.png
subject-01,1,962,1.50005602836609,dog,bear,0.35,0962_nse_s01_0.35_bear_10_n02133161_1205.png
subject-01,1,963,0.717519044876099,elephant,elephant,0.03,0963_nse_s01_0.03_elephant_10_n02504458_7822.png
subject-01,1,964,0.642956018447876,bird,bird,0.05,0964_nse_s01_0.05_bird_10_n02027492_9899.png
subject-01,1,965,0.834748983383179,boat,boat,0.05,0965_nse_s01_0.05_boat_10_n02951358_34116.png
subject-01,1,966,NaN,na,keyboard,0.20,0966_nse_s01_0.20_keyboard_10_n03085013_7605.png
subject-01,1,967,0.678436994552612,clock,truck,0.60,0967_nse_s01_0.60_truck_10_n03796401_7694.png
subject-01,1,968,0.896347999572754,car,boat,0.90,0968_nse_s01_0.90_boat_10_n03662601_3913.png
subject-01,1,969,0.868155002593994,knife,knife,0.00,0969_nse_s01_0.00_knife_10_n03041632_52929.png
subject-01,1,970,0.742258071899414,bicycle,bicycle,0.10,0970_nse_s01_0.10_bicycle_10_n02835271_3619.png
subject-01,1,971,1.13163590431213,car,truck,0.90,0971_nse_s01_0.90_truck_10_n03796401_1446.png
subject-01,1,972,0.8194739818573,airplane,boat,0.20,0972_nse_s01_0.20_boat_10_n03662601_5529.png
subject-01,1,973,1.17724204063416,knife,keyboard,0.35,0973_nse_s01_0.35_keyboard_10_n04505470_3425.png
subject-01,1,974,0.889203071594238,airplane,airplane,0.00,0974_nse_s01_0.00_airplane_10_n02690373_5967.png
subject-01,1,975,0.996816873550415,bear,dog,0.05,0975_nse_s01_0.05_dog_10_n02096051_1308.png
subject-01,1,976,NaN,na,boat,0.10,0976_nse_s01_0.10_boat_10_n04612504_6308.png
subject-01,1,977,1.02052998542786,bear,bear,0.35,0977_nse_s01_0.35_bear_10_n02133161_5927.png
subject-01,1,978,0.750272989273071,bear,dog,0.35,0978_nse_s01_0.35_dog_10_n02110958_6868.png
subject-01,1,979,0.778450012207031,cat,elephant,0.60,0979_nse_s01_0.60_elephant_10_n02504013_1110.png
subject-01,1,980,NaN,na,truck,0.20,0980_nse_s01_0.20_truck_10_n03417042_4994.png
subject-01,1,981,1.01773905754089,bird,keyboard,0.60,0981_nse_s01_0.60_keyboard_10_n03085013_25066.png
subject-01,1,982,0.609623908996582,airplane,airplane,0.90,0982_nse_s01_0.90_airplane_10_n02690373_1862.png
subject-01,1,983,0.665296077728271,car,knife,0.10,0983_nse_s01_0.10_knife_10_n03041632_11887.png
subject-01,1,984,0.821572065353394,elephant,elephant,0.20,0984_nse_s01_0.20_elephant_10_n02504013_3939.png
subject-01,1,985,1.01533603668213,car,keyboard,0.35,0985_nse_s01_0.35_keyboard_10_n04505470_4565.png
subject-01,1,986,1.17290687561035,keyboard,keyboard,0.03,0986_nse_s01_0.03_keyboard_10_n04505470_1651.png
subject-01,1,987,1.36676406860352,dog,truck,0.60,0987_nse_s01_0.60_truck_10_n03417042_8145.png
subject-01,1,988,1.43253684043884,chair,chair,0.05,0988_nse_s01_0.05_chair_10_n02791124_2470.png
subject-01,1,989,1.50010204315186,knife,knife,0.03,0989_nse_s01_0.03_knife_10_n03041632_94202.png
subject-01,1,990,1.03808808326721,keyboard,keyboard,0.20,0990_nse_s01_0.20_keyboard_10_n03085013_22597.png
subject-01,1,991,1.28595495223999,truck,chair,0.03,0991_nse_s01_0.03_chair_10_n02791124_7483.png
subject-01,1,992,0.933601140975952,airplane,airplane,0.03,0992_nse_s01_0.03_airplane_10_n02690373_1038.png
subject-01,1,993,1.11948394775391,boat,oven,0.20,0993_nse_s01_0.20_oven_10_n04111531_6024.png
subject-01,1,994,0.703313112258911,cat,bear,0.35,0994_nse_s01_0.35_bear_10_n02134418_2502.png
subject-01,1,995,0.787158012390137,bear,truck,0.35,0995_nse_s01_0.35_truck_10_n03417042_8928.png
subject-01,1,996,0.723214149475098,keyboard,keyboard,0.00,0996_nse_s01_0.00_keyboard_10_n04505470_4682.png
subject-01,1,997,0.814662933349609,bicycle,airplane,0.90,0997_nse_s01_0.90_airplane_10_n02690373_427.png
subject-01,1,998,0.890750885009766,cat,bear,0.05,0998_nse_s01_0.05_bear_10_n02134084_473.png
subject-01,1,999,1.22679591178894,chair,chair,0.00,0999_nse_s01_0.00_chair_10_n04099969_6395.png
subject-01,1,1000,0.680256128311157,truck,truck,0.05,1000_nse_s01_0.05_truck_10_n03796401_30000.png
subject-01,1,1001,1.00014281272888,bird,keyboard,0.35,1001_nse_s01_0.35_keyboard_10_n04505470_8620.png
subject-01,1,1002,1.18016195297241,bear,dog,0.90,1002_nse_s01_0.90_dog_10_n02110806_5609.png
subject-01,1,1003,0.741732120513916,keyboard,clock,0.20,1003_nse_s01_0.20_clock_10_n03196217_445.png
subject-01,1,1004,0.673540115356445,cat,dog,0.60,1004_nse_s01_0.60_dog_10_n02093428_6133.png
subject-01,1,1005,0.793287038803101,cat,cat,0.60,1005_nse_s01_0.60_cat_10_n02124075_9939.png
subject-01,1,1006,0.643177032470703,truck,chair,0.90,1006_nse_s01_0.90_chair_10_n02791124_15383.png
subject-01,1,1007,1.50008797645569,dog,cat,0.20,1007_nse_s01_0.20_cat_10_n02123597_1750.png
subject-01,1,1008,0.917093992233276,airplane,car,0.60,1008_nse_s01_0.60_car_10_n03100240_9875.png
subject-01,1,1009,0.742901086807251,keyboard,keyboard,0.00,1009_nse_s01_0.00_keyboard_10_n04505470_1052.png
subject-01,1,1010,0.608425855636597,boat,boat,0.10,1010_nse_s01_0.10_boat_10_n04273569_1012.png
subject-01,1,1011,0.636559963226318,boat,boat,0.03,1011_nse_s01_0.03_boat_10_n03344393_7109.png
subject-01,1,1012,1.29822015762329,bear,bear,0.35,1012_nse_s01_0.35_bear_10_n02134418_2432.png
subject-01,1,1013,0.813778877258301,car,clock,0.35,1013_nse_s01_0.35_clock_10_n02708093_4912.png
subject-01,1,1014,0.841598987579346,car,car,0.20,1014_nse_s01_0.20_car_10_n04285008_13629.png
subject-01,1,1015,0.66745400428772,bicycle,bicycle,0.00,1015_nse_s01_0.00_bicycle_10_n02835271_5056.png
subject-01,1,1016,0.745683908462524,bottle,oven,0.10,1016_nse_s01_0.10_oven_10_n04111531_16198.png
subject-01,1,1017,1.06113314628601,knife,knife,0.20,1017_nse_s01_0.20_knife_10_n03041632_29355.png
subject-01,1,1018,1.1749541759491,clock,clock,0.03,1018_nse_s01_0.03_clock_10_n04548280_6068.png
subject-01,1,1019,0.618643045425415,cat,cat,0.03,1019_nse_s01_0.03_cat_10_n02123394_9542.png
subject-01,1,1020,0.84847092628479,car,car,0.00,1020_nse_s01_0.00_car_10_n02814533_72473.png
subject-01,1,1021,0.890252113342285,truck,keyboard,0.90,1021_nse_s01_0.90_keyboard_10_n04505470_1479.png
subject-01,1,1022,0.990067005157471,keyboard,keyboard,0.03,1022_nse_s01_0.03_keyboard_10_n04505470_4554.png
subject-01,1,1023,0.907979965209961,bicycle,bottle,0.60,1023_nse_s01_0.60_bottle_10_n02823428_3929.png
