subj,Session,trial,rt,object_response,category,condition,imagename
subject-03,1,1,1.4200279712677,bear,elephant,0.20,0001_nse_s03_0.20_elephant_10_n02504458_975.png
subject-03,1,2,NaN,na,keyboard,0.90,0002_nse_s03_0.90_keyboard_10_n03085013_18769.png
subject-03,1,3,0.717967987060547,bottle,bottle,0.00,0003_nse_s03_0.00_bottle_10_n04557648_5627.png
subject-03,1,4,0.82564902305603,knife,knife,0.60,0004_nse_s03_0.60_knife_10_n03041632_48816.png
subject-03,1,5,1.06933879852295,cat,dog,0.35,0005_nse_s03_0.35_dog_10_n02106166_2273.png
subject-03,1,6,1.12114691734314,oven,keyboard,0.20,0006_nse_s03_0.20_keyboard_10_n03085013_20779.png
subject-03,1,7,1.50010991096497,airplane,clock,0.03,0007_nse_s03_0.03_clock_10_n02708093_742.png
subject-03,1,8,1.41883993148804,keyboard,bottle,0.90,0008_nse_s03_0.90_bottle_10_n04557648_907.png
subject-03,1,9,1.29671907424927,boat,keyboard,0.90,0009_nse_s03_0.90_keyboard_10_n03085013_20152.png
subject-03,1,10,1.03448295593262,oven,boat,0.90,0010_nse_s03_0.90_boat_10_n04612504_7148.png
subject-03,1,11,0.874423980712891,chair,chair,0.03,0011_nse_s03_0.03_chair_10_n04099969_5453.png
subject-03,1,12,0.939986944198608,bottle,bottle,0.20,0012_nse_s03_0.20_bottle_10_n02823428_4165.png
subject-03,1,13,0.858026027679443,chair,chair,0.00,0013_nse_s03_0.00_chair_10_n03376595_11352.png
subject-03,1,14,1.22566914558411,car,boat,0.90,0014_nse_s03_0.90_boat_10_n02951358_30335.png
subject-03,1,15,1.13546013832092,car,car,0.20,0015_nse_s03_0.20_car_10_n04285008_5788.png
subject-03,1,16,1.07130813598633,airplane,boat,0.60,0016_nse_s03_0.60_boat_10_n03662601_5995.png
subject-03,1,17,0.699077129364014,boat,boat,0.05,0017_nse_s03_0.05_boat_10_n02951358_34116.png
subject-03,1,18,0.899139165878296,clock,clock,0.20,0018_nse_s03_0.20_clock_10_n04548280_9646.png
subject-03,1,19,0.96501898765564,car,car,0.35,0019_nse_s03_0.35_car_10_n03100240_319.png
subject-03,1,20,1.32080101966858,oven,oven,0.00,0020_nse_s03_0.00_oven_10_n04111531_6313.png
subject-03,1,21,0.800631999969482,cat,cat,0.05,0021_nse_s03_0.05_cat_10_n02125311_13652.png
subject-03,1,22,0.9063401222229,car,truck,0.60,0022_nse_s03_0.60_truck_10_n03796401_6184.png
subject-03,1,23,1.02592706680298,chair,bottle,0.03,0023_nse_s03_0.03_bottle_10_n03983396_4627.png
subject-03,1,24,0.953999042510986,knife,knife,0.10,0024_nse_s03_0.10_knife_10_n03041632_43289.png
subject-03,1,25,0.880100011825562,chair,oven,0.00,0025_nse_s03_0.00_oven_10_n04111531_10358.png
subject-03,1,26,0.811583995819092,boat,boat,0.00,0026_nse_s03_0.00_boat_10_n04273569_11427.png
subject-03,1,27,0.849515199661255,boat,boat,0.20,0027_nse_s03_0.20_boat_10_n04273569_32553.png
subject-03,1,28,0.917083024978638,boat,airplane,0.00,0028_nse_s03_0.00_airplane_10_n02690373_19407.png
subject-03,1,29,0.81696891784668,oven,bear,0.35,0029_nse_s03_0.35_bear_10_n02133161_19418.png
subject-03,1,30,1.0726900100708,airplane,airplane,0.05,0030_nse_s03_0.05_airplane_10_n02690373_1075.png
subject-03,1,31,0.887006998062134,chair,chair,0.35,0031_nse_s03_0.35_chair_10_n03376595_7515.png
subject-03,1,32,0.756444931030273,cat,cat,0.20,0032_nse_s03_0.20_cat_10_n02123045_7167.png
subject-03,1,33,0.892097949981689,cat,cat,0.03,0033_nse_s03_0.03_cat_10_n02123159_7270.png
subject-03,1,34,1.08608293533325,bicycle,chair,0.35,0034_nse_s03_0.35_chair_10_n04099969_12909.png
subject-03,1,35,1.3239860534668,knife,clock,0.20,0035_nse_s03_0.20_clock_10_n03196217_445.png
subject-03,1,36,1.00347304344177,bicycle,bicycle,0.10,0036_nse_s03_0.10_bicycle_10_n03792782_10146.png
subject-03,1,37,0.765412092208862,cat,dog,0.05,0037_nse_s03_0.05_dog_10_n02096051_1308.png
subject-03,1,38,1.01119804382324,clock,knife,0.60,0038_nse_s03_0.60_knife_10_n03041632_4269.png
subject-03,1,39,0.921098947525024,oven,chair,0.10,0039_nse_s03_0.10_chair_10_n02791124_1217.png
subject-03,1,40,0.932817935943604,car,car,0.00,0040_nse_s03_0.00_car_10_n02814533_72473.png
subject-03,1,41,1.07263803482056,car,car,0.35,0041_nse_s03_0.35_car_10_n03100240_16653.png
subject-03,1,42,0.970546960830688,elephant,elephant,0.35,0042_nse_s03_0.35_elephant_10_n02504013_20042.png
subject-03,1,43,0.904215097427368,bird,bird,0.03,0043_nse_s03_0.03_bird_10_n02025239_19864.png
subject-03,1,44,0.924197196960449,airplane,airplane,0.10,0044_nse_s03_0.10_airplane_10_n02690373_4213.png
subject-03,1,45,0.86385703086853,knife,knife,0.03,0045_nse_s03_0.03_knife_10_n03041632_50996.png
subject-03,1,46,0.937794923782349,bicycle,bicycle,0.05,0046_nse_s03_0.05_bicycle_10_n02835271_1530.png
subject-03,1,47,0.721468925476074,clock,clock,0.10,0047_nse_s03_0.10_clock_10_n04548280_9426.png
subject-03,1,48,1.17124390602112,keyboard,bottle,0.05,0048_nse_s03_0.05_bottle_10_n04579145_5289.png
subject-03,1,49,0.745060920715332,oven,airplane,0.35,0049_nse_s03_0.35_airplane_10_n02690373_3212.png
subject-03,1,50,0.947160959243774,bicycle,bicycle,0.03,0050_nse_s03_0.03_bicycle_10_n02835271_3135.png
subject-03,1,51,0.738871097564697,chair,chair,0.10,0051_nse_s03_0.10_chair_10_n04099969_3393.png
subject-03,1,52,1.07871294021606,truck,truck,0.10,0052_nse_s03_0.10_truck_10_n03417042_18348.png
subject-03,1,53,1.0823290348053,clock,bird,0.90,0053_nse_s03_0.90_bird_10_n01833805_5088.png
subject-03,1,54,0.912352085113525,bird,bird,0.00,0054_nse_s03_0.00_bird_10_n02051845_15350.png
subject-03,1,55,0.906280040740967,clock,clock,0.05,0055_nse_s03_0.05_clock_10_n02708093_1313.png
subject-03,1,56,0.989731073379517,car,car,0.05,0056_nse_s03_0.05_car_10_n02814533_35054.png
subject-03,1,57,0.679721832275391,oven,knife,0.90,0057_nse_s03_0.90_knife_10_n03041632_20595.png
subject-03,1,58,0.989513874053955,chair,chair,0.05,0058_nse_s03_0.05_chair_10_n04429376_14729.png
subject-03,1,59,1.03117299079895,elephant,airplane,0.90,0059_nse_s03_0.90_airplane_10_n02690373_8813.png
subject-03,1,60,0.691303014755249,cat,dog,0.60,0060_nse_s03_0.60_dog_10_n02093428_6133.png
subject-03,1,61,0.880890846252441,chair,chair,0.05,0061_nse_s03_0.05_chair_10_n02791124_2470.png
subject-03,1,62,1.48064613342285,oven,clock,0.03,0062_nse_s03_0.03_clock_10_n03196217_7637.png
subject-03,1,63,0.950891017913818,boat,boat,0.35,0063_nse_s03_0.35_boat_10_n03662601_7352.png
subject-03,1,64,0.688174962997437,bottle,dog,0.60,0064_nse_s03_0.60_dog_10_n02113023_6945.png
subject-03,1,65,0.952065944671631,bottle,bicycle,0.35,0065_nse_s03_0.35_bicycle_10_n03792782_565.png
subject-03,1,66,0.931890964508057,knife,knife,0.05,0066_nse_s03_0.05_knife_10_n03041632_99912.png
subject-03,1,67,0.911888122558594,oven,oven,0.05,0067_nse_s03_0.05_oven_10_n04111531_9314.png
subject-03,1,68,0.915574073791504,elephant,elephant,0.03,0068_nse_s03_0.03_elephant_10_n02504013_104.png
subject-03,1,69,1.06751489639282,oven,oven,0.20,0069_nse_s03_0.20_oven_10_n04111531_8144.png
subject-03,1,70,0.931271076202393,truck,truck,0.03,0070_nse_s03_0.03_truck_10_n04467665_74235.png
subject-03,1,71,1.27332711219788,car,car,0.05,0071_nse_s03_0.05_car_10_n04285008_4047.png
subject-03,1,72,0.859047889709473,keyboard,keyboard,0.35,0072_nse_s03_0.35_keyboard_10_n04505470_4724.png
subject-03,1,73,0.838662147521973,cat,bear,0.60,0073_nse_s03_0.60_bear_10_n02132136_11183.png
subject-03,1,74,0.630847930908203,clock,clock,0.00,0074_nse_s03_0.00_clock_10_n04548280_4181.png
subject-03,1,75,0.962707996368408,elephant,elephant,0.35,0075_nse_s03_0.35_elephant_10_n02504458_4811.png
subject-03,1,76,1.50005102157593,chair,knife,0.35,0076_nse_s03_0.35_knife_10_n03041632_4494.png
subject-03,1,77,1.04186105728149,keyboard,elephant,0.35,0077_nse_s03_0.35_elephant_10_n02504013_6645.png
subject-03,1,78,1.47366213798523,chair,cat,0.60,0078_nse_s03_0.60_cat_10_n02123045_5913.png
subject-03,1,79,0.831573963165283,airplane,airplane,0.35,0079_nse_s03_0.35_airplane_10_n02690373_6491.png
subject-03,1,80,0.999585866928101,airplane,airplane,0.03,0080_nse_s03_0.03_airplane_10_n02690373_3860.png
subject-03,1,81,0.890741109848022,truck,truck,0.05,0081_nse_s03_0.05_truck_10_n03417042_24856.png
subject-03,1,82,0.832968950271606,bear,dog,0.00,0082_nse_s03_0.00_dog_10_n02099601_8686.png
subject-03,1,83,0.96233606338501,elephant,elephant,0.00,0083_nse_s03_0.00_elephant_10_n02504458_6424.png
subject-03,1,84,1.07664012908936,airplane,airplane,0.20,0084_nse_s03_0.20_airplane_10_n02690373_2024.png
subject-03,1,85,0.830139875411987,keyboard,truck,0.90,0085_nse_s03_0.90_truck_10_n03417042_10788.png
subject-03,1,86,0.755619049072266,oven,dog,0.60,0086_nse_s03_0.60_dog_10_n02099849_4819.png
subject-03,1,87,0.743600130081177,clock,clock,0.10,0087_nse_s03_0.10_clock_10_n04548280_7839.png
subject-03,1,88,0.895380973815918,airplane,airplane,0.60,0088_nse_s03_0.60_airplane_10_n02690373_9605.png
subject-03,1,89,0.705198049545288,bird,bird,0.20,0089_nse_s03_0.20_bird_10_n01560419_50.png
subject-03,1,90,0.878952980041504,cat,cat,0.60,0090_nse_s03_0.60_cat_10_n02124075_9939.png
subject-03,1,91,0.813125133514404,chair,car,0.00,0091_nse_s03_0.00_car_10_n04285008_8700.png
subject-03,1,92,1.28667783737183,bear,clock,0.35,0092_nse_s03_0.35_clock_10_n03196217_6163.png
subject-03,1,93,0.986445903778076,airplane,boat,0.60,0093_nse_s03_0.60_boat_10_n02951358_15551.png
subject-03,1,94,1.10230493545532,airplane,boat,0.20,0094_nse_s03_0.20_boat_10_n04273569_22495.png
subject-03,1,95,1.19007706642151,knife,knife,0.05,0095_nse_s03_0.05_knife_10_n03041632_11797.png
subject-03,1,96,1.31992602348328,dog,dog,0.05,0096_nse_s03_0.05_dog_10_n02112706_5500.png
subject-03,1,97,0.942018985748291,bottle,bottle,0.03,0097_nse_s03_0.03_bottle_10_n04579145_6860.png
subject-03,1,98,0.761619091033936,cat,cat,0.05,0098_nse_s03_0.05_cat_10_n02125311_34464.png
subject-03,1,99,0.883238077163696,cat,truck,0.35,0099_nse_s03_0.35_truck_10_n03417042_6847.png
subject-03,1,100,0.581196069717407,clock,clock,0.35,0100_nse_s03_0.35_clock_10_n04548280_4113.png
subject-03,1,101,0.995040893554688,cat,elephant,0.20,0101_nse_s03_0.20_elephant_10_n02504458_2799.png
subject-03,1,102,0.90476393699646,car,airplane,0.20,0102_nse_s03_0.20_airplane_10_n02690373_1441.png
subject-03,1,103,0.77645206451416,cat,cat,0.03,0103_nse_s03_0.03_cat_10_n02123597_4948.png
subject-03,1,104,0.744457006454468,oven,chair,0.60,0104_nse_s03_0.60_chair_10_n02791124_1635.png
subject-03,1,105,0.866138935089111,oven,elephant,0.00,0105_nse_s03_0.00_elephant_10_n02504013_3602.png
subject-03,1,106,0.834257125854492,keyboard,keyboard,0.20,0106_nse_s03_0.20_keyboard_10_n04505470_1351.png
subject-03,1,107,0.697834014892578,boat,boat,0.10,0107_nse_s03_0.10_boat_10_n03344393_2433.png
subject-03,1,108,1.13754510879517,keyboard,boat,0.35,0108_nse_s03_0.35_boat_10_n03344393_10519.png
subject-03,1,109,0.79143500328064,bird,bird,0.05,0109_nse_s03_0.05_bird_10_n02027492_9899.png
subject-03,1,110,1.27934598922729,truck,truck,0.00,0110_nse_s03_0.00_truck_10_n03796401_27811.png
subject-03,1,111,0.742956876754761,boat,knife,0.60,0111_nse_s03_0.60_knife_10_n03041632_87380.png
subject-03,1,112,0.728908777236938,oven,bear,0.35,0112_nse_s03_0.35_bear_10_n02134418_2502.png
subject-03,1,113,0.818573951721191,cat,oven,0.90,0113_nse_s03_0.90_oven_10_n04111531_10220.png
subject-03,1,114,0.978521823883057,car,car,0.03,0114_nse_s03_0.03_car_10_n04285008_6278.png
subject-03,1,115,0.724644899368286,oven,oven,0.05,0115_nse_s03_0.05_oven_10_n04111531_16144.png
subject-03,1,116,0.812072038650513,bicycle,keyboard,0.60,0116_nse_s03_0.60_keyboard_10_n03085013_22942.png
subject-03,1,117,0.830024003982544,chair,chair,0.00,0117_nse_s03_0.00_chair_10_n04099969_8021.png
subject-03,1,118,0.919569969177246,airplane,airplane,0.03,0118_nse_s03_0.03_airplane_10_n02690373_1038.png
subject-03,1,119,0.917563915252686,clock,cat,0.90,0119_nse_s03_0.90_cat_10_n02123597_7138.png
subject-03,1,120,0.975202083587646,bicycle,bicycle,0.20,0120_nse_s03_0.20_bicycle_10_n03792782_50446.png
subject-03,1,121,0.983074903488159,bicycle,bicycle,0.00,0121_nse_s03_0.00_bicycle_10_n03792782_7101.png
subject-03,1,122,0.838896989822388,cat,dog,0.20,0122_nse_s03_0.20_dog_10_n02086079_17983.png
subject-03,1,123,1.29468202590942,knife,knife,0.05,0123_nse_s03_0.05_knife_10_n03041632_737.png
subject-03,1,124,0.820497989654541,oven,chair,0.20,0124_nse_s03_0.20_chair_10_n02791124_206.png
subject-03,1,125,0.91839599609375,bird,dog,0.35,0125_nse_s03_0.35_dog_10_n02094258_1224.png
subject-03,1,126,0.716279029846191,dog,bird,0.90,0126_nse_s03_0.90_bird_10_n01514859_1951.png
subject-03,1,127,1.46003603935242,bear,truck,0.20,0127_nse_s03_0.20_truck_10_n03417042_10597.png
subject-03,1,128,0.759757041931152,bottle,bottle,0.10,0128_nse_s03_0.10_bottle_10_n04560804_3597.png
subject-03,1,129,0.733672857284546,cat,truck,0.35,0129_nse_s03_0.35_truck_10_n03417042_10751.png
subject-03,1,130,0.757513999938965,chair,bottle,0.20,0130_nse_s03_0.20_bottle_10_n04557648_954.png
subject-03,1,131,0.773394107818604,cat,cat,0.00,0131_nse_s03_0.00_cat_10_n02124075_4116.png
subject-03,1,132,0.971097946166992,cat,knife,0.60,0132_nse_s03_0.60_knife_10_n03041632_37618.png
subject-03,1,133,0.882815837860107,bear,dog,0.20,0133_nse_s03_0.20_dog_10_n02093256_8061.png
subject-03,1,134,1.13681197166443,car,boat,0.03,0134_nse_s03_0.03_boat_10_n04612504_30424.png
subject-03,1,135,0.910707950592041,oven,oven,0.20,0135_nse_s03_0.20_oven_10_n04111531_15635.png
subject-03,1,136,0.796625137329102,keyboard,keyboard,0.05,0136_nse_s03_0.05_keyboard_10_n03085013_6857.png
subject-03,1,137,0.872103929519653,airplane,boat,0.20,0137_nse_s03_0.20_boat_10_n03662601_5529.png
subject-03,1,138,0.804012060165405,bottle,bottle,0.05,0138_nse_s03_0.05_bottle_10_n04557648_9277.png
subject-03,1,139,0.729846954345703,truck,bird,0.90,0139_nse_s03_0.90_bird_10_n02037110_8826.png
subject-03,1,140,0.859998941421509,cat,bear,0.00,0140_nse_s03_0.00_bear_10_n02134418_3284.png
subject-03,1,141,0.919449090957642,dog,dog,0.00,0141_nse_s03_0.00_dog_10_n02098105_5905.png
subject-03,1,142,1.05531811714172,bottle,bottle,0.05,0142_nse_s03_0.05_bottle_10_n03983396_23516.png
subject-03,1,143,1.02499198913574,bottle,bottle,0.05,0143_nse_s03_0.05_bottle_10_n04560804_3651.png
subject-03,1,144,0.981110095977783,car,bear,0.90,0144_nse_s03_0.90_bear_10_n02133161_4398.png
subject-03,1,145,0.71077299118042,chair,chair,0.10,0145_nse_s03_0.10_chair_10_n04429376_5742.png
subject-03,1,146,0.698449850082397,truck,truck,0.10,0146_nse_s03_0.10_truck_10_n03417042_9559.png
subject-03,1,147,0.730317115783691,car,car,0.35,0147_nse_s03_0.35_car_10_n02814533_73210.png
subject-03,1,148,0.958395004272461,car,car,0.10,0148_nse_s03_0.10_car_10_n04285008_7776.png
subject-03,1,149,0.917979001998901,clock,clock,0.00,0149_nse_s03_0.00_clock_10_n03196217_9231.png
subject-03,1,150,0.817727088928223,car,car,0.03,0150_nse_s03_0.03_car_10_n02814533_88986.png
subject-03,1,151,0.735450983047485,bottle,dog,0.10,0151_nse_s03_0.10_dog_10_n02089867_4717.png
subject-03,1,152,1.13736605644226,keyboard,keyboard,0.35,0152_nse_s03_0.35_keyboard_10_n03085013_19607.png
subject-03,1,153,0.917088985443115,keyboard,dog,0.90,0153_nse_s03_0.90_dog_10_n02095570_9488.png
subject-03,1,154,1.00303483009338,truck,truck,0.03,0154_nse_s03_0.03_truck_10_n04467665_51949.png
subject-03,1,155,1.04475998878479,truck,truck,0.20,0155_nse_s03_0.20_truck_10_n03796401_16046.png
subject-03,1,156,1.0026650428772,knife,knife,0.60,0156_nse_s03_0.60_knife_10_n03041632_39342.png
subject-03,1,157,1.13829803466797,airplane,airplane,0.00,0157_nse_s03_0.00_airplane_10_n02690373_5967.png
subject-03,1,158,1.00227689743042,cat,bird,0.35,0158_nse_s03_0.35_bird_10_n01833805_6289.png
subject-03,1,159,0.708063840866089,bottle,bottle,0.35,0159_nse_s03_0.35_bottle_10_n03983396_11434.png
subject-03,1,160,0.6199791431427,oven,car,0.60,0160_nse_s03_0.60_car_10_n03100240_9875.png
subject-03,1,161,0.700867176055908,boat,boat,0.00,0161_nse_s03_0.00_boat_10_n03662601_31508.png
subject-03,1,162,0.976867914199829,elephant,elephant,0.10,0162_nse_s03_0.10_elephant_10_n02504013_1719.png
subject-03,1,163,0.670792102813721,oven,chair,0.60,0163_nse_s03_0.60_chair_10_n02791124_7167.png
subject-03,1,164,0.854743957519531,keyboard,knife,0.90,0164_nse_s03_0.90_knife_10_n03041632_27960.png
subject-03,1,165,0.794533967971802,clock,boat,0.20,0165_nse_s03_0.20_boat_10_n03662601_35225.png
subject-03,1,166,0.96238899230957,knife,knife,0.05,0166_nse_s03_0.05_knife_10_n03041632_38610.png
subject-03,1,167,0.774190902709961,boat,boat,0.00,0167_nse_s03_0.00_boat_10_n02951358_7315.png
subject-03,1,168,0.997674226760864,car,bear,0.90,0168_nse_s03_0.90_bear_10_n02134418_5630.png
subject-03,1,169,0.849861860275269,boat,airplane,0.05,0169_nse_s03_0.05_airplane_10_n02690373_7072.png
subject-03,1,170,0.705399036407471,oven,keyboard,0.35,0170_nse_s03_0.35_keyboard_10_n03085013_20784.png
subject-03,1,171,0.943006992340088,dog,cat,0.35,0171_nse_s03_0.35_cat_10_n02123394_6376.png
subject-03,1,172,0.978860139846802,elephant,elephant,0.10,0172_nse_s03_0.10_elephant_10_n02504013_7774.png
subject-03,1,173,0.850697040557861,clock,clock,0.35,0173_nse_s03_0.35_clock_10_n04548280_6888.png
subject-03,1,174,0.850487947463989,bird,bird,0.10,0174_nse_s03_0.10_bird_10_n01843383_386.png
subject-03,1,175,1.0346839427948,elephant,elephant,0.20,0175_nse_s03_0.20_elephant_10_n02504013_3939.png
subject-03,1,176,1.24015998840332,truck,oven,0.10,0176_nse_s03_0.10_oven_10_n04111531_7965.png
subject-03,1,177,0.797924995422363,bird,bird,0.03,0177_nse_s03_0.03_bird_10_n01855672_12414.png
subject-03,1,178,0.739810943603516,cat,oven,0.20,0178_nse_s03_0.20_oven_10_n04111531_4250.png
subject-03,1,179,0.88374400138855,car,car,0.20,0179_nse_s03_0.20_car_10_n02814533_7028.png
subject-03,1,180,0.943365097045898,dog,dog,0.10,0180_nse_s03_0.10_dog_10_n02108551_26509.png
subject-03,1,181,0.885302782058716,clock,airplane,0.90,0181_nse_s03_0.90_airplane_10_n02690373_17011.png
subject-03,1,182,0.913184881210327,keyboard,keyboard,0.35,0182_nse_s03_0.35_keyboard_10_n04505470_8620.png
subject-03,1,183,1.03491592407227,dog,dog,0.20,0183_nse_s03_0.20_dog_10_n02096437_4384.png
subject-03,1,184,0.732844114303589,oven,boat,0.35,0184_nse_s03_0.35_boat_10_n03344393_4143.png
subject-03,1,185,0.810547113418579,cat,boat,0.90,0185_nse_s03_0.90_boat_10_n04273569_26577.png
subject-03,1,186,0.830211877822876,oven,knife,0.05,0186_nse_s03_0.05_knife_10_n03041632_105581.png
subject-03,1,187,0.848378896713257,keyboard,keyboard,0.20,0187_nse_s03_0.20_keyboard_10_n04505470_578.png
subject-03,1,188,1.2880380153656,knife,cat,0.90,0188_nse_s03_0.90_cat_10_n02124075_6024.png
subject-03,1,189,0.97788405418396,bicycle,car,0.60,0189_nse_s03_0.60_car_10_n04285008_2363.png
subject-03,1,190,0.817914009094238,oven,chair,0.35,0190_nse_s03_0.35_chair_10_n04429376_48722.png
subject-03,1,191,0.915151119232178,keyboard,keyboard,0.20,0191_nse_s03_0.20_keyboard_10_n04505470_4684.png
subject-03,1,192,0.941198110580444,truck,truck,0.03,0192_nse_s03_0.03_truck_10_n03417042_12874.png
subject-03,1,193,0.827243089675903,keyboard,keyboard,0.00,0193_nse_s03_0.00_keyboard_10_n04505470_1338.png
subject-03,1,194,0.800720930099487,clock,bicycle,0.90,0194_nse_s03_0.90_bicycle_10_n03792782_18516.png
subject-03,1,195,0.944649934768677,clock,clock,0.05,0195_nse_s03_0.05_clock_10_n03196217_8792.png
subject-03,1,196,0.994436979293823,bicycle,bicycle,0.20,0196_nse_s03_0.20_bicycle_10_n02835271_9669.png
subject-03,1,197,1.3425669670105,bear,dog,0.00,0197_nse_s03_0.00_dog_10_n02091244_13118.png
subject-03,1,198,0.976146221160889,car,bicycle,0.90,0198_nse_s03_0.90_bicycle_10_n03792782_16558.png
subject-03,1,199,0.753931999206543,keyboard,keyboard,0.60,0199_nse_s03_0.60_keyboard_10_n03085013_23718.png
subject-03,1,200,0.943727016448975,dog,dog,0.35,0200_nse_s03_0.35_dog_10_n02107142_55162.png
subject-03,1,201,0.931535005569458,bottle,bottle,0.90,0201_nse_s03_0.90_bottle_10_n04591713_5279.png
subject-03,1,202,1.2716851234436,clock,bottle,0.05,0202_nse_s03_0.05_bottle_10_n02823428_6263.png
subject-03,1,203,0.82710599899292,knife,knife,0.00,0203_nse_s03_0.00_knife_10_n03041632_62810.png
subject-03,1,204,0.868858098983765,bottle,airplane,0.10,0204_nse_s03_0.10_airplane_10_n02690373_10285.png
subject-03,1,205,0.808669090270996,airplane,airplane,0.00,0205_nse_s03_0.00_airplane_10_n02690373_563.png
subject-03,1,206,0.906487941741943,truck,truck,0.05,0206_nse_s03_0.05_truck_10_n03796401_30000.png
subject-03,1,207,0.800364017486572,bicycle,bicycle,0.35,0207_nse_s03_0.35_bicycle_10_n03792782_20387.png
subject-03,1,208,0.82863187789917,chair,chair,0.10,0208_nse_s03_0.10_chair_10_n04429376_619.png
subject-03,1,209,0.784137010574341,bird,bird,0.20,0209_nse_s03_0.20_bird_10_n01532829_4692.png
subject-03,1,210,0.674200057983398,bicycle,bicycle,0.05,0210_nse_s03_0.05_bicycle_10_n03792782_13923.png
subject-03,1,211,0.905900955200195,keyboard,bear,0.90,0211_nse_s03_0.90_bear_10_n02132136_4636.png
subject-03,1,212,0.855616092681885,oven,chair,0.90,0212_nse_s03_0.90_chair_10_n03376595_4887.png
subject-03,1,213,0.731245994567871,keyboard,keyboard,0.03,0213_nse_s03_0.03_keyboard_10_n03085013_20877.png
subject-03,1,214,0.906996011734009,clock,clock,0.20,0214_nse_s03_0.20_clock_10_n04548280_8649.png
subject-03,1,215,0.972794055938721,clock,clock,0.35,0215_nse_s03_0.35_clock_10_n02708093_4415.png
subject-03,1,216,0.748777866363525,boat,boat,0.03,0216_nse_s03_0.03_boat_10_n03344393_6577.png
subject-03,1,217,0.798776865005493,bicycle,bicycle,0.10,0217_nse_s03_0.10_bicycle_10_n03792782_66837.png
subject-03,1,218,0.846209049224854,airplane,airplane,0.00,0218_nse_s03_0.00_airplane_10_n02690373_12505.png
subject-03,1,219,0.95616888999939,car,chair,0.60,0219_nse_s03_0.60_chair_10_n03376595_591.png
subject-03,1,220,0.938171863555908,bicycle,bicycle,0.10,0220_nse_s03_0.10_bicycle_10_n02835271_25417.png
subject-03,1,221,0.807712078094482,bear,bicycle,0.60,0221_nse_s03_0.60_bicycle_10_n03792782_15679.png
subject-03,1,222,1.00539898872375,car,car,0.35,0222_nse_s03_0.35_car_10_n02814533_8881.png
subject-03,1,223,0.823349952697754,bicycle,bicycle,0.03,0223_nse_s03_0.03_bicycle_10_n03792782_42626.png
subject-03,1,224,0.78724217414856,bottle,bottle,0.10,0224_nse_s03_0.10_bottle_10_n03937543_1290.png
subject-03,1,225,0.729145050048828,airplane,airplane,0.05,0225_nse_s03_0.05_airplane_10_n02690373_777.png
subject-03,1,226,0.778612852096558,bear,clock,0.90,0226_nse_s03_0.90_clock_10_n03196217_2179.png
subject-03,1,227,1.08888006210327,truck,bicycle,0.35,0227_nse_s03_0.35_bicycle_10_n03792782_10367.png
subject-03,1,228,0.700757026672363,cat,bear,0.10,0228_nse_s03_0.10_bear_10_n02133161_4060.png
subject-03,1,229,0.858246088027954,bird,boat,0.60,0229_nse_s03_0.60_boat_10_n03662601_32391.png
subject-03,1,230,1.34826803207397,clock,clock,0.60,0230_nse_s03_0.60_clock_10_n02708093_6672.png
subject-03,1,231,0.819898128509521,oven,oven,0.35,0231_nse_s03_0.35_oven_10_n04111531_9411.png
subject-03,1,232,0.581529140472412,clock,clock,0.05,0232_nse_s03_0.05_clock_10_n02708093_3462.png
subject-03,1,233,0.989595890045166,chair,oven,0.20,0233_nse_s03_0.20_oven_10_n04111531_2163.png
subject-03,1,234,0.971381902694702,bird,bird,0.00,0234_nse_s03_0.00_bird_10_n01818515_7370.png
subject-03,1,235,1.02122187614441,cat,bottle,0.35,0235_nse_s03_0.35_bottle_10_n04591713_6138.png
subject-03,1,236,1.19701194763184,chair,oven,0.20,0236_nse_s03_0.20_oven_10_n04111531_8330.png
subject-03,1,237,0.872709989547729,bottle,bottle,0.00,0237_nse_s03_0.00_bottle_10_n04557648_9790.png
subject-03,1,238,0.804606914520264,car,boat,0.90,0238_nse_s03_0.90_boat_10_n03662601_20381.png
subject-03,1,239,1.29447603225708,dog,keyboard,0.90,0239_nse_s03_0.90_keyboard_10_n04505470_3499.png
subject-03,1,240,1.47025513648987,clock,chair,0.10,0240_nse_s03_0.10_chair_10_n02791124_7335.png
subject-03,1,241,0.632178068161011,bird,bird,0.03,0241_nse_s03_0.03_bird_10_n01843383_8624.png
subject-03,1,242,0.737617015838623,knife,knife,0.03,0242_nse_s03_0.03_knife_10_n03041632_13130.png
subject-03,1,243,0.749719858169556,chair,chair,0.05,0243_nse_s03_0.05_chair_10_n04099969_2532.png
subject-03,1,244,0.739199876785278,boat,elephant,0.90,0244_nse_s03_0.90_elephant_10_n02504458_9213.png
subject-03,1,245,0.68104100227356,oven,oven,0.00,0245_nse_s03_0.00_oven_10_n04111531_3555.png
subject-03,1,246,1.07915711402893,oven,elephant,0.10,0246_nse_s03_0.10_elephant_10_n02504013_2394.png
subject-03,1,247,0.832581996917725,bottle,bottle,0.10,0247_nse_s03_0.10_bottle_10_n04579145_5795.png
subject-03,1,248,0.8923180103302,keyboard,keyboard,0.00,0248_nse_s03_0.00_keyboard_10_n04505470_4379.png
subject-03,1,249,1.50011682510376,chair,knife,0.03,0249_nse_s03_0.03_knife_10_n03041632_22480.png
subject-03,1,250,0.732293128967285,clock,cat,0.90,0250_nse_s03_0.90_cat_10_n02123045_3648.png
subject-03,1,251,0.665831089019775,boat,bird,0.60,0251_nse_s03_0.60_bird_10_n01530575_280.png
subject-03,1,252,0.791722059249878,chair,chair,0.20,0252_nse_s03_0.20_chair_10_n04429376_19459.png
subject-03,1,253,0.855584859848022,airplane,boat,0.10,0253_nse_s03_0.10_boat_10_n03344393_7075.png
subject-03,1,254,1.21131801605225,oven,cat,0.60,0254_nse_s03_0.60_cat_10_n02125311_22037.png
subject-03,1,255,0.815047025680542,keyboard,clock,0.60,0255_nse_s03_0.60_clock_10_n02708093_1733.png
subject-03,1,256,0.951190948486328,bicycle,clock,0.35,0256_nse_s03_0.35_clock_10_n04548280_4747.png
subject-03,1,257,0.798832178115845,elephant,elephant,0.10,0257_nse_s03_0.10_elephant_10_n02504013_7553.png
subject-03,1,258,1.06061601638794,bear,knife,0.35,0258_nse_s03_0.35_knife_10_n03041632_84012.png
subject-03,1,259,1.00055718421936,bird,knife,0.10,0259_nse_s03_0.10_knife_10_n03041632_11887.png
subject-03,1,260,0.818069934844971,cat,chair,0.60,0260_nse_s03_0.60_chair_10_n03376595_12341.png
subject-03,1,261,0.657915115356445,keyboard,keyboard,0.03,0261_nse_s03_0.03_keyboard_10_n04505470_1651.png
subject-03,1,262,1.2397780418396,airplane,bear,0.90,0262_nse_s03_0.90_bear_10_n02133161_16103.png
subject-03,1,263,0.749516010284424,oven,bear,0.60,0263_nse_s03_0.60_bear_10_n02134084_33483.png
subject-03,1,264,0.659648895263672,keyboard,keyboard,0.00,0264_nse_s03_0.00_keyboard_10_n03085013_19547.png
subject-03,1,265,0.921278953552246,car,car,0.00,0265_nse_s03_0.00_car_10_n04285008_3056.png
subject-03,1,266,0.773255825042725,oven,truck,0.60,0266_nse_s03_0.60_truck_10_n04467665_63829.png
subject-03,1,267,0.830741882324219,airplane,bear,0.60,0267_nse_s03_0.60_bear_10_n02134418_3570.png
subject-03,1,268,0.602826833724976,boat,car,0.90,0268_nse_s03_0.90_car_10_n04285008_11714.png
subject-03,1,269,1.03490304946899,bicycle,bicycle,0.10,0269_nse_s03_0.10_bicycle_10_n03792782_37212.png
subject-03,1,270,0.890569925308228,elephant,elephant,0.03,0270_nse_s03_0.03_elephant_10_n02504458_7209.png
subject-03,1,271,1.0323748588562,clock,clock,0.20,0271_nse_s03_0.20_clock_10_n02708093_2800.png
subject-03,1,272,1.11991500854492,bird,bottle,0.35,0272_nse_s03_0.35_bottle_10_n04560804_12736.png
subject-03,1,273,0.732075214385986,bicycle,bicycle,0.00,0273_nse_s03_0.00_bicycle_10_n03792782_1418.png
subject-03,1,274,0.971488952636719,bicycle,bicycle,0.00,0274_nse_s03_0.00_bicycle_10_n03792782_1472.png
subject-03,1,275,1.3152449131012,oven,bottle,0.20,0275_nse_s03_0.20_bottle_10_n04557648_11992.png
subject-03,1,276,1.13098692893982,knife,oven,0.35,0276_nse_s03_0.35_oven_10_n04111531_21404.png
subject-03,1,277,0.866976022720337,chair,chair,0.03,0277_nse_s03_0.03_chair_10_n03376595_787.png
subject-03,1,278,0.816665172576904,elephant,elephant,0.10,0278_nse_s03_0.10_elephant_10_n02504458_2054.png
subject-03,1,279,0.710691928863525,bird,bird,0.03,0279_nse_s03_0.03_bird_10_n01818515_1617.png
subject-03,1,280,1.19033479690552,car,truck,0.20,0280_nse_s03_0.20_truck_10_n03417042_6654.png
subject-03,1,281,1.25615096092224,chair,chair,0.20,0281_nse_s03_0.20_chair_10_n02791124_1140.png
subject-03,1,282,0.696035861968994,truck,airplane,0.90,0282_nse_s03_0.90_airplane_10_n02690373_1862.png
subject-03,1,283,0.751721143722534,keyboard,keyboard,0.10,0283_nse_s03_0.10_keyboard_10_n03085013_29042.png
subject-03,1,284,0.699749946594238,bird,bear,0.05,0284_nse_s03_0.05_bear_10_n02133161_545.png
subject-03,1,285,1.12562990188599,car,car,0.20,0285_nse_s03_0.20_car_10_n02814533_2271.png
subject-03,1,286,0.863314867019653,truck,truck,0.03,0286_nse_s03_0.03_truck_10_n03796401_26359.png
subject-03,1,287,0.857177972793579,clock,clock,0.60,0287_nse_s03_0.60_clock_10_n04548280_2404.png
subject-03,1,288,0.750979900360107,keyboard,keyboard,0.00,0288_nse_s03_0.00_keyboard_10_n04505470_4473.png
subject-03,1,289,0.746645927429199,car,car,0.03,0289_nse_s03_0.03_car_10_n03100240_15979.png
subject-03,1,290,0.718483924865723,oven,bear,0.20,0290_nse_s03_0.20_bear_10_n02134418_5271.png
subject-03,1,291,0.814702987670898,airplane,airplane,0.20,0291_nse_s03_0.20_airplane_10_n02690373_8967.png
subject-03,1,292,0.858137845993042,truck,truck,0.05,0292_nse_s03_0.05_truck_10_n04467665_62524.png
subject-03,1,293,0.883937120437622,bicycle,bicycle,0.03,0293_nse_s03_0.03_bicycle_10_n03792782_17212.png
subject-03,1,294,0.841768026351929,bicycle,bicycle,0.03,0294_nse_s03_0.03_bicycle_10_n03792782_1004.png
subject-03,1,295,1.07980108261108,car,truck,0.05,0295_nse_s03_0.05_truck_10_n03796401_13349.png
subject-03,1,296,0.725682973861694,airplane,airplane,0.20,0296_nse_s03_0.20_airplane_10_n02690373_7229.png
subject-03,1,297,0.721591949462891,boat,oven,0.90,0297_nse_s03_0.90_oven_10_n04111531_5246.png
subject-03,1,298,0.663016080856323,cat,car,0.90,0298_nse_s03_0.90_car_10_n03100240_18270.png
subject-03,1,299,0.628972053527832,cat,cat,0.03,0299_nse_s03_0.03_cat_10_n02123394_6828.png
subject-03,1,300,0.84280800819397,dog,airplane,0.60,0300_nse_s03_0.60_airplane_10_n02690373_5729.png
subject-03,1,301,0.786514043807983,airplane,airplane,0.10,0301_nse_s03_0.10_airplane_10_n02690373_2496.png
subject-03,1,302,0.860630035400391,elephant,elephant,0.20,0302_nse_s03_0.20_elephant_10_n02504013_23628.png
subject-03,1,303,0.810073137283325,bottle,bottle,0.03,0303_nse_s03_0.03_bottle_10_n04560804_13279.png
subject-03,1,304,1.23401999473572,car,chair,0.05,0304_nse_s03_0.05_chair_10_n02791124_4595.png
subject-03,1,305,0.725698947906494,oven,airplane,0.60,0305_nse_s03_0.60_airplane_10_n02690373_7115.png
subject-03,1,306,1.25376105308533,knife,knife,0.10,0306_nse_s03_0.10_knife_10_n03041632_22738.png
subject-03,1,307,0.991481065750122,bicycle,bicycle,0.35,0307_nse_s03_0.35_bicycle_10_n03792782_51156.png
subject-03,1,308,0.995544910430908,chair,bicycle,0.35,0308_nse_s03_0.35_bicycle_10_n02835271_845.png
subject-03,1,309,0.692963123321533,bear,oven,0.35,0309_nse_s03_0.35_oven_10_n04111531_2458.png
subject-03,1,310,1.50003504753113,car,car,0.05,0310_nse_s03_0.05_car_10_n02814533_42665.png
subject-03,1,311,0.658929109573364,chair,chair,0.03,0311_nse_s03_0.03_chair_10_n03376595_8227.png
subject-03,1,312,0.754406929016113,boat,cat,0.60,0312_nse_s03_0.60_cat_10_n02125311_3616.png
subject-03,1,313,0.79016900062561,bicycle,bicycle,0.20,0313_nse_s03_0.20_bicycle_10_n02835271_12120.png
subject-03,1,314,0.926456928253174,bird,bird,0.00,0314_nse_s03_0.00_bird_10_n01820546_4535.png
subject-03,1,315,0.83612585067749,bottle,bottle,0.10,0315_nse_s03_0.10_bottle_10_n02823428_11579.png
subject-03,1,316,0.783792018890381,airplane,airplane,0.35,0316_nse_s03_0.35_airplane_10_n02690373_5724.png
subject-03,1,317,0.717571973800659,bird,bird,0.10,0317_nse_s03_0.10_bird_10_n02051845_6333.png
subject-03,1,318,0.97942590713501,truck,truck,0.10,0318_nse_s03_0.10_truck_10_n03417042_8139.png
subject-03,1,319,0.935081958770752,car,truck,0.90,0319_nse_s03_0.90_truck_10_n03417042_6554.png
subject-03,1,320,0.923208951950073,car,car,0.00,0320_nse_s03_0.00_car_10_n03100240_11400.png
subject-03,1,321,0.660444021224976,clock,oven,0.03,0321_nse_s03_0.03_oven_10_n04111531_10681.png
subject-03,1,322,0.748079061508179,boat,boat,0.90,0322_nse_s03_0.90_boat_10_n03344393_771.png
subject-03,1,323,0.992194890975952,cat,cat,0.10,0323_nse_s03_0.10_cat_10_n02123045_2721.png
subject-03,1,324,0.643697023391724,oven,clock,0.35,0324_nse_s03_0.35_clock_10_n03196217_3333.png
subject-03,1,325,0.857604026794434,truck,truck,0.03,0325_nse_s03_0.03_truck_10_n03417042_11704.png
subject-03,1,326,0.835414886474609,chair,knife,0.10,0326_nse_s03_0.10_knife_10_n03041632_90407.png
subject-03,1,327,0.689246892929077,airplane,airplane,0.90,0327_nse_s03_0.90_airplane_10_n02690373_5328.png
subject-03,1,328,0.683227062225342,keyboard,dog,0.60,0328_nse_s03_0.60_dog_10_n02088238_11711.png
subject-03,1,329,0.612900018692017,clock,clock,0.20,0329_nse_s03_0.20_clock_10_n02708093_8002.png
subject-03,1,330,1.15657305717468,cat,dog,0.35,0330_nse_s03_0.35_dog_10_n02107574_3352.png
subject-03,1,331,0.974389791488647,boat,boat,0.10,0331_nse_s03_0.10_boat_10_n04612504_19388.png
subject-03,1,332,0.798310995101929,elephant,elephant,0.00,0332_nse_s03_0.00_elephant_10_n02504458_8889.png
subject-03,1,333,0.754563093185425,bird,bird,0.05,0333_nse_s03_0.05_bird_10_n01833805_7361.png
subject-03,1,334,0.873924016952515,airplane,clock,0.10,0334_nse_s03_0.10_clock_10_n04548280_2654.png
subject-03,1,335,0.721764087677002,cat,cat,0.20,0335_nse_s03_0.20_cat_10_n02123394_289.png
subject-03,1,336,0.675654888153076,bear,keyboard,0.90,0336_nse_s03_0.90_keyboard_10_n03085013_20590.png
subject-03,1,337,0.835747003555298,bird,bird,0.60,0337_nse_s03_0.60_bird_10_n01828970_2727.png
subject-03,1,338,0.8452308177948,bottle,bottle,0.03,0338_nse_s03_0.03_bottle_10_n04591713_2841.png
subject-03,1,339,0.575124979019165,clock,car,0.90,0339_nse_s03_0.90_car_10_n02814533_72079.png
subject-03,1,340,1.3527500629425,airplane,chair,0.00,0340_nse_s03_0.00_chair_10_n03376595_6012.png
subject-03,1,341,1.18067097663879,oven,keyboard,0.05,0341_nse_s03_0.05_keyboard_10_n04505470_4628.png
subject-03,1,342,0.826540946960449,bear,bear,0.20,0342_nse_s03_0.20_bear_10_n02134418_4666.png
subject-03,1,343,0.758301019668579,bird,bird,0.03,0343_nse_s03_0.03_bird_10_n01558993_34885.png
subject-03,1,344,0.844336986541748,elephant,elephant,0.35,0344_nse_s03_0.35_elephant_10_n02504458_8064.png
subject-03,1,345,0.949945211410522,keyboard,keyboard,0.10,0345_nse_s03_0.10_keyboard_10_n04505470_1286.png
subject-03,1,346,0.852175951004028,boat,boat,0.05,0346_nse_s03_0.05_boat_10_n03662601_25577.png
subject-03,1,347,0.717544078826904,bird,bird,0.20,0347_nse_s03_0.20_bird_10_n02007558_5877.png
subject-03,1,348,0.697356939315796,airplane,bird,0.00,0348_nse_s03_0.00_bird_10_n01795545_11076.png
subject-03,1,349,0.577430009841919,boat,oven,0.60,0349_nse_s03_0.60_oven_10_n04111531_9370.png
subject-03,1,350,0.861307859420776,cat,dog,0.03,0350_nse_s03_0.03_dog_10_n02105056_5636.png
subject-03,1,351,0.914693117141724,oven,bicycle,0.35,0351_nse_s03_0.35_bicycle_10_n03792782_44296.png
subject-03,1,352,0.64452600479126,clock,bottle,0.90,0352_nse_s03_0.90_bottle_10_n04591713_2014.png
subject-03,1,353,1.01464200019836,chair,chair,0.05,0353_nse_s03_0.05_chair_10_n04099969_2694.png
subject-03,1,354,0.938361167907715,dog,dog,0.05,0354_nse_s03_0.05_dog_10_n02086646_4881.png
subject-03,1,355,1.48008894920349,boat,bird,0.05,0355_nse_s03_0.05_bird_10_n02025239_22440.png
subject-03,1,356,0.746075868606567,elephant,elephant,0.03,0356_nse_s03_0.03_elephant_10_n02504458_10554.png
subject-03,1,357,0.623714923858643,cat,dog,0.20,0357_nse_s03_0.20_dog_10_n02110185_10879.png
subject-03,1,358,0.827550888061523,bear,chair,0.90,0358_nse_s03_0.90_chair_10_n03376595_3120.png
subject-03,1,359,0.639633893966675,bicycle,truck,0.90,0359_nse_s03_0.90_truck_10_n04467665_37009.png
subject-03,1,360,1.500155210495,elephant,dog,0.35,0360_nse_s03_0.35_dog_10_n02105505_5576.png
subject-03,1,361,0.748827219009399,cat,bear,0.60,0361_nse_s03_0.60_bear_10_n02132136_2900.png
subject-03,1,362,0.654779195785522,oven,oven,0.00,0362_nse_s03_0.00_oven_10_n04111531_7283.png
subject-03,1,363,0.892757177352905,car,car,0.05,0363_nse_s03_0.05_car_10_n02814533_65294.png
subject-03,1,364,0.744453907012939,clock,clock,0.10,0364_nse_s03_0.10_clock_10_n03196217_5441.png
subject-03,1,365,0.976028919219971,car,truck,0.60,0365_nse_s03_0.60_truck_10_n03796401_7694.png
subject-03,1,366,0.931856155395508,boat,oven,0.20,0366_nse_s03_0.20_oven_10_n04111531_1330.png
subject-03,1,367,0.805798053741455,car,car,0.20,0367_nse_s03_0.20_car_10_n03100240_15070.png
subject-03,1,368,0.929666996002197,dog,dog,0.20,0368_nse_s03_0.20_dog_10_n02101556_4066.png
subject-03,1,369,0.855569124221802,oven,oven,0.20,0369_nse_s03_0.20_oven_10_n04111531_6024.png
subject-03,1,370,0.907033920288086,car,truck,0.00,0370_nse_s03_0.00_truck_10_n04467665_30023.png
subject-03,1,371,0.93287205696106,truck,airplane,0.90,0371_nse_s03_0.90_airplane_10_n02690373_629.png
subject-03,1,372,0.944786071777344,airplane,bicycle,0.60,0372_nse_s03_0.60_bicycle_10_n02835271_9237.png
subject-03,1,373,0.798610925674438,chair,chair,0.10,0373_nse_s03_0.10_chair_10_n03376595_15723.png
subject-03,1,374,1.14469599723816,airplane,bottle,0.35,0374_nse_s03_0.35_bottle_10_n03937543_3289.png
subject-03,1,375,1.08624601364136,car,clock,0.20,0375_nse_s03_0.20_clock_10_n03196217_6741.png
subject-03,1,376,0.660581111907959,chair,chair,0.00,0376_nse_s03_0.00_chair_10_n04429376_6915.png
subject-03,1,377,0.7098548412323,cat,bear,0.05,0377_nse_s03_0.05_bear_10_n02134084_473.png
subject-03,1,378,1.1377489566803,keyboard,keyboard,0.35,0378_nse_s03_0.35_keyboard_10_n03085013_20798.png
subject-03,1,379,1.06949901580811,oven,chair,0.00,0379_nse_s03_0.00_chair_10_n04429376_14995.png
subject-03,1,380,0.765269994735718,cat,bird,0.20,0380_nse_s03_0.20_bird_10_n02033041_17119.png
subject-03,1,381,0.713276147842407,cat,cat,0.00,0381_nse_s03_0.00_cat_10_n02125311_25104.png
subject-03,1,382,0.803086042404175,airplane,clock,0.90,0382_nse_s03_0.90_clock_10_n03196217_12701.png
subject-03,1,383,0.992603063583374,bottle,bottle,0.10,0383_nse_s03_0.10_bottle_10_n04579145_815.png
subject-03,1,384,0.816442966461182,truck,truck,0.00,0384_nse_s03_0.00_truck_10_n04467665_39477.png
subject-03,1,385,0.834418058395386,car,boat,0.35,0385_nse_s03_0.35_boat_10_n04273569_12536.png
subject-03,1,386,0.618805885314941,cat,cat,0.05,0386_nse_s03_0.05_cat_10_n02125311_5346.png
subject-03,1,387,0.856064081192017,knife,knife,0.20,0387_nse_s03_0.20_knife_10_n03041632_10540.png
subject-03,1,388,1.37386298179626,bicycle,dog,0.90,0388_nse_s03_0.90_dog_10_n02105056_15299.png
subject-03,1,389,0.642055034637451,truck,truck,0.05,0389_nse_s03_0.05_truck_10_n03417042_9478.png
subject-03,1,390,1.06746387481689,bear,bear,0.05,0390_nse_s03_0.05_bear_10_n02132136_3224.png
subject-03,1,391,0.663339853286743,oven,oven,0.10,0391_nse_s03_0.10_oven_10_n04111531_8081.png
subject-03,1,392,0.791105985641479,oven,cat,0.35,0392_nse_s03_0.35_cat_10_n02123159_6439.png
subject-03,1,393,0.819297075271606,bicycle,bear,0.20,0393_nse_s03_0.20_bear_10_n02134418_289.png
subject-03,1,394,NaN,na,bottle,0.60,0394_nse_s03_0.60_bottle_10_n04591713_5290.png
subject-03,1,395,0.826770067214966,clock,cat,0.90,0395_nse_s03_0.90_cat_10_n02124075_7020.png
subject-03,1,396,0.790257930755615,bear,bear,0.20,0396_nse_s03_0.20_bear_10_n02133161_7184.png
subject-03,1,397,1.01203417778015,truck,chair,0.03,0397_nse_s03_0.03_chair_10_n02791124_7483.png
subject-03,1,398,0.866050004959106,keyboard,keyboard,0.20,0398_nse_s03_0.20_keyboard_10_n03085013_22597.png
subject-03,1,399,1.13386106491089,elephant,dog,0.60,0399_nse_s03_0.60_dog_10_n02109525_50916.png
subject-03,1,400,0.731634140014648,bird,bird,0.00,0400_nse_s03_0.00_bird_10_n02027492_597.png
subject-03,1,401,0.661196947097778,boat,airplane,0.35,0401_nse_s03_0.35_airplane_10_n02690373_7591.png
subject-03,1,402,0.829315185546875,airplane,airplane,0.20,0402_nse_s03_0.20_airplane_10_n02690373_4814.png
subject-03,1,403,0.820850849151611,airplane,oven,0.10,0403_nse_s03_0.10_oven_10_n04111531_8009.png
subject-03,1,404,1.10459399223328,bear,dog,0.10,0404_nse_s03_0.10_dog_10_n02105251_5570.png
subject-03,1,405,0.636589050292969,boat,elephant,0.60,0405_nse_s03_0.60_elephant_10_n02504013_1132.png
subject-03,1,406,0.646345138549805,clock,clock,0.05,0406_nse_s03_0.05_clock_10_n03196217_5972.png
subject-03,1,407,0.954050064086914,dog,dog,0.00,0407_nse_s03_0.00_dog_10_n02110958_16337.png
subject-03,1,408,0.970030069351196,boat,truck,0.20,0408_nse_s03_0.20_truck_10_n03796401_28656.png
subject-03,1,409,1.1277449131012,bear,bear,0.20,0409_nse_s03_0.20_bear_10_n02134418_4458.png
subject-03,1,410,1.18565917015076,keyboard,keyboard,0.03,0410_nse_s03_0.03_keyboard_10_n04505470_9866.png
subject-03,1,411,0.931382894515991,keyboard,knife,0.20,0411_nse_s03_0.20_knife_10_n03041632_18995.png
subject-03,1,412,1.0191171169281,airplane,airplane,0.05,0412_nse_s03_0.05_airplane_10_n02690373_1751.png
subject-03,1,413,1.03515410423279,cat,knife,0.35,0413_nse_s03_0.35_knife_10_n03041632_8563.png
subject-03,1,414,0.826846837997437,dog,elephant,0.20,0414_nse_s03_0.20_elephant_10_n02504013_7210.png
subject-03,1,415,0.918704032897949,boat,airplane,0.60,0415_nse_s03_0.60_airplane_10_n02690373_6674.png
subject-03,1,416,1.47437310218811,knife,oven,0.00,0416_nse_s03_0.00_oven_10_n04111531_3270.png
subject-03,1,417,0.752250909805298,bear,bear,0.10,0417_nse_s03_0.10_bear_10_n02132136_282.png
subject-03,1,418,0.918003082275391,bicycle,clock,0.60,0418_nse_s03_0.60_clock_10_n04548280_4358.png
subject-03,1,419,0.811918973922729,keyboard,keyboard,0.05,0419_nse_s03_0.05_keyboard_10_n04505470_4994.png
subject-03,1,420,0.765541076660156,oven,bicycle,0.90,0420_nse_s03_0.90_bicycle_10_n03792782_32281.png
subject-03,1,421,0.745739936828613,cat,bicycle,0.60,0421_nse_s03_0.60_bicycle_10_n03792782_1099.png
subject-03,1,422,0.905183076858521,airplane,airplane,0.03,0422_nse_s03_0.03_airplane_10_n02690373_7686.png
subject-03,1,423,0.766950130462646,clock,chair,0.90,0423_nse_s03_0.90_chair_10_n04099969_41686.png
subject-03,1,424,0.942936897277832,bird,bird,0.05,0424_nse_s03_0.05_bird_10_n01828970_11339.png
subject-03,1,425,1.39068388938904,cat,cat,0.05,0425_nse_s03_0.05_cat_10_n02124075_8799.png
subject-03,1,426,0.780574083328247,boat,boat,0.90,0426_nse_s03_0.90_boat_10_n04612504_4250.png
subject-03,1,427,0.736599922180176,bird,bird,0.10,0427_nse_s03_0.10_bird_10_n02051845_3479.png
subject-03,1,428,0.880529165267944,bicycle,bicycle,0.20,0428_nse_s03_0.20_bicycle_10_n03792782_29108.png
subject-03,1,429,0.974200963973999,bird,boat,0.10,0429_nse_s03_0.10_boat_10_n04612504_6308.png
subject-03,1,430,0.749786138534546,boat,knife,0.60,0430_nse_s03_0.60_knife_10_n03041632_16826.png
subject-03,1,431,0.8556969165802,airplane,airplane,0.05,0431_nse_s03_0.05_airplane_10_n02690373_932.png
subject-03,1,432,0.655518054962158,cat,cat,0.05,0432_nse_s03_0.05_cat_10_n02123394_7223.png
subject-03,1,433,0.571077823638916,clock,clock,0.03,0433_nse_s03_0.03_clock_10_n04548280_9752.png
subject-03,1,434,0.791326999664307,elephant,elephant,0.03,0434_nse_s03_0.03_elephant_10_n02504458_611.png
subject-03,1,435,0.700747013092041,clock,clock,0.05,0435_nse_s03_0.05_clock_10_n03196217_3868.png
subject-03,1,436,0.68861198425293,boat,chair,0.90,0436_nse_s03_0.90_chair_10_n02791124_8788.png
subject-03,1,437,0.776464939117432,elephant,elephant,0.35,0437_nse_s03_0.35_elephant_10_n02504458_485.png
subject-03,1,438,0.646337032318115,airplane,airplane,0.00,0438_nse_s03_0.00_airplane_10_n02690373_6031.png
subject-03,1,439,1.27838516235352,clock,clock,0.60,0439_nse_s03_0.60_clock_10_n02708093_1100.png
subject-03,1,440,0.655930995941162,car,car,0.00,0440_nse_s03_0.00_car_10_n04285008_14349.png
subject-03,1,441,0.893581867218018,elephant,cat,0.60,0441_nse_s03_0.60_cat_10_n02123159_2256.png
subject-03,1,442,0.833611011505127,bird,bird,0.03,0442_nse_s03_0.03_bird_10_n02018207_4180.png
subject-03,1,443,0.725441932678223,boat,boat,0.00,0443_nse_s03_0.00_boat_10_n03662601_11972.png
subject-03,1,444,1.0089430809021,airplane,airplane,0.10,0444_nse_s03_0.10_airplane_10_n02690373_5003.png
subject-03,1,445,0.839011907577515,bicycle,bicycle,0.60,0445_nse_s03_0.60_bicycle_10_n02835271_5821.png
subject-03,1,446,0.848734855651855,oven,knife,0.20,0446_nse_s03_0.20_knife_10_n03041632_29355.png
subject-03,1,447,0.710558891296387,cat,cat,0.10,0447_nse_s03_0.10_cat_10_n02124075_7240.png
subject-03,1,448,0.95440411567688,elephant,elephant,0.10,0448_nse_s03_0.10_elephant_10_n02504013_1577.png
subject-03,1,449,1.48616218566895,knife,knife,0.10,0449_nse_s03_0.10_knife_10_n03041632_28129.png
subject-03,1,450,1.30209398269653,boat,boat,0.10,0450_nse_s03_0.10_boat_10_n04273569_11940.png
subject-03,1,451,0.695698976516724,bottle,elephant,0.60,0451_nse_s03_0.60_elephant_10_n02504458_4824.png
subject-03,1,452,0.705830097198486,bird,bird,0.35,0452_nse_s03_0.35_bird_10_n02027492_6813.png
subject-03,1,453,1.05145406723022,cat,bear,0.20,0453_nse_s03_0.20_bear_10_n02133161_9463.png
subject-03,1,454,0.929260969161987,keyboard,knife,0.35,0454_nse_s03_0.35_knife_10_n03041632_40508.png
subject-03,1,455,0.521339178085327,boat,bear,0.90,0455_nse_s03_0.90_bear_10_n02133161_10190.png
subject-03,1,456,0.906976938247681,oven,oven,0.00,0456_nse_s03_0.00_oven_10_n04111531_14758.png
subject-03,1,457,0.782663106918335,clock,chair,0.90,0457_nse_s03_0.90_chair_10_n04429376_7321.png
subject-03,1,458,0.628826856613159,bicycle,bicycle,0.03,0458_nse_s03_0.03_bicycle_10_n02835271_6167.png
subject-03,1,459,0.944571971893311,dog,dog,0.05,0459_nse_s03_0.05_dog_10_n02087394_6330.png
subject-03,1,460,0.994041919708252,bird,bird,0.60,0460_nse_s03_0.60_bird_10_n01843065_1871.png
subject-03,1,461,0.786036968231201,keyboard,keyboard,0.00,0461_nse_s03_0.00_keyboard_10_n04505470_1052.png
subject-03,1,462,1.32580900192261,dog,dog,0.03,0462_nse_s03_0.03_dog_10_n02102480_6569.png
subject-03,1,463,0.509676933288574,clock,clock,0.00,0463_nse_s03_0.00_clock_10_n02708093_3702.png
subject-03,1,464,0.897478818893433,bird,oven,0.10,0464_nse_s03_0.10_oven_10_n04111531_16198.png
subject-03,1,465,1.0430760383606,bottle,bottle,0.20,0465_nse_s03_0.20_bottle_10_n03937543_2105.png
subject-03,1,466,0.660894870758057,bicycle,bicycle,0.05,0466_nse_s03_0.05_bicycle_10_n03792782_6083.png
subject-03,1,467,0.784893035888672,keyboard,keyboard,0.05,0467_nse_s03_0.05_keyboard_10_n03085013_5611.png
subject-03,1,468,1.22486805915833,oven,truck,0.60,0468_nse_s03_0.60_truck_10_n04467665_37833.png
subject-03,1,469,1.08261704444885,dog,dog,0.20,0469_nse_s03_0.20_dog_10_n02110063_4287.png
subject-03,1,470,0.936278820037842,oven,knife,0.00,0470_nse_s03_0.00_knife_10_n03041632_25512.png
subject-03,1,471,0.838329076766968,car,car,0.20,0471_nse_s03_0.20_car_10_n04285008_13629.png
subject-03,1,472,0.832107782363892,dog,dog,0.35,0472_nse_s03_0.35_dog_10_n02097474_10860.png
subject-03,1,473,0.94379186630249,bear,bear,0.10,0473_nse_s03_0.10_bear_10_n02134084_11993.png
subject-03,1,474,1.04945206642151,truck,knife,0.90,0474_nse_s03_0.90_knife_10_n03041632_99460.png
subject-03,1,475,0.731688022613525,oven,oven,0.03,0475_nse_s03_0.03_oven_10_n04111531_6415.png
subject-03,1,476,1.08518290519714,airplane,bottle,0.90,0476_nse_s03_0.90_bottle_10_n02823428_5482.png
subject-03,1,477,0.774934053421021,car,car,0.10,0477_nse_s03_0.10_car_10_n04285008_14554.png
subject-03,1,478,0.97281289100647,bicycle,boat,0.10,0478_nse_s03_0.10_boat_10_n02951358_15413.png
subject-03,1,479,1.35657501220703,oven,bottle,0.35,0479_nse_s03_0.35_bottle_10_n04591713_7121.png
subject-03,1,480,0.742484092712402,bottle,elephant,0.60,0480_nse_s03_0.60_elephant_10_n02504458_5941.png
subject-03,1,481,0.952946186065674,bird,cat,0.05,0481_nse_s03_0.05_cat_10_n02123045_10433.png
subject-03,1,482,0.938832998275757,keyboard,keyboard,0.35,0482_nse_s03_0.35_keyboard_10_n04505470_2141.png
subject-03,1,483,0.754677057266235,oven,oven,0.20,0483_nse_s03_0.20_oven_10_n04111531_5727.png
subject-03,1,484,1.06059980392456,dog,cat,0.20,0484_nse_s03_0.20_cat_10_n02123597_1750.png
subject-03,1,485,0.618231058120728,keyboard,keyboard,0.00,0485_nse_s03_0.00_keyboard_10_n04505470_4682.png
subject-03,1,486,0.856348037719727,airplane,bird,0.60,0486_nse_s03_0.60_bird_10_n01530575_10612.png
subject-03,1,487,1.05201506614685,bear,bear,0.00,0487_nse_s03_0.00_bear_10_n02133161_11816.png
subject-03,1,488,0.656090021133423,chair,chair,0.10,0488_nse_s03_0.10_chair_10_n04099969_8647.png
subject-03,1,489,0.791584968566895,cat,cat,0.35,0489_nse_s03_0.35_cat_10_n02123159_3299.png
subject-03,1,490,0.933231830596924,truck,truck,0.35,0490_nse_s03_0.35_truck_10_n04467665_4810.png
subject-03,1,491,1.13724088668823,dog,bird,0.20,0491_nse_s03_0.20_bird_10_n01530575_10119.png
subject-03,1,492,1.1289701461792,truck,airplane,0.90,0492_nse_s03_0.90_airplane_10_n02690373_4982.png
subject-03,1,493,1.11688208580017,dog,dog,0.05,0493_nse_s03_0.05_dog_10_n02102480_10015.png
subject-03,1,494,0.938666105270386,car,elephant,0.35,0494_nse_s03_0.35_elephant_10_n02504458_1041.png
subject-03,1,495,0.706611156463623,car,car,0.35,0495_nse_s03_0.35_car_10_n04285008_10631.png
subject-03,1,496,0.802604913711548,bird,cat,0.35,0496_nse_s03_0.35_cat_10_n02123045_8491.png
subject-03,1,497,0.826361894607544,cat,elephant,0.60,0497_nse_s03_0.60_elephant_10_n02504458_5288.png
subject-03,1,498,0.943964958190918,car,car,0.60,0498_nse_s03_0.60_car_10_n02814533_8232.png
subject-03,1,499,0.985596895217896,truck,truck,0.03,0499_nse_s03_0.03_truck_10_n04467665_67908.png
subject-03,1,500,0.791857004165649,boat,boat,0.03,0500_nse_s03_0.03_boat_10_n03662601_34009.png
subject-03,1,501,0.997153997421265,chair,chair,0.10,0501_nse_s03_0.10_chair_10_n04099969_1690.png
subject-03,1,502,0.781051158905029,truck,truck,0.00,0502_nse_s03_0.00_truck_10_n03417042_13151.png
subject-03,1,503,1.08696579933167,bicycle,bicycle,0.90,0503_nse_s03_0.90_bicycle_10_n02835271_30318.png
subject-03,1,504,0.880728006362915,truck,truck,0.10,0504_nse_s03_0.10_truck_10_n04467665_74008.png
subject-03,1,505,0.958836078643799,car,bicycle,0.00,0505_nse_s03_0.00_bicycle_10_n03792782_2024.png
subject-03,1,506,NaN,na,clock,0.90,0506_nse_s03_0.90_clock_10_n04548280_5189.png
subject-03,1,507,0.912480115890503,truck,truck,0.20,0507_nse_s03_0.20_truck_10_n04467665_72022.png
subject-03,1,508,0.796036958694458,car,boat,0.35,0508_nse_s03_0.35_boat_10_n03662601_5419.png
subject-03,1,509,0.707648038864136,boat,oven,0.90,0509_nse_s03_0.90_oven_10_n04111531_845.png
subject-03,1,510,0.74162483215332,truck,truck,0.05,0510_nse_s03_0.05_truck_10_n03417042_7187.png
subject-03,1,511,1.2233579158783,car,chair,0.60,0511_nse_s03_0.60_chair_10_n03376595_3010.png
subject-03,1,512,0.875080108642578,airplane,airplane,0.35,0512_nse_s03_0.35_airplane_10_n02690373_2313.png
subject-03,1,513,0.890885829925537,truck,truck,0.03,0513_nse_s03_0.03_truck_10_n04467665_2098.png
subject-03,1,514,0.808848142623901,oven,bicycle,0.90,0514_nse_s03_0.90_bicycle_10_n03792782_3754.png
subject-03,1,515,1.37048196792603,car,car,0.60,0515_nse_s03_0.60_car_10_n04285008_12501.png
subject-03,1,516,1.45843696594238,truck,chair,0.35,0516_nse_s03_0.35_chair_10_n04429376_9589.png
subject-03,1,517,0.740216016769409,clock,bottle,0.90,0517_nse_s03_0.90_bottle_10_n03937543_7493.png
subject-03,1,518,1.04631185531616,oven,knife,0.00,0518_nse_s03_0.00_knife_10_n03041632_289.png
subject-03,1,519,0.721910953521729,bird,bird,0.00,0519_nse_s03_0.00_bird_10_n02009229_4129.png
subject-03,1,520,0.78559398651123,knife,knife,0.00,0520_nse_s03_0.00_knife_10_n03041632_45636.png
subject-03,1,521,0.951575994491577,chair,chair,0.03,0521_nse_s03_0.03_chair_10_n04429376_33792.png
subject-03,1,522,1.27519917488098,chair,keyboard,0.60,0522_nse_s03_0.60_keyboard_10_n03085013_20363.png
subject-03,1,523,0.785486936569214,bear,bear,0.05,0523_nse_s03_0.05_bear_10_n02132136_10412.png
subject-03,1,524,0.814844846725464,chair,cat,0.60,0524_nse_s03_0.60_cat_10_n02123159_6162.png
subject-03,1,525,0.78670597076416,truck,truck,0.35,0525_nse_s03_0.35_truck_10_n03796401_2551.png
subject-03,1,526,0.860641002655029,boat,boat,0.60,0526_nse_s03_0.60_boat_10_n04273569_7296.png
subject-03,1,527,0.968415021896362,oven,oven,0.10,0527_nse_s03_0.10_oven_10_n04111531_538.png
subject-03,1,528,0.862251043319702,car,car,0.00,0528_nse_s03_0.00_car_10_n02814533_52389.png
subject-03,1,529,0.664171934127808,keyboard,keyboard,0.20,0529_nse_s03_0.20_keyboard_10_n04505470_5172.png
subject-03,1,530,0.763712882995605,car,bottle,0.60,0530_nse_s03_0.60_bottle_10_n02823428_3478.png
subject-03,1,531,0.737756967544556,keyboard,keyboard,0.03,0531_nse_s03_0.03_keyboard_10_n03085013_23697.png
subject-03,1,532,0.83141303062439,clock,bicycle,0.90,0532_nse_s03_0.90_bicycle_10_n02835271_542.png
subject-03,1,533,1.05356311798096,bicycle,chair,0.35,0533_nse_s03_0.35_chair_10_n02791124_13469.png
subject-03,1,534,1.25897002220154,dog,knife,0.60,0534_nse_s03_0.60_knife_10_n03041632_42162.png
subject-03,1,535,0.714740991592407,bicycle,bicycle,0.35,0535_nse_s03_0.35_bicycle_10_n02835271_5825.png
subject-03,1,536,1.15470004081726,truck,oven,0.90,0536_nse_s03_0.90_oven_10_n04111531_1009.png
subject-03,1,537,1.00851798057556,airplane,elephant,0.90,0537_nse_s03_0.90_elephant_10_n02504458_4139.png
subject-03,1,538,0.910310029983521,knife,bottle,0.90,0538_nse_s03_0.90_bottle_10_n04579145_1117.png
subject-03,1,539,0.986131906509399,clock,clock,0.20,0539_nse_s03_0.20_clock_10_n03196217_4486.png
subject-03,1,540,0.955834865570068,knife,knife,0.20,0540_nse_s03_0.20_knife_10_n03041632_36280.png
subject-03,1,541,0.733869075775146,keyboard,keyboard,0.10,0541_nse_s03_0.10_keyboard_10_n04505470_6876.png
subject-03,1,542,1.00149607658386,dog,elephant,0.35,0542_nse_s03_0.35_elephant_10_n02504013_4762.png
subject-03,1,543,0.605288028717041,clock,clock,0.00,0543_nse_s03_0.00_clock_10_n03196217_6064.png
subject-03,1,544,0.809123039245605,car,car,0.03,0544_nse_s03_0.03_car_10_n03100240_8683.png
subject-03,1,545,1.001051902771,keyboard,truck,0.35,0545_nse_s03_0.35_truck_10_n03417042_8928.png
subject-03,1,546,1.11515283584595,cat,cat,0.00,0546_nse_s03_0.00_cat_10_n02124075_9591.png
subject-03,1,547,0.742588043212891,chair,chair,0.03,0547_nse_s03_0.03_chair_10_n03376595_524.png
subject-03,1,548,1.24450492858887,elephant,elephant,0.20,0548_nse_s03_0.20_elephant_10_n02504458_309.png
subject-03,1,549,1.20831179618835,bicycle,bear,0.05,0549_nse_s03_0.05_bear_10_n02133161_2396.png
subject-03,1,550,0.976156949996948,oven,truck,0.60,0550_nse_s03_0.60_truck_10_n03417042_4876.png
subject-03,1,551,1.0460569858551,clock,clock,0.60,0551_nse_s03_0.60_clock_10_n04548280_1438.png
subject-03,1,552,0.899712085723877,boat,bear,0.00,0552_nse_s03_0.00_bear_10_n02132136_5138.png
subject-03,1,553,0.877707004547119,truck,elephant,0.60,0553_nse_s03_0.60_elephant_10_n02504458_4776.png
subject-03,1,554,1.02121520042419,dog,dog,0.20,0554_nse_s03_0.20_dog_10_n02100236_4048.png
subject-03,1,555,0.867107152938843,chair,chair,0.10,0555_nse_s03_0.10_chair_10_n04099969_6266.png
subject-03,1,556,0.743063926696777,cat,cat,0.03,0556_nse_s03_0.03_cat_10_n02124075_14924.png
subject-03,1,557,1.07322597503662,bird,bird,0.03,0557_nse_s03_0.03_bird_10_n01843065_654.png
subject-03,1,558,0.848652124404907,cat,bear,0.05,0558_nse_s03_0.05_bear_10_n02132136_17161.png
subject-03,1,559,1.25041699409485,car,chair,0.03,0559_nse_s03_0.03_chair_10_n02791124_5795.png
subject-03,1,560,0.828294038772583,bicycle,bicycle,0.00,0560_nse_s03_0.00_bicycle_10_n02835271_9297.png
subject-03,1,561,0.713706016540527,clock,car,0.90,0561_nse_s03_0.90_car_10_n04285008_15003.png
subject-03,1,562,0.793888092041016,cat,elephant,0.05,0562_nse_s03_0.05_elephant_10_n02504013_13766.png
subject-03,1,563,0.90154504776001,airplane,airplane,0.05,0563_nse_s03_0.05_airplane_10_n02690373_9535.png
subject-03,1,564,0.959100008010864,knife,knife,0.60,0564_nse_s03_0.60_knife_10_n03041632_13645.png
subject-03,1,565,0.944969177246094,bear,bear,0.00,0565_nse_s03_0.00_bear_10_n02132136_2263.png
subject-03,1,566,0.936770915985107,car,knife,0.90,0566_nse_s03_0.90_knife_10_n03041632_19620.png
subject-03,1,567,1.01045894622803,oven,car,0.90,0567_nse_s03_0.90_car_10_n02814533_93476.png
subject-03,1,568,0.966507196426392,chair,chair,0.00,0568_nse_s03_0.00_chair_10_n04099969_14288.png
subject-03,1,569,0.876354932785034,knife,knife,0.00,0569_nse_s03_0.00_knife_10_n03041632_38540.png
subject-03,1,570,1.22236204147339,clock,clock,0.10,0570_nse_s03_0.10_clock_10_n04548280_8668.png
subject-03,1,571,1.12977385520935,car,boat,0.90,0571_nse_s03_0.90_boat_10_n04273569_16078.png
subject-03,1,572,0.781574010848999,oven,oven,0.00,0572_nse_s03_0.00_oven_10_n04111531_9611.png
subject-03,1,573,1.48756098747253,truck,truck,0.10,0573_nse_s03_0.10_truck_10_n03417042_5380.png
subject-03,1,574,0.883265972137451,knife,knife,0.05,0574_nse_s03_0.05_knife_10_n03041632_19098.png
subject-03,1,575,0.975133180618286,cat,dog,0.90,0575_nse_s03_0.90_dog_10_n02093754_5736.png
subject-03,1,576,0.688821077346802,clock,clock,0.10,0576_nse_s03_0.10_clock_10_n03196217_3140.png
subject-03,1,577,0.932752132415771,car,truck,0.90,0577_nse_s03_0.90_truck_10_n03417042_27988.png
subject-03,1,578,0.746556043624878,cat,cat,0.05,0578_nse_s03_0.05_cat_10_n02125311_6393.png
subject-03,1,579,0.840277910232544,chair,truck,0.35,0579_nse_s03_0.35_truck_10_n04467665_44715.png
subject-03,1,580,0.99842381477356,chair,chair,0.00,0580_nse_s03_0.00_chair_10_n03376595_16202.png
subject-03,1,581,1.09386110305786,bottle,bird,0.60,0581_nse_s03_0.60_bird_10_n02018207_43958.png
subject-03,1,582,0.821725130081177,bear,bear,0.35,0582_nse_s03_0.35_bear_10_n02132136_2760.png
subject-03,1,583,0.847616910934448,dog,bear,0.10,0583_nse_s03_0.10_bear_10_n02134418_4349.png
subject-03,1,584,0.843636989593506,bottle,truck,0.10,0584_nse_s03_0.10_truck_10_n03796401_407.png
subject-03,1,585,0.689319133758545,airplane,airplane,0.00,0585_nse_s03_0.00_airplane_10_n02690373_8666.png
subject-03,1,586,1.0909218788147,bird,bird,0.05,0586_nse_s03_0.05_bird_10_n01820546_3203.png
subject-03,1,587,0.883173942565918,car,airplane,0.90,0587_nse_s03_0.90_airplane_10_n02690373_2026.png
subject-03,1,588,0.70492696762085,airplane,airplane,0.00,0588_nse_s03_0.00_airplane_10_n02690373_17722.png
subject-03,1,589,1.23041486740112,chair,car,0.20,0589_nse_s03_0.20_car_10_n03100240_4294.png
subject-03,1,590,0.82633113861084,clock,keyboard,0.10,0590_nse_s03_0.10_keyboard_10_n03085013_2073.png
subject-03,1,591,0.836096048355103,truck,truck,0.05,0591_nse_s03_0.05_truck_10_n03417042_6489.png
subject-03,1,592,0.80596399307251,keyboard,keyboard,0.00,0592_nse_s03_0.00_keyboard_10_n04505470_3864.png
subject-03,1,593,0.885682821273804,oven,oven,0.10,0593_nse_s03_0.10_oven_10_n04111531_12129.png
subject-03,1,594,0.895961999893188,airplane,airplane,0.05,0594_nse_s03_0.05_airplane_10_n02690373_1161.png
subject-03,1,595,1.01917386054993,knife,knife,0.03,0595_nse_s03_0.03_knife_10_n03041632_3504.png
subject-03,1,596,1.16702604293823,bicycle,bicycle,0.00,0596_nse_s03_0.00_bicycle_10_n03792782_13608.png
subject-03,1,597,1.23290681838989,dog,dog,0.00,0597_nse_s03_0.00_dog_10_n02107683_6800.png
subject-03,1,598,1.30894804000854,truck,boat,0.20,0598_nse_s03_0.20_boat_10_n03344393_11590.png
subject-03,1,599,0.878591060638428,boat,boat,0.20,0599_nse_s03_0.20_boat_10_n04612504_40672.png
subject-03,1,600,0.882791996002197,knife,knife,0.20,0600_nse_s03_0.20_knife_10_n03041632_46103.png
subject-03,1,601,0.760525941848755,boat,boat,0.10,0601_nse_s03_0.10_boat_10_n04273569_27325.png
subject-03,1,602,0.814161062240601,oven,bottle,0.90,0602_nse_s03_0.90_bottle_10_n04560804_7375.png
subject-03,1,603,0.823942899703979,oven,oven,0.20,0603_nse_s03_0.20_oven_10_n04111531_3121.png
subject-03,1,604,0.763881921768188,oven,clock,0.90,0604_nse_s03_0.90_clock_10_n04548280_3053.png
subject-03,1,605,0.743517160415649,cat,cat,0.10,0605_nse_s03_0.10_cat_10_n02125311_33778.png
subject-03,1,606,1.1431519985199,elephant,elephant,0.05,0606_nse_s03_0.05_elephant_10_n02504458_7634.png
subject-03,1,607,0.815108060836792,airplane,airplane,0.10,0607_nse_s03_0.10_airplane_10_n02690373_2521.png
subject-03,1,608,0.910823106765747,keyboard,keyboard,0.10,0608_nse_s03_0.10_keyboard_10_n04505470_4521.png
subject-03,1,609,0.968769073486328,oven,bicycle,0.03,0609_nse_s03_0.03_bicycle_10_n03792782_6613.png
subject-03,1,610,1.05882096290588,elephant,elephant,0.20,0610_nse_s03_0.20_elephant_10_n02504013_18217.png
subject-03,1,611,0.776583909988403,cat,cat,0.20,0611_nse_s03_0.20_cat_10_n02124075_951.png
subject-03,1,612,0.662108898162842,boat,chair,0.35,0612_nse_s03_0.35_chair_10_n04429376_8124.png
subject-03,1,613,1.10997581481934,bicycle,bicycle,0.20,0613_nse_s03_0.20_bicycle_10_n02835271_22623.png
subject-03,1,614,0.972124099731445,car,car,0.20,0614_nse_s03_0.20_car_10_n02814533_5430.png
subject-03,1,615,0.967506170272827,keyboard,keyboard,0.03,0615_nse_s03_0.03_keyboard_10_n03085013_23119.png
subject-03,1,616,0.87570595741272,bear,boat,0.35,0616_nse_s03_0.35_boat_10_n02951358_33559.png
subject-03,1,617,1.04129195213318,clock,keyboard,0.03,0617_nse_s03_0.03_keyboard_10_n04505470_6051.png
subject-03,1,618,0.682958841323853,oven,knife,0.20,0618_nse_s03_0.20_knife_10_n03041632_24541.png
subject-03,1,619,0.74076509475708,truck,truck,0.00,0619_nse_s03_0.00_truck_10_n04467665_242.png
subject-03,1,620,1.09868407249451,car,boat,0.35,0620_nse_s03_0.35_boat_10_n02951358_10003.png
subject-03,1,621,0.702400922775269,bicycle,bicycle,0.20,0621_nse_s03_0.20_bicycle_10_n03792782_11417.png
subject-03,1,622,0.838122129440308,bottle,bottle,0.05,0622_nse_s03_0.05_bottle_10_n03983396_3109.png
subject-03,1,623,0.697995901107788,airplane,airplane,0.05,0623_nse_s03_0.05_airplane_10_n02690373_4706.png
subject-03,1,624,0.804289817810059,boat,cat,0.60,0624_nse_s03_0.60_cat_10_n02123159_6596.png
subject-03,1,625,1.03362393379211,chair,chair,0.20,0625_nse_s03_0.20_chair_10_n02791124_4969.png
subject-03,1,626,1.05542707443237,bird,elephant,0.03,0626_nse_s03_0.03_elephant_10_n02504013_7147.png
subject-03,1,627,0.699300050735474,clock,clock,0.00,0627_nse_s03_0.00_clock_10_n04548280_3716.png
subject-03,1,628,0.865133047103882,car,car,0.05,0628_nse_s03_0.05_car_10_n03100240_4173.png
subject-03,1,629,1.00910496711731,airplane,clock,0.35,0629_nse_s03_0.35_clock_10_n04548280_5088.png
subject-03,1,630,0.848811864852905,bird,bird,0.35,0630_nse_s03_0.35_bird_10_n01534433_12864.png
subject-03,1,631,0.984957933425903,cat,cat,0.20,0631_nse_s03_0.20_cat_10_n02123394_5895.png
subject-03,1,632,1.08843088150024,bird,bird,0.10,0632_nse_s03_0.10_bird_10_n02018795_14312.png
subject-03,1,633,1.04434299468994,bird,bottle,0.00,0633_nse_s03_0.00_bottle_10_n03937543_9745.png
subject-03,1,634,0.982020854949951,dog,bottle,0.35,0634_nse_s03_0.35_bottle_10_n04557648_310.png
subject-03,1,635,0.739686965942383,bottle,elephant,0.90,0635_nse_s03_0.90_elephant_10_n02504458_2419.png
subject-03,1,636,0.6495521068573,boat,cat,0.10,0636_nse_s03_0.10_cat_10_n02123159_3472.png
subject-03,1,637,0.627563953399658,cat,bird,0.20,0637_nse_s03_0.20_bird_10_n01797886_551.png
subject-03,1,638,0.803158044815063,bear,oven,0.90,0638_nse_s03_0.90_oven_10_n04111531_17995.png
subject-03,1,639,1.0931921005249,car,airplane,0.60,0639_nse_s03_0.60_airplane_10_n02690373_9001.png
subject-03,1,640,0.831050157546997,car,car,0.00,0640_nse_s03_0.00_car_10_n03100240_4348.png
subject-03,1,641,0.72668194770813,oven,knife,0.10,0641_nse_s03_0.10_knife_10_n03041632_31849.png
subject-03,1,642,0.616394996643066,clock,oven,0.90,0642_nse_s03_0.90_oven_10_n04111531_22916.png
subject-03,1,643,0.612173080444336,boat,boat,0.20,0643_nse_s03_0.20_boat_10_n02951358_28889.png
subject-03,1,644,1.05206203460693,bottle,oven,0.03,0644_nse_s03_0.03_oven_10_n04111531_11669.png
subject-03,1,645,0.873748064041138,airplane,boat,0.90,0645_nse_s03_0.90_boat_10_n03662601_3913.png
subject-03,1,646,0.679696083068848,airplane,airplane,0.10,0646_nse_s03_0.10_airplane_10_n02690373_3818.png
subject-03,1,647,0.987383127212524,bird,boat,0.10,0647_nse_s03_0.10_boat_10_n03344393_5207.png
subject-03,1,648,0.789364814758301,truck,clock,0.35,0648_nse_s03_0.35_clock_10_n03196217_6672.png
subject-03,1,649,0.920928001403809,bicycle,bicycle,0.00,0649_nse_s03_0.00_bicycle_10_n02835271_5056.png
subject-03,1,650,0.66678786277771,clock,clock,0.35,0650_nse_s03_0.35_clock_10_n02708093_4912.png
subject-03,1,651,1.22055220603943,knife,knife,0.35,0651_nse_s03_0.35_knife_10_n03041632_36390.png
subject-03,1,652,0.690924882888794,bottle,bottle,0.00,0652_nse_s03_0.00_bottle_10_n04591713_5476.png
subject-03,1,653,0.810313940048218,chair,chair,0.05,0653_nse_s03_0.05_chair_10_n04099969_5242.png
subject-03,1,654,0.828171014785767,bottle,dog,0.60,0654_nse_s03_0.60_dog_10_n02107683_3902.png
subject-03,1,655,0.684018850326538,oven,bear,0.90,0655_nse_s03_0.90_bear_10_n02134418_5478.png
subject-03,1,656,0.803599119186401,dog,dog,0.03,0656_nse_s03_0.03_dog_10_n02095314_4996.png
subject-03,1,657,0.835894823074341,chair,chair,0.20,0657_nse_s03_0.20_chair_10_n03376595_5909.png
subject-03,1,658,1.00961303710938,bottle,bottle,0.35,0658_nse_s03_0.35_bottle_10_n04591713_665.png
subject-03,1,659,0.707227945327759,bird,bird,0.90,0659_nse_s03_0.90_bird_10_n01843383_4896.png
subject-03,1,660,0.748820066452026,airplane,airplane,0.00,0660_nse_s03_0.00_airplane_10_n02690373_8446.png
subject-03,1,661,0.713070869445801,bear,bear,0.03,0661_nse_s03_0.03_bear_10_n02132136_9735.png
subject-03,1,662,0.818512916564941,clock,bird,0.90,0662_nse_s03_0.90_bird_10_n01820546_654.png
subject-03,1,663,1.01484417915344,oven,knife,0.35,0663_nse_s03_0.35_knife_10_n03041632_18959.png
subject-03,1,664,0.792340993881226,car,bicycle,0.90,0664_nse_s03_0.90_bicycle_10_n03792782_4067.png
subject-03,1,665,0.928159952163696,airplane,dog,0.90,0665_nse_s03_0.90_dog_10_n02105162_10475.png
subject-03,1,666,0.766003847122192,oven,bear,0.60,0666_nse_s03_0.60_bear_10_n02134418_3767.png
subject-03,1,667,0.605942010879517,car,car,0.20,0667_nse_s03_0.20_car_10_n03100240_16803.png
subject-03,1,668,0.921542882919312,truck,oven,0.60,0668_nse_s03_0.60_oven_10_n04111531_6695.png
subject-03,1,669,0.673420906066895,cat,cat,0.10,0669_nse_s03_0.10_cat_10_n02124075_15399.png
subject-03,1,670,0.675513982772827,car,keyboard,0.35,0670_nse_s03_0.35_keyboard_10_n04505470_3425.png
subject-03,1,671,0.875024080276489,car,truck,0.35,0671_nse_s03_0.35_truck_10_n04467665_20923.png
subject-03,1,672,0.716768026351929,boat,bear,0.90,0672_nse_s03_0.90_bear_10_n02134418_4893.png
subject-03,1,673,0.892615079879761,elephant,elephant,0.05,0673_nse_s03_0.05_elephant_10_n02504013_19753.png
subject-03,1,674,0.660407066345215,clock,clock,0.20,0674_nse_s03_0.20_clock_10_n03196217_5827.png
subject-03,1,675,0.858116149902344,keyboard,clock,0.05,0675_nse_s03_0.05_clock_10_n03196217_3987.png
subject-03,1,676,0.771986961364746,airplane,airplane,0.20,0676_nse_s03_0.20_airplane_10_n02690373_10423.png
subject-03,1,677,0.900158166885376,truck,truck,0.10,0677_nse_s03_0.10_truck_10_n03796401_21198.png
subject-03,1,678,0.839802980422974,elephant,elephant,0.00,0678_nse_s03_0.00_elephant_10_n02504013_8534.png
subject-03,1,679,1.12956404685974,keyboard,bottle,0.20,0679_nse_s03_0.20_bottle_10_n04557648_2075.png
subject-03,1,680,0.811681032180786,cat,dog,0.20,0680_nse_s03_0.20_dog_10_n02102318_7028.png
subject-03,1,681,0.727256059646606,dog,boat,0.90,0681_nse_s03_0.90_boat_10_n04273569_18898.png
subject-03,1,682,0.761022090911865,airplane,airplane,0.03,0682_nse_s03_0.03_airplane_10_n02690373_6755.png
subject-03,1,683,0.848628997802734,bicycle,bicycle,0.05,0683_nse_s03_0.05_bicycle_10_n03792782_11034.png
subject-03,1,684,0.826390027999878,dog,dog,0.03,0684_nse_s03_0.03_dog_10_n02110806_27169.png
subject-03,1,685,0.666214942932129,cat,bear,0.35,0685_nse_s03_0.35_bear_10_n02133161_5927.png
subject-03,1,686,0.668483018875122,airplane,airplane,0.03,0686_nse_s03_0.03_airplane_10_n02690373_1983.png
subject-03,1,687,0.787955045700073,oven,oven,0.03,0687_nse_s03_0.03_oven_10_n04111531_9474.png
subject-03,1,688,0.783629894256592,truck,truck,0.20,0688_nse_s03_0.20_truck_10_n03796401_3191.png
subject-03,1,689,0.793417930603027,cat,oven,0.60,0689_nse_s03_0.60_oven_10_n04111531_9915.png
subject-03,1,690,0.749498844146729,truck,truck,0.00,0690_nse_s03_0.00_truck_10_n04467665_3502.png
subject-03,1,691,1.12325310707092,boat,oven,0.60,0691_nse_s03_0.60_oven_10_n04111531_1752.png
subject-03,1,692,0.829067945480347,dog,dog,0.10,0692_nse_s03_0.10_dog_10_n02097130_7349.png
subject-03,1,693,0.728761911392212,elephant,elephant,0.05,0693_nse_s03_0.05_elephant_10_n02504013_318.png
subject-03,1,694,1.5,keyboard,dog,0.60,0694_nse_s03_0.60_dog_10_n02096294_5451.png
subject-03,1,695,1.26447606086731,elephant,clock,0.90,0695_nse_s03_0.90_clock_10_n02708093_6572.png
subject-03,1,696,0.618234157562256,airplane,bird,0.20,0696_nse_s03_0.20_bird_10_n02011460_13026.png
subject-03,1,697,0.722151041030884,bird,keyboard,0.90,0697_nse_s03_0.90_keyboard_10_n03085013_20727.png
subject-03,1,698,0.823786973953247,oven,chair,0.05,0698_nse_s03_0.05_chair_10_n02791124_7142.png
subject-03,1,699,0.877574920654297,dog,knife,0.03,0699_nse_s03_0.03_knife_10_n03041632_3781.png
subject-03,1,700,0.823590040206909,oven,keyboard,0.00,0700_nse_s03_0.00_keyboard_10_n04505470_6847.png
subject-03,1,701,0.935367822647095,bear,bear,0.60,0701_nse_s03_0.60_bear_10_n02133161_97.png
subject-03,1,702,1.2029230594635,dog,knife,0.35,0702_nse_s03_0.35_knife_10_n03041632_45270.png
subject-03,1,703,0.963197946548462,oven,knife,0.35,0703_nse_s03_0.35_knife_10_n03041632_54732.png
subject-03,1,704,0.720841884613037,bear,bear,0.03,0704_nse_s03_0.03_bear_10_n02132136_6967.png
subject-03,1,705,0.778507947921753,car,truck,0.90,0705_nse_s03_0.90_truck_10_n03417042_12908.png
subject-03,1,706,1.17255902290344,boat,boat,0.05,0706_nse_s03_0.05_boat_10_n03662601_5176.png
subject-03,1,707,0.594073057174683,clock,clock,0.00,0707_nse_s03_0.00_clock_10_n02708093_3591.png
subject-03,1,708,0.698356866836548,bottle,bottle,0.00,0708_nse_s03_0.00_bottle_10_n04591713_2808.png
subject-03,1,709,1.14598298072815,bear,bird,0.03,0709_nse_s03_0.03_bird_10_n01601694_7574.png
subject-03,1,710,0.750026941299438,airplane,dog,0.90,0710_nse_s03_0.90_dog_10_n02109047_6542.png
subject-03,1,711,0.88338303565979,airplane,airplane,0.35,0711_nse_s03_0.35_airplane_10_n02690373_1733.png
subject-03,1,712,1.11175417900085,keyboard,keyboard,0.00,0712_nse_s03_0.00_keyboard_10_n03085013_23369.png
subject-03,1,713,1.11339402198792,car,car,0.20,0713_nse_s03_0.20_car_10_n04285008_7139.png
subject-03,1,714,0.816951036453247,keyboard,keyboard,0.03,0714_nse_s03_0.03_keyboard_10_n03085013_24309.png
subject-03,1,715,1.19702410697937,airplane,airplane,0.10,0715_nse_s03_0.10_airplane_10_n02690373_2579.png
subject-03,1,716,0.674573183059692,oven,truck,0.60,0716_nse_s03_0.60_truck_10_n04467665_20933.png
subject-03,1,717,0.652318954467773,dog,dog,0.00,0717_nse_s03_0.00_dog_10_n02107683_7021.png
subject-03,1,718,0.822309017181396,keyboard,keyboard,0.05,0718_nse_s03_0.05_keyboard_10_n04505470_1043.png
subject-03,1,719,1.18450593948364,clock,elephant,0.90,0719_nse_s03_0.90_elephant_10_n02504013_7032.png
subject-03,1,720,0.849723100662231,knife,knife,0.10,0720_nse_s03_0.10_knife_10_n03041632_29862.png
subject-03,1,721,0.8161780834198,airplane,boat,0.03,0721_nse_s03_0.03_boat_10_n03344393_6892.png
subject-03,1,722,1.24211502075195,bottle,oven,0.60,0722_nse_s03_0.60_oven_10_n04111531_22797.png
subject-03,1,723,1.11199903488159,bird,bird,0.20,0723_nse_s03_0.20_bird_10_n02002556_139.png
subject-03,1,724,0.855859994888306,elephant,elephant,0.10,0724_nse_s03_0.10_elephant_10_n02504458_8183.png
subject-03,1,725,0.591799974441528,boat,oven,0.90,0725_nse_s03_0.90_oven_10_n04111531_6211.png
subject-03,1,726,0.941617965698242,dog,dog,0.03,0726_nse_s03_0.03_dog_10_n02107312_3262.png
subject-03,1,727,0.575168132781982,cat,cat,0.00,0727_nse_s03_0.00_cat_10_n02123394_1602.png
subject-03,1,728,0.827054023742676,car,keyboard,0.90,0728_nse_s03_0.90_keyboard_10_n04505470_4917.png
subject-03,1,729,1.15677714347839,chair,chair,0.20,0729_nse_s03_0.20_chair_10_n02791124_3994.png
subject-03,1,730,0.93276309967041,oven,truck,0.90,0730_nse_s03_0.90_truck_10_n04467665_61522.png
subject-03,1,731,0.808533906936646,cat,elephant,0.03,0731_nse_s03_0.03_elephant_10_n02504013_10909.png
subject-03,1,732,NaN,na,bear,0.20,0732_nse_s03_0.20_bear_10_n02133161_1427.png
subject-03,1,733,0.788242101669312,cat,cat,0.20,0733_nse_s03_0.20_cat_10_n02123597_11564.png
subject-03,1,734,0.731789112091064,car,car,0.60,0734_nse_s03_0.60_car_10_n04285008_5078.png
subject-03,1,735,1.16375207901001,clock,chair,0.90,0735_nse_s03_0.90_chair_10_n03376595_4142.png
subject-03,1,736,0.635526895523071,oven,oven,0.10,0736_nse_s03_0.10_oven_10_n04111531_9831.png
subject-03,1,737,0.74532413482666,truck,keyboard,0.60,0737_nse_s03_0.60_keyboard_10_n04505470_2603.png
subject-03,1,738,0.679145097732544,cat,elephant,0.90,0738_nse_s03_0.90_elephant_10_n02504013_1125.png
subject-03,1,739,1.02710485458374,bear,bottle,0.60,0739_nse_s03_0.60_bottle_10_n04560804_30885.png
subject-03,1,740,0.826776027679443,boat,boat,0.10,0740_nse_s03_0.10_boat_10_n03662601_3471.png
subject-03,1,741,0.84268593788147,bottle,knife,0.00,0741_nse_s03_0.00_knife_10_n03041632_52929.png
subject-03,1,742,0.728584051132202,truck,truck,0.03,0742_nse_s03_0.03_truck_10_n03796401_6444.png
subject-03,1,743,0.980355024337769,car,cat,0.90,0743_nse_s03_0.90_cat_10_n02125311_5259.png
subject-03,1,744,0.850103139877319,bicycle,bicycle,0.05,0744_nse_s03_0.05_bicycle_10_n02835271_20177.png
subject-03,1,745,0.983950138092041,airplane,dog,0.90,0745_nse_s03_0.90_dog_10_n02105505_6715.png
subject-03,1,746,0.813663959503174,dog,bottle,0.60,0746_nse_s03_0.60_bottle_10_n02823428_3929.png
subject-03,1,747,0.953611135482788,bottle,bottle,0.05,0747_nse_s03_0.05_bottle_10_n03983396_3185.png
subject-03,1,748,0.629312038421631,oven,oven,0.10,0748_nse_s03_0.10_oven_10_n04111531_5218.png
subject-03,1,749,0.753070116043091,oven,oven,0.10,0749_nse_s03_0.10_oven_10_n04111531_7600.png
subject-03,1,750,0.65869402885437,bird,elephant,0.00,0750_nse_s03_0.00_elephant_10_n02504458_3250.png
subject-03,1,751,0.730649948120117,boat,boat,0.03,0751_nse_s03_0.03_boat_10_n02951358_18655.png
subject-03,1,752,0.742449045181274,clock,clock,0.00,0752_nse_s03_0.00_clock_10_n02708093_2588.png
subject-03,1,753,0.838528156280518,clock,clock,0.03,0753_nse_s03_0.03_clock_10_n04548280_4872.png
subject-03,1,754,0.880099058151245,bottle,bottle,0.05,0754_nse_s03_0.05_bottle_10_n04560804_14729.png
subject-03,1,755,0.702128171920776,boat,oven,0.35,0755_nse_s03_0.35_oven_10_n04111531_20493.png
subject-03,1,756,0.649701118469238,bottle,bottle,0.10,0756_nse_s03_0.10_bottle_10_n04591713_1978.png
subject-03,1,757,0.933760166168213,keyboard,elephant,0.90,0757_nse_s03_0.90_elephant_10_n02504458_12555.png
subject-03,1,758,0.873366832733154,airplane,cat,0.60,0758_nse_s03_0.60_cat_10_n02124075_12176.png
subject-03,1,759,0.745218992233276,bottle,bottle,0.03,0759_nse_s03_0.03_bottle_10_n02823428_901.png
subject-03,1,760,0.801044940948486,oven,oven,0.03,0760_nse_s03_0.03_oven_10_n04111531_1723.png
subject-03,1,761,1.07084894180298,bear,bear,0.03,0761_nse_s03_0.03_bear_10_n02134418_1031.png
subject-03,1,762,0.892564058303833,bird,bird,0.10,0762_nse_s03_0.10_bird_10_n02006656_5719.png
subject-03,1,763,0.940478086471558,knife,knife,0.03,0763_nse_s03_0.03_knife_10_n03041632_18141.png
subject-03,1,764,0.802273035049438,dog,dog,0.00,0764_nse_s03_0.00_dog_10_n02107574_835.png
subject-03,1,765,0.796466112136841,car,car,0.35,0765_nse_s03_0.35_car_10_n02814533_16978.png
subject-03,1,766,0.8939208984375,bear,bear,0.35,0766_nse_s03_0.35_bear_10_n02134418_2432.png
subject-03,1,767,0.787594079971313,bottle,truck,0.05,0767_nse_s03_0.05_truck_10_n03417042_94.png
subject-03,1,768,0.717606067657471,bicycle,cat,0.60,0768_nse_s03_0.60_cat_10_n02123159_7949.png
subject-03,1,769,0.829325914382935,boat,keyboard,0.35,0769_nse_s03_0.35_keyboard_10_n03085013_24578.png
subject-03,1,770,0.809090137481689,bottle,cat,0.05,0770_nse_s03_0.05_cat_10_n02123597_13411.png
subject-03,1,771,0.804855823516846,keyboard,keyboard,0.60,0771_nse_s03_0.60_keyboard_10_n04505470_3309.png
subject-03,1,772,0.720682144165039,truck,truck,0.05,0772_nse_s03_0.05_truck_10_n03417042_10150.png
subject-03,1,773,0.832659959793091,oven,knife,0.00,0773_nse_s03_0.00_knife_10_n03041632_34769.png
subject-03,1,774,1.03856611251831,elephant,elephant,0.10,0774_nse_s03_0.10_elephant_10_n02504458_6888.png
subject-03,1,775,0.782150030136108,keyboard,keyboard,0.20,0775_nse_s03_0.20_keyboard_10_n04505470_4679.png
subject-03,1,776,0.900063991546631,knife,bird,0.60,0776_nse_s03_0.60_bird_10_n02011460_2611.png
subject-03,1,777,1.09789800643921,clock,clock,0.10,0777_nse_s03_0.10_clock_10_n04548280_4738.png
subject-03,1,778,0.80968713760376,boat,airplane,0.35,0778_nse_s03_0.35_airplane_10_n02690373_5032.png
subject-03,1,779,0.77135705947876,oven,oven,0.60,0779_nse_s03_0.60_oven_10_n04111531_13391.png
subject-03,1,780,0.761243104934692,chair,chair,0.20,0780_nse_s03_0.20_chair_10_n03376595_9900.png
subject-03,1,781,0.832926988601685,boat,airplane,0.60,0781_nse_s03_0.60_airplane_10_n02690373_3377.png
subject-03,1,782,0.882797002792358,bear,bear,0.10,0782_nse_s03_0.10_bear_10_n02134084_9127.png
subject-03,1,783,0.908639907836914,cat,cat,0.00,0783_nse_s03_0.00_cat_10_n02123159_469.png
subject-03,1,784,0.78082799911499,bird,knife,0.03,0784_nse_s03_0.03_knife_10_n03041632_29580.png
subject-03,1,785,0.924232006072998,airplane,clock,0.90,0785_nse_s03_0.90_clock_10_n02708093_6967.png
subject-03,1,786,0.78600001335144,dog,dog,0.10,0786_nse_s03_0.10_dog_10_n02087394_28673.png
subject-03,1,787,1.19416809082031,truck,car,0.90,0787_nse_s03_0.90_car_10_n04285008_550.png
subject-03,1,788,0.781795978546143,keyboard,keyboard,0.20,0788_nse_s03_0.20_keyboard_10_n04505470_7946.png
subject-03,1,789,0.933604001998901,bird,bear,0.05,0789_nse_s03_0.05_bear_10_n02133161_547.png
subject-03,1,790,0.779325008392334,keyboard,keyboard,0.10,0790_nse_s03_0.10_keyboard_10_n04505470_4507.png
subject-03,1,791,0.685126066207886,bird,bird,0.03,0791_nse_s03_0.03_bird_10_n01860187_24935.png
subject-03,1,792,0.623054981231689,airplane,chair,0.60,0792_nse_s03_0.60_chair_10_n02791124_5089.png
subject-03,1,793,0.820798873901367,cat,cat,0.10,0793_nse_s03_0.10_cat_10_n02123394_3611.png
subject-03,1,794,1.12657499313354,car,bicycle,0.35,0794_nse_s03_0.35_bicycle_10_n02835271_8798.png
subject-03,1,795,0.904421091079712,cat,dog,0.35,0795_nse_s03_0.35_dog_10_n02107312_5759.png
subject-03,1,796,0.658309936523438,bird,bird,0.03,0796_nse_s03_0.03_bird_10_n01843065_4999.png
subject-03,1,797,0.722089052200317,dog,cat,0.35,0797_nse_s03_0.35_cat_10_n02123159_3083.png
subject-03,1,798,0.675961971282959,keyboard,keyboard,0.05,0798_nse_s03_0.05_keyboard_10_n03085013_24577.png
subject-03,1,799,0.827632904052734,knife,knife,0.10,0799_nse_s03_0.10_knife_10_n03041632_3159.png
subject-03,1,800,0.843359231948853,truck,truck,0.20,0800_nse_s03_0.20_truck_10_n03796401_21490.png
subject-03,1,801,0.932645082473755,car,car,0.10,0801_nse_s03_0.10_car_10_n03100240_4071.png
subject-03,1,802,1.00642609596252,boat,boat,0.05,0802_nse_s03_0.05_boat_10_n04273569_15138.png
subject-03,1,803,0.604159116744995,boat,boat,0.03,0803_nse_s03_0.03_boat_10_n02951358_512.png
subject-03,1,804,0.732065916061401,car,car,0.10,0804_nse_s03_0.10_car_10_n04285008_810.png
subject-03,1,805,0.679712057113647,keyboard,keyboard,0.35,0805_nse_s03_0.35_keyboard_10_n03085013_24467.png
subject-03,1,806,0.729777097702026,oven,oven,0.05,0806_nse_s03_0.05_oven_10_n04111531_274.png
subject-03,1,807,0.795252799987793,clock,bicycle,0.90,0807_nse_s03_0.90_bicycle_10_n03792782_37794.png
subject-03,1,808,0.767287969589233,car,car,0.35,0808_nse_s03_0.35_car_10_n02814533_81455.png
subject-03,1,809,1.02502512931824,truck,car,0.60,0809_nse_s03_0.60_car_10_n02814533_41478.png
subject-03,1,810,1.19094109535217,dog,oven,0.60,0810_nse_s03_0.60_oven_10_n04111531_22386.png
subject-03,1,811,0.560688972473145,oven,chair,0.90,0811_nse_s03_0.90_chair_10_n02791124_5411.png
subject-03,1,812,0.736515998840332,dog,cat,0.35,0812_nse_s03_0.35_cat_10_n02123597_7615.png
subject-03,1,813,0.770516157150269,bird,bear,0.10,0813_nse_s03_0.10_bear_10_n02134418_1749.png
subject-03,1,814,1.00826120376587,cat,keyboard,0.00,0814_nse_s03_0.00_keyboard_10_n03085013_23289.png
subject-03,1,815,0.75192403793335,airplane,car,0.90,0815_nse_s03_0.90_car_10_n03100240_1194.png
subject-03,1,816,0.721748113632202,oven,oven,0.35,0816_nse_s03_0.35_oven_10_n04111531_1830.png
subject-03,1,817,0.94356894493103,cat,bear,0.60,0817_nse_s03_0.60_bear_10_n02133161_5637.png
subject-03,1,818,0.623457908630371,bird,bird,0.35,0818_nse_s03_0.35_bird_10_n01828970_11221.png
subject-03,1,819,0.791208982467651,airplane,clock,0.10,0819_nse_s03_0.10_clock_10_n03196217_958.png
subject-03,1,820,0.643100023269653,car,car,0.03,0820_nse_s03_0.03_car_10_n04285008_6849.png
subject-03,1,821,1.1068959236145,bicycle,keyboard,0.90,0821_nse_s03_0.90_keyboard_10_n03085013_20330.png
subject-03,1,822,0.850713014602661,truck,truck,0.20,0822_nse_s03_0.20_truck_10_n03417042_17916.png
subject-03,1,823,1.31435298919678,truck,car,0.05,0823_nse_s03_0.05_car_10_n03100240_9305.png
subject-03,1,824,0.77436089515686,dog,bear,0.20,0824_nse_s03_0.20_bear_10_n02132136_17615.png
subject-03,1,825,0.644032001495361,bear,bear,0.03,0825_nse_s03_0.03_bear_10_n02132136_6459.png
subject-03,1,826,1.02999186515808,elephant,elephant,0.00,0826_nse_s03_0.00_elephant_10_n02504013_1647.png
subject-03,1,827,1.17202186584473,bottle,bottle,0.00,0827_nse_s03_0.00_bottle_10_n02823428_4073.png
subject-03,1,828,0.79747200012207,cat,oven,0.03,0828_nse_s03_0.03_oven_10_n04111531_164.png
subject-03,1,829,0.831377029418945,oven,cat,0.20,0829_nse_s03_0.20_cat_10_n02123159_4876.png
subject-03,1,830,0.607176065444946,bird,bird,0.05,0830_nse_s03_0.05_bird_10_n02017213_7721.png
subject-03,1,831,0.890902996063232,cat,cat,0.03,0831_nse_s03_0.03_cat_10_n02123159_8257.png
subject-03,1,832,0.70679497718811,bird,bird,0.00,0832_nse_s03_0.00_bird_10_n01560419_2432.png
subject-03,1,833,0.894934177398682,car,oven,0.60,0833_nse_s03_0.60_oven_10_n04111531_326.png
subject-03,1,834,0.848352909088135,elephant,elephant,0.03,0834_nse_s03_0.03_elephant_10_n02504458_7822.png
subject-03,1,835,1.34608507156372,chair,bird,0.90,0835_nse_s03_0.90_bird_10_n01828970_11546.png
subject-03,1,836,1.1520562171936,knife,knife,0.03,0836_nse_s03_0.03_knife_10_n03041632_94202.png
subject-03,1,837,1.07600903511047,knife,knife,0.20,0837_nse_s03_0.20_knife_10_n03041632_44269.png
subject-03,1,838,0.739732980728149,car,car,0.10,0838_nse_s03_0.10_car_10_n02814533_90798.png
subject-03,1,839,0.77143406867981,dog,dog,0.05,0839_nse_s03_0.05_dog_10_n02091635_8296.png
subject-03,1,840,0.869179964065552,truck,airplane,0.60,0840_nse_s03_0.60_airplane_10_n02690373_5197.png
subject-03,1,841,1.50007581710815,airplane,airplane,0.35,0841_nse_s03_0.35_airplane_10_n02690373_8524.png
subject-03,1,842,0.830754995346069,boat,boat,0.05,0842_nse_s03_0.05_boat_10_n04612504_15898.png
subject-03,1,843,0.596729040145874,boat,chair,0.90,0843_nse_s03_0.90_chair_10_n02791124_5400.png
subject-03,1,844,0.778432846069336,oven,oven,0.00,0844_nse_s03_0.00_oven_10_n04111531_11026.png
subject-03,1,845,0.734520196914673,airplane,airplane,0.20,0845_nse_s03_0.20_airplane_10_n02690373_4136.png
subject-03,1,846,0.844138145446777,bird,bear,0.00,0846_nse_s03_0.00_bear_10_n02134084_12389.png
subject-03,1,847,0.996051788330078,dog,dog,0.35,0847_nse_s03_0.35_dog_10_n02105251_6564.png
subject-03,1,848,0.773774147033691,cat,knife,0.90,0848_nse_s03_0.90_knife_10_n03041632_41493.png
subject-03,1,849,1.05547118186951,boat,boat,0.03,0849_nse_s03_0.03_boat_10_n03344393_7109.png
subject-03,1,850,1.02730989456177,car,truck,0.90,0850_nse_s03_0.90_truck_10_n04467665_37811.png
subject-03,1,851,1.03706312179565,truck,elephant,0.90,0851_nse_s03_0.90_elephant_10_n02504013_1255.png
subject-03,1,852,1.22089791297913,knife,airplane,0.90,0852_nse_s03_0.90_airplane_10_n02690373_9012.png
subject-03,1,853,1.00314998626709,car,car,0.05,0853_nse_s03_0.05_car_10_n03100240_9000.png
subject-03,1,854,0.78640604019165,boat,boat,0.05,0854_nse_s03_0.05_boat_10_n03662601_19809.png
subject-03,1,855,0.834481000900269,boat,boat,0.00,0855_nse_s03_0.00_boat_10_n04612504_30617.png
subject-03,1,856,1.01032614707947,keyboard,chair,0.35,0856_nse_s03_0.35_chair_10_n04099969_8801.png
subject-03,1,857,0.840070009231567,chair,oven,0.90,0857_nse_s03_0.90_oven_10_n04111531_6489.png
subject-03,1,858,1.03804516792297,dog,bottle,0.35,0858_nse_s03_0.35_bottle_10_n04557648_3529.png
subject-03,1,859,0.67399001121521,airplane,airplane,0.00,0859_nse_s03_0.00_airplane_10_n02690373_1381.png
subject-03,1,860,0.803858995437622,car,car,0.10,0860_nse_s03_0.10_car_10_n03100240_4594.png
subject-03,1,861,0.857213020324707,bottle,bottle,0.10,0861_nse_s03_0.10_bottle_10_n03983396_11859.png
subject-03,1,862,0.843441963195801,oven,oven,0.03,0862_nse_s03_0.03_oven_10_n04111531_15718.png
subject-03,1,863,0.846817016601562,truck,truck,0.10,0863_nse_s03_0.10_truck_10_n03417042_7335.png
subject-03,1,864,1.03674006462097,dog,bottle,0.90,0864_nse_s03_0.90_bottle_10_n04560804_10541.png
subject-03,1,865,0.692625045776367,clock,car,0.90,0865_nse_s03_0.90_car_10_n04285008_17052.png
subject-03,1,866,0.930316925048828,bear,bear,0.10,0866_nse_s03_0.10_bear_10_n02132136_5365.png
subject-03,1,867,0.652127981185913,bird,bird,0.10,0867_nse_s03_0.10_bird_10_n02002556_1398.png
subject-03,1,868,0.677934885025024,oven,keyboard,0.20,0868_nse_s03_0.20_keyboard_10_n04505470_9570.png
subject-03,1,869,1.35186886787415,bottle,chair,0.05,0869_nse_s03_0.05_chair_10_n04429376_30921.png
subject-03,1,870,1.25976490974426,dog,dog,0.00,0870_nse_s03_0.00_dog_10_n02087394_2723.png
subject-03,1,871,1.03724503517151,bear,cat,0.35,0871_nse_s03_0.35_cat_10_n02123159_6106.png
subject-03,1,872,0.759223937988281,airplane,bear,0.90,0872_nse_s03_0.90_bear_10_n02133161_1169.png
subject-03,1,873,0.729036092758179,oven,bottle,0.35,0873_nse_s03_0.35_bottle_10_n03983396_10174.png
subject-03,1,874,0.926836013793945,truck,truck,0.10,0874_nse_s03_0.10_truck_10_n03417042_2170.png
subject-03,1,875,1.03877806663513,bear,bear,0.00,0875_nse_s03_0.00_bear_10_n02133161_396.png
subject-03,1,876,0.650608062744141,oven,boat,0.35,0876_nse_s03_0.35_boat_10_n04273569_4418.png
subject-03,1,877,0.786438941955566,knife,knife,0.03,0877_nse_s03_0.03_knife_10_n03041632_12651.png
subject-03,1,878,1.02816605567932,dog,cat,0.90,0878_nse_s03_0.90_cat_10_n02123394_2490.png
subject-03,1,879,0.70190691947937,chair,knife,0.00,0879_nse_s03_0.00_knife_10_n03041632_19614.png
subject-03,1,880,0.861597061157227,airplane,airplane,0.10,0880_nse_s03_0.10_airplane_10_n02690373_8547.png
subject-03,1,881,0.675292015075684,boat,boat,0.03,0881_nse_s03_0.03_boat_10_n02951358_4397.png
subject-03,1,882,0.781038999557495,keyboard,keyboard,0.20,0882_nse_s03_0.20_keyboard_10_n03085013_7605.png
subject-03,1,883,0.655034065246582,bicycle,bicycle,0.03,0883_nse_s03_0.03_bicycle_10_n03792782_3299.png
subject-03,1,884,0.882806777954102,bicycle,bicycle,0.20,0884_nse_s03_0.20_bicycle_10_n03792782_31101.png
subject-03,1,885,0.884597063064575,cat,clock,0.60,0885_nse_s03_0.60_clock_10_n02708093_1418.png
subject-03,1,886,0.668454885482788,bicycle,bicycle,0.05,0886_nse_s03_0.05_bicycle_10_n02835271_5963.png
subject-03,1,887,1.03068995475769,dog,oven,0.05,0887_nse_s03_0.05_oven_10_n04111531_8852.png
subject-03,1,888,0.720304012298584,oven,chair,0.60,0888_nse_s03_0.60_chair_10_n04099969_3052.png
subject-03,1,889,0.831939935684204,airplane,airplane,0.20,0889_nse_s03_0.20_airplane_10_n02690373_9423.png
subject-03,1,890,0.944042205810547,car,oven,0.35,0890_nse_s03_0.35_oven_10_n04111531_10583.png
subject-03,1,891,0.947376012802124,elephant,elephant,0.00,0891_nse_s03_0.00_elephant_10_n02504458_6472.png
subject-03,1,892,0.98921799659729,keyboard,keyboard,0.03,0892_nse_s03_0.03_keyboard_10_n04505470_4554.png
subject-03,1,893,1.17141699790955,bottle,keyboard,0.60,0893_nse_s03_0.60_keyboard_10_n03085013_24088.png
subject-03,1,894,1.32892203330994,chair,cat,0.90,0894_nse_s03_0.90_cat_10_n02124075_9291.png
subject-03,1,895,0.682735204696655,truck,truck,0.03,0895_nse_s03_0.03_truck_10_n03796401_9207.png
subject-03,1,896,0.974670171737671,car,keyboard,0.60,0896_nse_s03_0.60_keyboard_10_n03085013_23790.png
subject-03,1,897,1.04821801185608,elephant,elephant,0.10,0897_nse_s03_0.10_elephant_10_n02504013_156.png
subject-03,1,898,0.792035102844238,airplane,bird,0.35,0898_nse_s03_0.35_bird_10_n02018795_248.png
subject-03,1,899,0.724121809005737,car,car,0.03,0899_nse_s03_0.03_car_10_n02814533_31532.png
subject-03,1,900,1.04591202735901,dog,car,0.60,0900_nse_s03_0.60_car_10_n04285008_6951.png
subject-03,1,901,0.845864057540894,cat,cat,0.35,0901_nse_s03_0.35_cat_10_n02123159_5950.png
subject-03,1,902,0.745484113693237,boat,boat,0.10,0902_nse_s03_0.10_boat_10_n04273569_1012.png
subject-03,1,903,0.74913215637207,chair,chair,0.05,0903_nse_s03_0.05_chair_10_n03376595_2351.png
subject-03,1,904,0.744893074035645,truck,truck,0.05,0904_nse_s03_0.05_truck_10_n04467665_3612.png
subject-03,1,905,0.690721035003662,clock,clock,0.03,0905_nse_s03_0.03_clock_10_n02708093_5944.png
subject-03,1,906,0.74865984916687,airplane,airplane,0.10,0906_nse_s03_0.10_airplane_10_n02690373_3753.png
subject-03,1,907,1.28035807609558,car,chair,0.60,0907_nse_s03_0.60_chair_10_n03376595_8995.png
subject-03,1,908,0.72039794921875,oven,elephant,0.90,0908_nse_s03_0.90_elephant_10_n02504013_22633.png
subject-03,1,909,0.59000301361084,cat,cat,0.20,0909_nse_s03_0.20_cat_10_n02123159_1413.png
subject-03,1,910,0.990256071090698,dog,dog,0.60,0910_nse_s03_0.60_dog_10_n02086646_6407.png
subject-03,1,911,1.11778211593628,dog,elephant,0.90,0911_nse_s03_0.90_elephant_10_n02504013_405.png
subject-03,1,912,0.861556053161621,truck,bottle,0.20,0912_nse_s03_0.20_bottle_10_n02823428_13937.png
subject-03,1,913,1.09975695610046,cat,dog,0.10,0913_nse_s03_0.10_dog_10_n02101006_16132.png
subject-03,1,914,1.0472559928894,airplane,clock,0.20,0914_nse_s03_0.20_clock_10_n02708093_6795.png
subject-03,1,915,1.37701892852783,elephant,bottle,0.60,0915_nse_s03_0.60_bottle_10_n04560804_4624.png
subject-03,1,916,0.738617897033691,bottle,bottle,0.10,0916_nse_s03_0.10_bottle_10_n03983396_4780.png
subject-03,1,917,0.700448036193848,dog,dog,0.60,0917_nse_s03_0.60_dog_10_n02107574_3685.png
subject-03,1,918,0.708379983901978,bear,bear,0.90,0918_nse_s03_0.90_bear_10_n02134084_12801.png
subject-03,1,919,1.13611888885498,dog,bird,0.60,0919_nse_s03_0.60_bird_10_n01828970_454.png
subject-03,1,920,0.770007848739624,bear,bear,0.60,0920_nse_s03_0.60_bear_10_n02133161_4882.png
subject-03,1,921,0.843699932098389,dog,dog,0.05,0921_nse_s03_0.05_dog_10_n02112350_5035.png
subject-03,1,922,0.635617971420288,bicycle,bicycle,0.10,0922_nse_s03_0.10_bicycle_10_n03792782_11921.png
subject-03,1,923,0.895448923110962,bicycle,truck,0.90,0923_nse_s03_0.90_truck_10_n04467665_48953.png
subject-03,1,924,0.857173919677734,keyboard,keyboard,0.05,0924_nse_s03_0.05_keyboard_10_n04505470_4592.png
subject-03,1,925,1.04916787147522,bird,bear,0.60,0925_nse_s03_0.60_bear_10_n02134084_8095.png
subject-03,1,926,1.05712604522705,knife,oven,0.20,0926_nse_s03_0.20_oven_10_n04111531_4467.png
subject-03,1,927,0.856841087341309,bottle,bottle,0.10,0927_nse_s03_0.10_bottle_10_n03983396_9662.png
subject-03,1,928,0.624622106552124,clock,clock,0.05,0928_nse_s03_0.05_clock_10_n04548280_2045.png
subject-03,1,929,1.01850485801697,bottle,bottle,0.10,0929_nse_s03_0.10_bottle_10_n03983396_10251.png
subject-03,1,930,0.910493135452271,knife,knife,0.35,0930_nse_s03_0.35_knife_10_n03041632_2153.png
subject-03,1,931,0.858120918273926,bear,bear,0.35,0931_nse_s03_0.35_bear_10_n02133161_1500.png
subject-03,1,932,1.15383219718933,truck,bird,0.60,0932_nse_s03_0.60_bird_10_n01817953_12877.png
subject-03,1,933,0.855551958084106,bicycle,oven,0.60,0933_nse_s03_0.60_oven_10_n04111531_10216.png
subject-03,1,934,1.217777967453,keyboard,keyboard,0.10,0934_nse_s03_0.10_keyboard_10_n03085013_25476.png
subject-03,1,935,0.85109806060791,bird,bird,0.05,0935_nse_s03_0.05_bird_10_n01534433_4594.png
subject-03,1,936,0.807373046875,oven,bottle,0.20,0936_nse_s03_0.20_bottle_10_n04560804_9981.png
subject-03,1,937,0.910789966583252,knife,airplane,0.60,0937_nse_s03_0.60_airplane_10_n02690373_8233.png
subject-03,1,938,0.904562950134277,cat,bottle,0.60,0938_nse_s03_0.60_bottle_10_n04591713_765.png
subject-03,1,939,0.992712020874023,dog,bottle,0.60,0939_nse_s03_0.60_bottle_10_n02823428_9063.png
subject-03,1,940,0.714221000671387,oven,truck,0.90,0940_nse_s03_0.90_truck_10_n03796401_1446.png
subject-03,1,941,0.924057006835938,bear,keyboard,0.90,0941_nse_s03_0.90_keyboard_10_n04505470_1479.png
subject-03,1,942,0.775832176208496,knife,knife,0.10,0942_nse_s03_0.10_knife_10_n03041632_14774.png
subject-03,1,943,0.785809993743896,clock,clock,0.03,0943_nse_s03_0.03_clock_10_n04548280_6068.png
subject-03,1,944,0.907727956771851,truck,truck,0.20,0944_nse_s03_0.20_truck_10_n03417042_4994.png
subject-03,1,945,0.867444038391113,car,car,0.10,0945_nse_s03_0.10_car_10_n03100240_1438.png
subject-03,1,946,0.721083164215088,bottle,knife,0.05,0946_nse_s03_0.05_knife_10_n03041632_86118.png
subject-03,1,947,0.742836952209473,bottle,bottle,0.03,0947_nse_s03_0.03_bottle_10_n04560804_11426.png
subject-03,1,948,0.860824823379517,elephant,elephant,0.05,0948_nse_s03_0.05_elephant_10_n02504013_9144.png
subject-03,1,949,0.746587038040161,bird,bird,0.00,0949_nse_s03_0.00_bird_10_n02033041_2320.png
subject-03,1,950,1.23477792739868,bear,dog,0.05,0950_nse_s03_0.05_dog_10_n02093647_286.png
subject-03,1,951,1.2583429813385,keyboard,knife,0.20,0951_nse_s03_0.20_knife_10_n03041632_36789.png
subject-03,1,952,0.674233913421631,bear,bear,0.03,0952_nse_s03_0.03_bear_10_n02132136_50.png
subject-03,1,953,0.926334142684937,elephant,elephant,0.05,0953_nse_s03_0.05_elephant_10_n02504013_8391.png
subject-03,1,954,1.15166187286377,elephant,bird,0.35,0954_nse_s03_0.35_bird_10_n01824575_2959.png
subject-03,1,955,0.749429941177368,bear,cat,0.10,0955_nse_s03_0.10_cat_10_n02123394_1789.png
subject-03,1,956,0.727218151092529,bicycle,bicycle,0.20,0956_nse_s03_0.20_bicycle_10_n02835271_1075.png
subject-03,1,957,0.883554935455322,bicycle,bicycle,0.00,0957_nse_s03_0.00_bicycle_10_n02835271_8617.png
subject-03,1,958,0.933111906051636,dog,dog,0.35,0958_nse_s03_0.35_dog_10_n02105855_9326.png
subject-03,1,959,0.857091903686523,elephant,cat,0.35,0959_nse_s03_0.35_cat_10_n02123045_10834.png
subject-03,1,960,0.808880090713501,oven,elephant,0.60,0960_nse_s03_0.60_elephant_10_n02504458_6835.png
subject-03,1,961,0.738173007965088,bear,chair,0.90,0961_nse_s03_0.90_chair_10_n02791124_15383.png
subject-03,1,962,0.959902048110962,dog,chair,0.20,0962_nse_s03_0.20_chair_10_n02791124_15754.png
subject-03,1,963,0.69373607635498,truck,car,0.60,0963_nse_s03_0.60_car_10_n02814533_39597.png
subject-03,1,964,0.977732181549072,truck,elephant,0.60,0964_nse_s03_0.60_elephant_10_n02504013_5996.png
subject-03,1,965,0.697942972183228,bear,bear,0.03,0965_nse_s03_0.03_bear_10_n02134084_16632.png
subject-03,1,966,0.921425104141235,chair,chair,0.10,0966_nse_s03_0.10_chair_10_n04429376_23573.png
subject-03,1,967,0.927206993103027,car,car,0.35,0967_nse_s03_0.35_car_10_n03100240_11664.png
subject-03,1,968,0.828849077224731,airplane,airplane,0.03,0968_nse_s03_0.03_airplane_10_n02690373_3821.png
subject-03,1,969,1.11699986457825,clock,truck,0.35,0969_nse_s03_0.35_truck_10_n04467665_47602.png
subject-03,1,970,0.98653507232666,bear,airplane,0.35,0970_nse_s03_0.35_airplane_10_n02690373_10079.png
subject-03,1,971,0.754374980926514,keyboard,keyboard,0.03,0971_nse_s03_0.03_keyboard_10_n04505470_4983.png
subject-03,1,972,1.27216196060181,bicycle,bicycle,0.05,0972_nse_s03_0.05_bicycle_10_n02835271_10271.png
subject-03,1,973,1.07982182502747,clock,truck,0.60,0973_nse_s03_0.60_truck_10_n04467665_34932.png
subject-03,1,974,0.839964151382446,car,boat,0.90,0974_nse_s03_0.90_boat_10_n02951358_34261.png
subject-03,1,975,0.597609996795654,clock,clock,0.00,0975_nse_s03_0.00_clock_10_n04548280_4560.png
subject-03,1,976,0.679473161697388,clock,clock,0.20,0976_nse_s03_0.20_clock_10_n04548280_1109.png
subject-03,1,977,0.885146856307983,car,car,0.00,0977_nse_s03_0.00_car_10_n04285008_10905.png
subject-03,1,978,0.605424880981445,bird,bird,0.10,0978_nse_s03_0.10_bird_10_n02002556_5468.png
subject-03,1,979,1.07711505889893,keyboard,oven,0.03,0979_nse_s03_0.03_oven_10_n04111531_21911.png
subject-03,1,980,0.696914911270142,bear,bear,0.03,0980_nse_s03_0.03_bear_10_n02134418_1081.png
subject-03,1,981,0.77667498588562,car,bottle,0.90,0981_nse_s03_0.90_bottle_10_n03937543_4463.png
subject-03,1,982,0.718374967575073,bicycle,bicycle,0.10,0982_nse_s03_0.10_bicycle_10_n02835271_8324.png
subject-03,1,983,0.736167192459106,car,bicycle,0.35,0983_nse_s03_0.35_bicycle_10_n03792782_12504.png
subject-03,1,984,0.885822057723999,dog,cat,0.00,0984_nse_s03_0.00_cat_10_n02123159_5799.png
subject-03,1,985,1.12387704849243,knife,knife,0.05,0985_nse_s03_0.05_knife_10_n03041632_33225.png
subject-03,1,986,0.735819101333618,oven,knife,0.60,0986_nse_s03_0.60_knife_10_n03041632_2468.png
subject-03,1,987,0.723350048065186,car,car,0.05,0987_nse_s03_0.05_car_10_n03100240_9149.png
subject-03,1,988,0.943040132522583,bear,dog,0.90,0988_nse_s03_0.90_dog_10_n02110806_5609.png
subject-03,1,989,0.694897890090942,bird,bird,0.10,0989_nse_s03_0.10_bird_10_n02007558_7446.png
subject-03,1,990,0.586775064468384,cat,cat,0.05,0990_nse_s03_0.05_cat_10_n02123045_5381.png
subject-03,1,991,0.550585031509399,oven,clock,0.60,0991_nse_s03_0.60_clock_10_n03196217_3697.png
subject-03,1,992,0.622484922409058,cat,cat,0.20,0992_nse_s03_0.20_cat_10_n02124075_12622.png
subject-03,1,993,1.01246500015259,cat,bear,0.00,0993_nse_s03_0.00_bear_10_n02133161_16147.png
subject-03,1,994,0.726176023483276,car,car,0.10,0994_nse_s03_0.10_car_10_n04285008_7249.png
subject-03,1,995,1.18778395652771,oven,cat,0.03,0995_nse_s03_0.03_cat_10_n02124075_14021.png
subject-03,1,996,0.887878894805908,knife,cat,0.60,0996_nse_s03_0.60_cat_10_n02123597_5514.png
subject-03,1,997,0.811866998672485,oven,truck,0.60,0997_nse_s03_0.60_truck_10_n04467665_33099.png
subject-03,1,998,0.665264844894409,boat,boat,0.00,0998_nse_s03_0.00_boat_10_n03662601_8398.png
subject-03,1,999,0.627263069152832,cat,dog,0.20,0999_nse_s03_0.20_dog_10_n02113799_3680.png
subject-03,1,1000,0.722755908966064,dog,bicycle,0.90,1000_nse_s03_0.90_bicycle_10_n02835271_9116.png
subject-03,1,1001,0.936774015426636,airplane,airplane,0.03,1001_nse_s03_0.03_airplane_10_n02690373_10006.png
subject-03,1,1002,0.950371980667114,chair,chair,0.00,1002_nse_s03_0.00_chair_10_n03376595_9139.png
subject-03,1,1003,0.562756776809692,cat,cat,0.10,1003_nse_s03_0.10_cat_10_n02124075_5853.png
subject-03,1,1004,0.572204828262329,boat,cat,0.90,1004_nse_s03_0.90_cat_10_n02123159_277.png
subject-03,1,1005,0.606030941009521,oven,airplane,0.90,1005_nse_s03_0.90_airplane_10_n02690373_18234.png
subject-03,1,1006,0.693669080734253,boat,airplane,0.60,1006_nse_s03_0.60_airplane_10_n02690373_6665.png
subject-03,1,1007,0.719851970672607,truck,truck,0.00,1007_nse_s03_0.00_truck_10_n03417042_12588.png
subject-03,1,1008,0.925298929214478,bicycle,bird,0.10,1008_nse_s03_0.10_bird_10_n02051845_33968.png
subject-03,1,1009,1.09918308258057,keyboard,keyboard,0.10,1009_nse_s03_0.10_keyboard_10_n03085013_9146.png
subject-03,1,1010,1.12899804115295,bird,bird,0.00,1010_nse_s03_0.00_bird_10_n01817953_1968.png
subject-03,1,1011,0.729059934616089,bottle,bottle,0.60,1011_nse_s03_0.60_bottle_10_n04560804_9813.png
subject-03,1,1012,0.808716058731079,airplane,airplane,0.35,1012_nse_s03_0.35_airplane_10_n02690373_2185.png
subject-03,1,1013,0.752407073974609,boat,bicycle,0.60,1013_nse_s03_0.60_bicycle_10_n03792782_14984.png
subject-03,1,1014,0.996623992919922,dog,bird,0.35,1014_nse_s03_0.35_bird_10_n01532829_8055.png
subject-03,1,1015,0.888255834579468,car,car,0.03,1015_nse_s03_0.03_car_10_n03100240_2425.png
subject-03,1,1016,1.05619192123413,airplane,chair,0.35,1016_nse_s03_0.35_chair_10_n04429376_4341.png
subject-03,1,1017,0.825670003890991,bottle,bottle,0.05,1017_nse_s03_0.05_bottle_10_n04591713_6662.png
subject-03,1,1018,0.913573980331421,bird,bird,0.10,1018_nse_s03_0.10_bird_10_n02037110_3949.png
subject-03,1,1019,0.963580846786499,oven,clock,0.00,1019_nse_s03_0.00_clock_10_n04548280_1032.png
