subj,Session,trial,rt,object_response,category,condition,imagename
subject-04,1,1,0.867391109466553,truck,truck,0.20,0001_nse_s04_0.20_truck_10_n03796401_16046.png
subject-04,1,2,0.913341999053955,bicycle,elephant,0.90,0002_nse_s04_0.90_elephant_10_n02504013_1125.png
subject-04,1,3,0.727035045623779,elephant,elephant,0.03,0003_nse_s04_0.03_elephant_10_n02504013_8028.png
subject-04,1,4,0.735004901885986,clock,clock,0.10,0004_nse_s04_0.10_clock_10_n04548280_4738.png
subject-04,1,5,0.664581060409546,elephant,elephant,0.05,0005_nse_s04_0.05_elephant_10_n02504013_9144.png
subject-04,1,6,0.706192016601562,oven,knife,0.00,0006_nse_s04_0.00_knife_10_n03041632_34769.png
subject-04,1,7,0.822268009185791,clock,car,0.90,0007_nse_s04_0.90_car_10_n04285008_550.png
subject-04,1,8,0.643853902816772,cat,oven,0.35,0008_nse_s04_0.35_oven_10_n04111531_4148.png
subject-04,1,9,0.82805609703064,bear,knife,0.35,0009_nse_s04_0.35_knife_10_n03041632_8563.png
subject-04,1,10,0.905608177185059,boat,bird,0.05,0010_nse_s04_0.05_bird_10_n02025239_22440.png
subject-04,1,11,0.839483976364136,bear,knife,0.35,0011_nse_s04_0.35_knife_10_n03041632_18959.png
subject-04,1,12,0.657286882400513,cat,cat,0.03,0012_nse_s04_0.03_cat_10_n02125311_1736.png
subject-04,1,13,0.832973957061768,bear,bear,0.00,0013_nse_s04_0.00_bear_10_n02133161_11816.png
subject-04,1,14,0.842740058898926,bicycle,oven,0.05,0014_nse_s04_0.05_oven_10_n04111531_8852.png
subject-04,1,15,0.886539220809937,boat,keyboard,0.10,0015_nse_s04_0.10_keyboard_10_n03085013_9146.png
subject-04,1,16,0.806379079818726,keyboard,keyboard,0.00,0016_nse_s04_0.00_keyboard_10_n04505470_4473.png
subject-04,1,17,1.20038294792175,keyboard,elephant,0.90,0017_nse_s04_0.90_elephant_10_n02504013_405.png
subject-04,1,18,0.642133951187134,cat,cat,0.10,0018_nse_s04_0.10_cat_10_n02124075_5853.png
subject-04,1,19,0.695929050445557,car,car,0.10,0019_nse_s04_0.10_car_10_n03100240_5999.png
subject-04,1,20,0.855633020401001,boat,bear,0.35,0020_nse_s04_0.35_bear_10_n02133161_19418.png
subject-04,1,21,1.02556109428406,oven,chair,0.35,0021_nse_s04_0.35_chair_10_n04429376_4341.png
subject-04,1,22,0.779206991195679,bird,bird,0.10,0022_nse_s04_0.10_bird_10_n02002556_1398.png
subject-04,1,23,0.869179964065552,cat,bear,0.60,0023_nse_s04_0.60_bear_10_n02134418_3767.png
subject-04,1,24,0.89886212348938,bear,cat,0.60,0024_nse_s04_0.60_cat_10_n02124075_9939.png
subject-04,1,25,0.77669095993042,bear,bear,0.03,0025_nse_s04_0.03_bear_10_n02132136_50.png
subject-04,1,26,0.622631072998047,bicycle,bicycle,0.03,0026_nse_s04_0.03_bicycle_10_n02835271_25268.png
subject-04,1,27,0.808368921279907,elephant,elephant,0.10,0027_nse_s04_0.10_elephant_10_n02504458_6888.png
subject-04,1,28,1.20400381088257,bird,bird,0.10,0028_nse_s04_0.10_bird_10_n02051845_6333.png
subject-04,1,29,0.970031023025513,car,car,0.10,0029_nse_s04_0.10_car_10_n04285008_7776.png
subject-04,1,30,1.05191397666931,cat,elephant,0.60,0030_nse_s04_0.60_elephant_10_n02504013_1132.png
subject-04,1,31,0.917910099029541,truck,truck,0.35,0031_nse_s04_0.35_truck_10_n04467665_44715.png
subject-04,1,32,1.10156202316284,boat,chair,0.60,0032_nse_s04_0.60_chair_10_n04099969_3052.png
subject-04,1,33,1.35730004310608,bottle,bottle,0.10,0033_nse_s04_0.10_bottle_10_n04579145_815.png
subject-04,1,34,0.853105068206787,oven,chair,0.10,0034_nse_s04_0.10_chair_10_n04099969_3393.png
subject-04,1,35,0.966945171356201,bear,bicycle,0.60,0035_nse_s04_0.60_bicycle_10_n02835271_14123.png
subject-04,1,36,1.06853008270264,oven,chair,0.20,0036_nse_s04_0.20_chair_10_n04099969_14208.png
subject-04,1,37,1.22850894927979,bird,airplane,0.35,0037_nse_s04_0.35_airplane_10_n02690373_3212.png
subject-04,1,38,0.730373859405518,car,car,0.20,0038_nse_s04_0.20_car_10_n02814533_7028.png
subject-04,1,39,1.25857591629028,bottle,knife,0.05,0039_nse_s04_0.05_knife_10_n03041632_33225.png
subject-04,1,40,0.907920122146606,car,car,0.35,0040_nse_s04_0.35_car_10_n02814533_16978.png
subject-04,1,41,0.669667959213257,elephant,elephant,0.20,0041_nse_s04_0.20_elephant_10_n02504458_309.png
subject-04,1,42,0.753527164459229,bicycle,bicycle,0.05,0042_nse_s04_0.05_bicycle_10_n03792782_17198.png
subject-04,1,43,0.821542978286743,bottle,bottle,0.10,0043_nse_s04_0.10_bottle_10_n02823428_11579.png
subject-04,1,44,0.833092927932739,boat,boat,0.35,0044_nse_s04_0.35_boat_10_n02951358_33559.png
subject-04,1,45,0.729232788085938,boat,boat,0.20,0045_nse_s04_0.20_boat_10_n02951358_28889.png
subject-04,1,46,0.980812072753906,clock,clock,0.60,0046_nse_s04_0.60_clock_10_n04548280_1438.png
subject-04,1,47,0.706579923629761,boat,boat,0.00,0047_nse_s04_0.00_boat_10_n04273569_1141.png
subject-04,1,48,1.29051184654236,boat,car,0.35,0048_nse_s04_0.35_car_10_n03100240_16653.png
subject-04,1,49,0.912437200546265,oven,oven,0.60,0049_nse_s04_0.60_oven_10_n04111531_9915.png
subject-04,1,50,1.33796000480652,bird,cat,0.35,0050_nse_s04_0.35_cat_10_n02123159_5950.png
subject-04,1,51,0.757925033569336,bear,bear,0.35,0051_nse_s04_0.35_bear_10_n02133161_1500.png
subject-04,1,52,0.97763991355896,knife,knife,0.05,0052_nse_s04_0.05_knife_10_n03041632_33255.png
subject-04,1,53,1.14558601379395,knife,keyboard,0.35,0053_nse_s04_0.35_keyboard_10_n03085013_20784.png
subject-04,1,54,1.1374568939209,bicycle,truck,0.60,0054_nse_s04_0.60_truck_10_n04467665_33099.png
subject-04,1,55,1.18727922439575,knife,bird,0.60,0055_nse_s04_0.60_bird_10_n01828970_2727.png
subject-04,1,56,0.9028160572052,bird,bird,0.10,0056_nse_s04_0.10_bird_10_n02007558_7446.png
subject-04,1,57,0.852636098861694,bear,bear,0.05,0057_nse_s04_0.05_bear_10_n02134084_15016.png
subject-04,1,58,0.622773885726929,cat,cat,0.05,0058_nse_s04_0.05_cat_10_n02125311_6393.png
subject-04,1,59,0.806480169296265,clock,clock,0.10,0059_nse_s04_0.10_clock_10_n03196217_958.png
subject-04,1,60,1.18444180488586,knife,car,0.00,0060_nse_s04_0.00_car_10_n04285008_8700.png
subject-04,1,61,1.24201798439026,clock,bird,0.05,0061_nse_s04_0.05_bird_10_n01514859_10633.png
subject-04,1,62,1.26376700401306,cat,boat,0.90,0062_nse_s04_0.90_boat_10_n04612504_4250.png
subject-04,1,63,1.50000596046448,bear,cat,0.20,0063_nse_s04_0.20_cat_10_n02123394_289.png
subject-04,1,64,1.48338484764099,knife,elephant,0.35,0064_nse_s04_0.35_elephant_10_n02504458_1041.png
subject-04,1,65,1.28141593933105,clock,cat,0.60,0065_nse_s04_0.60_cat_10_n02123159_7949.png
subject-04,1,66,0.793085098266602,car,bear,0.05,0066_nse_s04_0.05_bear_10_n02134084_22029.png
subject-04,1,67,NaN,na,keyboard,0.90,0067_nse_s04_0.90_keyboard_10_n03085013_20152.png
subject-04,1,68,0.948767900466919,airplane,elephant,0.60,0068_nse_s04_0.60_elephant_10_n02504458_5941.png
subject-04,1,69,0.764551877975464,clock,chair,0.35,0069_nse_s04_0.35_chair_10_n04429376_9589.png
subject-04,1,70,0.600631952285767,bicycle,bicycle,0.10,0070_nse_s04_0.10_bicycle_10_n03792782_10146.png
subject-04,1,71,0.784557104110718,bear,bear,0.20,0071_nse_s04_0.20_bear_10_n02133161_7184.png
subject-04,1,72,0.773849964141846,airplane,bird,0.90,0072_nse_s04_0.90_bird_10_n02028035_889.png
subject-04,1,73,1.06773805618286,bear,truck,0.90,0073_nse_s04_0.90_truck_10_n03417042_5004.png
subject-04,1,74,0.83765697479248,airplane,elephant,0.90,0074_nse_s04_0.90_elephant_10_n02504013_1255.png
subject-04,1,75,0.551391124725342,cat,cat,0.03,0075_nse_s04_0.03_cat_10_n02123045_2719.png
subject-04,1,76,0.775311946868896,airplane,keyboard,0.90,0076_nse_s04_0.90_keyboard_10_n03085013_18769.png
subject-04,1,77,0.684727907180786,cat,bottle,0.60,0077_nse_s04_0.60_bottle_10_n04557648_4356.png
subject-04,1,78,0.744703054428101,airplane,knife,0.90,0078_nse_s04_0.90_knife_10_n03041632_20595.png
subject-04,1,79,0.598933935165405,cat,cat,0.00,0079_nse_s04_0.00_cat_10_n02123394_1602.png
subject-04,1,80,1.14043092727661,dog,bicycle,0.60,0080_nse_s04_0.60_bicycle_10_n02835271_5821.png
subject-04,1,81,0.610842943191528,car,car,0.00,0081_nse_s04_0.00_car_10_n02814533_72473.png
subject-04,1,82,0.764691114425659,car,oven,0.20,0082_nse_s04_0.20_oven_10_n04111531_1330.png
subject-04,1,83,0.566477060317993,bear,bear,0.00,0083_nse_s04_0.00_bear_10_n02132136_2263.png
subject-04,1,84,0.532254934310913,bear,bear,0.03,0084_nse_s04_0.03_bear_10_n02134418_1031.png
subject-04,1,85,0.832004070281982,truck,keyboard,0.60,0085_nse_s04_0.60_keyboard_10_n04505470_2603.png
subject-04,1,86,0.567896127700806,bottle,oven,0.03,0086_nse_s04_0.03_oven_10_n04111531_11669.png
subject-04,1,87,0.931632995605469,airplane,elephant,0.60,0087_nse_s04_0.60_elephant_10_n02504013_1110.png
subject-04,1,88,1.05354595184326,keyboard,oven,0.10,0088_nse_s04_0.10_oven_10_n04111531_12129.png
subject-04,1,89,1.03318500518799,chair,bear,0.35,0089_nse_s04_0.35_bear_10_n02134418_2372.png
subject-04,1,90,0.983235836029053,bottle,bear,0.90,0090_nse_s04_0.90_bear_10_n02134084_12801.png
subject-04,1,91,0.758785963058472,bear,bear,0.10,0091_nse_s04_0.10_bear_10_n02132136_7253.png
subject-04,1,92,0.780616998672485,boat,knife,0.90,0092_nse_s04_0.90_knife_10_n03041632_27960.png
subject-04,1,93,0.690474987030029,car,car,0.35,0093_nse_s04_0.35_car_10_n03100240_1702.png
subject-04,1,94,1.03822803497314,knife,knife,0.90,0094_nse_s04_0.90_knife_10_n03041632_19620.png
subject-04,1,95,NaN,na,dog,0.05,0095_nse_s04_0.05_dog_10_n02091635_8296.png
subject-04,1,96,0.808069944381714,cat,bird,0.90,0096_nse_s04_0.90_bird_10_n01833805_5088.png
subject-04,1,97,0.698143005371094,oven,chair,0.20,0097_nse_s04_0.20_chair_10_n02791124_206.png
subject-04,1,98,0.829901933670044,bottle,bottle,0.20,0098_nse_s04_0.20_bottle_10_n02823428_7570.png
subject-04,1,99,0.537612915039062,truck,truck,0.10,0099_nse_s04_0.10_truck_10_n04467665_74008.png
subject-04,1,100,1.00725793838501,bottle,clock,0.35,0100_nse_s04_0.35_clock_10_n04548280_6888.png
subject-04,1,101,0.785032033920288,bird,bird,0.10,0101_nse_s04_0.10_bird_10_n02051845_3479.png
subject-04,1,102,0.641006946563721,cat,cat,0.10,0102_nse_s04_0.10_cat_10_n02124075_12815.png
subject-04,1,103,0.684905052185059,cat,cat,0.05,0103_nse_s04_0.05_cat_10_n02125311_13652.png
subject-04,1,104,0.600483894348145,elephant,elephant,0.00,0104_nse_s04_0.00_elephant_10_n02504013_8534.png
subject-04,1,105,1.22032594680786,keyboard,knife,0.20,0105_nse_s04_0.20_knife_10_n03041632_24541.png
subject-04,1,106,0.75020694732666,bottle,bottle,0.35,0106_nse_s04_0.35_bottle_10_n03983396_10174.png
subject-04,1,107,1.31587815284729,boat,keyboard,0.35,0107_nse_s04_0.35_keyboard_10_n03085013_19607.png
subject-04,1,108,1.04994702339172,bicycle,chair,0.60,0108_nse_s04_0.60_chair_10_n03376595_591.png
subject-04,1,109,0.95757007598877,chair,bird,0.35,0109_nse_s04_0.35_bird_10_n01819313_358.png
subject-04,1,110,0.697480916976929,chair,boat,0.10,0110_nse_s04_0.10_boat_10_n02951358_15413.png
subject-04,1,111,1.0772910118103,elephant,truck,0.35,0111_nse_s04_0.35_truck_10_n03417042_8928.png
subject-04,1,112,1.12886381149292,dog,elephant,0.03,0112_nse_s04_0.03_elephant_10_n02504013_7147.png
subject-04,1,113,0.687129974365234,car,bicycle,0.00,0113_nse_s04_0.00_bicycle_10_n03792782_2024.png
subject-04,1,114,0.838534116744995,boat,knife,0.60,0114_nse_s04_0.60_knife_10_n03041632_14766.png
subject-04,1,115,0.922489881515503,knife,dog,0.10,0115_nse_s04_0.10_dog_10_n02089867_4717.png
subject-04,1,116,0.734205007553101,boat,knife,0.35,0116_nse_s04_0.35_knife_10_n03041632_2153.png
subject-04,1,117,0.740105152130127,boat,airplane,0.35,0117_nse_s04_0.35_airplane_10_n02690373_5032.png
subject-04,1,118,0.673900127410889,airplane,airplane,0.03,0118_nse_s04_0.03_airplane_10_n02690373_1038.png
subject-04,1,119,0.522058963775635,clock,clock,0.00,0119_nse_s04_0.00_clock_10_n02708093_3591.png
subject-04,1,120,0.735345125198364,dog,dog,0.10,0120_nse_s04_0.10_dog_10_n02092339_401.png
subject-04,1,121,1.50016713142395,boat,boat,0.20,0121_nse_s04_0.20_boat_10_n03662601_35225.png
subject-04,1,122,0.739235162734985,chair,chair,0.05,0122_nse_s04_0.05_chair_10_n03376595_830.png
subject-04,1,123,0.65689492225647,elephant,elephant,0.00,0123_nse_s04_0.00_elephant_10_n02504013_5397.png
subject-04,1,124,0.588783979415894,cat,cat,0.00,0124_nse_s04_0.00_cat_10_n02125311_25104.png
subject-04,1,125,1.19670391082764,car,bear,0.60,0125_nse_s04_0.60_bear_10_n02134418_3570.png
subject-04,1,126,0.692511081695557,cat,cat,0.00,0126_nse_s04_0.00_cat_10_n02124075_9591.png
subject-04,1,127,1.40854382514954,keyboard,clock,0.20,0127_nse_s04_0.20_clock_10_n04548280_1109.png
subject-04,1,128,0.627959966659546,car,car,0.00,0128_nse_s04_0.00_car_10_n03100240_11400.png
subject-04,1,129,0.717659950256348,cat,bottle,0.60,0129_nse_s04_0.60_bottle_10_n04591713_765.png
subject-04,1,130,0.987759113311768,knife,oven,0.00,0130_nse_s04_0.00_oven_10_n04111531_6313.png
subject-04,1,131,1.48937296867371,chair,bottle,0.10,0131_nse_s04_0.10_bottle_10_n03937543_1290.png
subject-04,1,132,0.545387029647827,clock,clock,0.03,0132_nse_s04_0.03_clock_10_n04548280_189.png
subject-04,1,133,0.722937107086182,clock,clock,0.00,0133_nse_s04_0.00_clock_10_n04548280_3716.png
subject-04,1,134,0.829111099243164,airplane,airplane,0.03,0134_nse_s04_0.03_airplane_10_n02690373_1306.png
subject-04,1,135,0.684659004211426,oven,chair,0.90,0135_nse_s04_0.90_chair_10_n02791124_3186.png
subject-04,1,136,0.712520837783813,keyboard,airplane,0.90,0136_nse_s04_0.90_airplane_10_n02690373_9012.png
subject-04,1,137,1.26622414588928,car,keyboard,0.60,0137_nse_s04_0.60_keyboard_10_n03085013_23718.png
subject-04,1,138,0.692346811294556,clock,clock,0.03,0138_nse_s04_0.03_clock_10_n04548280_6068.png
subject-04,1,139,0.929924011230469,dog,airplane,0.90,0139_nse_s04_0.90_airplane_10_n02690373_18234.png
subject-04,1,140,0.86766791343689,bird,clock,0.35,0140_nse_s04_0.35_clock_10_n02708093_4912.png
subject-04,1,141,1.06148099899292,chair,chair,0.00,0141_nse_s04_0.00_chair_10_n04099969_14288.png
subject-04,1,142,1.12738704681396,cat,dog,0.03,0142_nse_s04_0.03_dog_10_n02102480_6569.png
subject-04,1,143,NaN,na,chair,0.10,0143_nse_s04_0.10_chair_10_n04099969_1690.png
subject-04,1,144,0.75321888923645,boat,oven,0.60,0144_nse_s04_0.60_oven_10_n04111531_1752.png
subject-04,1,145,1.45266008377075,chair,bottle,0.20,0145_nse_s04_0.20_bottle_10_n03937543_2105.png
subject-04,1,146,0.688653945922852,dog,dog,0.00,0146_nse_s04_0.00_dog_10_n02091244_13118.png
subject-04,1,147,0.764376163482666,boat,bird,0.35,0147_nse_s04_0.35_bird_10_n02018795_248.png
subject-04,1,148,0.90857195854187,bottle,bottle,0.05,0148_nse_s04_0.05_bottle_10_n04560804_14729.png
subject-04,1,149,1.17797994613647,cat,truck,0.35,0149_nse_s04_0.35_truck_10_n03417042_10751.png
subject-04,1,150,0.621931076049805,bird,bird,0.10,0150_nse_s04_0.10_bird_10_n02006656_5719.png
subject-04,1,151,0.683669090270996,dog,dog,0.03,0151_nse_s04_0.03_dog_10_n02105056_5636.png
subject-04,1,152,1.03334712982178,knife,chair,0.00,0152_nse_s04_0.00_chair_10_n04429376_6915.png
subject-04,1,153,1.45128417015076,elephant,cat,0.60,0153_nse_s04_0.60_cat_10_n02123159_2256.png
subject-04,1,154,1.50013709068298,cat,elephant,0.05,0154_nse_s04_0.05_elephant_10_n02504013_13766.png
subject-04,1,155,0.766978979110718,airplane,chair,0.90,0155_nse_s04_0.90_chair_10_n04099969_41686.png
subject-04,1,156,0.934778928756714,truck,bottle,0.60,0156_nse_s04_0.60_bottle_10_n02823428_3478.png
subject-04,1,157,0.860989809036255,elephant,elephant,0.00,0157_nse_s04_0.00_elephant_10_n02504458_6424.png
subject-04,1,158,0.802436113357544,keyboard,keyboard,0.20,0158_nse_s04_0.20_keyboard_10_n04505470_7946.png
subject-04,1,159,0.870127201080322,keyboard,keyboard,0.60,0159_nse_s04_0.60_keyboard_10_n03085013_20363.png
subject-04,1,160,1.03391098976135,oven,dog,0.20,0160_nse_s04_0.20_dog_10_n02093256_8061.png
subject-04,1,161,0.777449131011963,car,truck,0.35,0161_nse_s04_0.35_truck_10_n04467665_4810.png
subject-04,1,162,0.64360499382019,elephant,elephant,0.00,0162_nse_s04_0.00_elephant_10_n02504458_6472.png
subject-04,1,163,1.08315706253052,bottle,bicycle,0.03,0163_nse_s04_0.03_bicycle_10_n03792782_6613.png
subject-04,1,164,NaN,na,boat,0.00,0164_nse_s04_0.00_boat_10_n03344393_1125.png
subject-04,1,165,0.830899000167847,truck,truck,0.20,0165_nse_s04_0.20_truck_10_n03417042_4994.png
subject-04,1,166,0.57638692855835,elephant,elephant,0.05,0166_nse_s04_0.05_elephant_10_n02504458_7634.png
subject-04,1,167,0.698584079742432,boat,keyboard,0.90,0167_nse_s04_0.90_keyboard_10_n03085013_3439.png
subject-04,1,168,0.638396024703979,bicycle,bicycle,0.35,0168_nse_s04_0.35_bicycle_10_n02835271_5825.png
subject-04,1,169,0.714020013809204,bottle,bottle,0.00,0169_nse_s04_0.00_bottle_10_n03983396_5548.png
subject-04,1,170,0.757881879806519,dog,dog,0.20,0170_nse_s04_0.20_dog_10_n02110185_10879.png
subject-04,1,171,0.807843923568726,boat,airplane,0.60,0171_nse_s04_0.60_airplane_10_n02690373_8233.png
subject-04,1,172,0.841328144073486,truck,truck,0.20,0172_nse_s04_0.20_truck_10_n03796401_28656.png
subject-04,1,173,1.11141300201416,airplane,bird,0.60,0173_nse_s04_0.60_bird_10_n02018795_6389.png
subject-04,1,174,1.23306488990784,chair,chair,0.00,0174_nse_s04_0.00_chair_10_n03376595_6012.png
subject-04,1,175,1.46673798561096,boat,boat,0.20,0175_nse_s04_0.20_boat_10_n03662601_5529.png
subject-04,1,176,1.46471190452576,cat,bottle,0.90,0176_nse_s04_0.90_bottle_10_n03937543_4463.png
subject-04,1,177,0.566395044326782,cat,car,0.90,0177_nse_s04_0.90_car_10_n04285008_15003.png
subject-04,1,178,0.616312980651855,bicycle,bicycle,0.05,0178_nse_s04_0.05_bicycle_10_n03792782_6083.png
subject-04,1,179,0.558318138122559,car,car,0.00,0179_nse_s04_0.00_car_10_n04285008_3056.png
subject-04,1,180,0.610295057296753,knife,knife,0.05,0180_nse_s04_0.05_knife_10_n03041632_11797.png
subject-04,1,181,0.605798006057739,cat,bear,0.10,0181_nse_s04_0.10_bear_10_n02134084_9127.png
subject-04,1,182,1.25969409942627,airplane,airplane,0.10,0182_nse_s04_0.10_airplane_10_n02690373_2521.png
subject-04,1,183,1.0595338344574,clock,clock,0.90,0183_nse_s04_0.90_clock_10_n04548280_2827.png
subject-04,1,184,1.10106992721558,oven,clock,0.60,0184_nse_s04_0.60_clock_10_n03196217_2346.png
subject-04,1,185,0.60496187210083,car,car,0.00,0185_nse_s04_0.00_car_10_n02814533_52389.png
subject-04,1,186,0.702757835388184,bear,bear,0.90,0186_nse_s04_0.90_bear_10_n02133161_4398.png
subject-04,1,187,0.652607917785645,airplane,airplane,0.05,0187_nse_s04_0.05_airplane_10_n02690373_9535.png
subject-04,1,188,0.970345973968506,boat,boat,0.00,0188_nse_s04_0.00_boat_10_n03662601_31508.png
subject-04,1,189,0.684240102767944,knife,knife,0.05,0189_nse_s04_0.05_knife_10_n03041632_38610.png
subject-04,1,190,0.813974142074585,truck,truck,0.20,0190_nse_s04_0.20_truck_10_n03796401_21490.png
subject-04,1,191,0.645982980728149,elephant,elephant,0.10,0191_nse_s04_0.10_elephant_10_n02504013_1577.png
subject-04,1,192,0.869659900665283,chair,clock,0.90,0192_nse_s04_0.90_clock_10_n02708093_6572.png
subject-04,1,193,0.939540863037109,oven,bird,0.20,0193_nse_s04_0.20_bird_10_n02033041_17119.png
subject-04,1,194,0.687578916549683,car,car,0.35,0194_nse_s04_0.35_car_10_n02814533_8881.png
subject-04,1,195,0.683136940002441,bird,bird,0.03,0195_nse_s04_0.03_bird_10_n01855672_12414.png
subject-04,1,196,0.881223917007446,bird,dog,0.90,0196_nse_s04_0.90_dog_10_n02095570_9488.png
subject-04,1,197,0.706642150878906,bear,bear,0.20,0197_nse_s04_0.20_bear_10_n02134418_4666.png
subject-04,1,198,0.724510192871094,bottle,bottle,0.05,0198_nse_s04_0.05_bottle_10_n04591713_6662.png
subject-04,1,199,0.842221021652222,car,car,0.05,0199_nse_s04_0.05_car_10_n03100240_9305.png
subject-04,1,200,0.956077814102173,oven,clock,0.03,0200_nse_s04_0.03_clock_10_n03196217_7637.png
subject-04,1,201,0.632058143615723,elephant,elephant,0.35,0201_nse_s04_0.35_elephant_10_n02504458_485.png
subject-04,1,202,1.07984304428101,cat,airplane,0.90,0202_nse_s04_0.90_airplane_10_n02690373_4982.png
subject-04,1,203,0.675734996795654,bottle,bottle,0.05,0203_nse_s04_0.05_bottle_10_n03983396_3109.png
subject-04,1,204,0.953637838363647,car,bicycle,0.60,0204_nse_s04_0.60_bicycle_10_n03792782_15679.png
subject-04,1,205,0.651494979858398,car,car,0.03,0205_nse_s04_0.03_car_10_n03100240_15979.png
subject-04,1,206,0.564985990524292,cat,cat,0.20,0206_nse_s04_0.20_cat_10_n02124075_951.png
subject-04,1,207,0.529141902923584,cat,cat,0.00,0207_nse_s04_0.00_cat_10_n02124075_7668.png
subject-04,1,208,0.834743976593018,bear,bear,0.00,0208_nse_s04_0.00_bear_10_n02134084_3888.png
subject-04,1,209,0.720679044723511,car,car,0.10,0209_nse_s04_0.10_car_10_n04285008_14554.png
subject-04,1,210,0.568359136581421,airplane,airplane,0.05,0210_nse_s04_0.05_airplane_10_n02690373_7072.png
subject-04,1,211,0.642120122909546,knife,knife,0.00,0211_nse_s04_0.00_knife_10_n03041632_1607.png
subject-04,1,212,0.521940946578979,clock,clock,0.20,0212_nse_s04_0.20_clock_10_n04548280_9646.png
subject-04,1,213,0.806305885314941,bicycle,bear,0.90,0213_nse_s04_0.90_bear_10_n02133161_10190.png
subject-04,1,214,0.981961011886597,oven,oven,0.20,0214_nse_s04_0.20_oven_10_n04111531_2163.png
subject-04,1,215,0.781759977340698,car,bird,0.20,0215_nse_s04_0.20_bird_10_n02011460_13026.png
subject-04,1,216,0.957045078277588,truck,chair,0.90,0216_nse_s04_0.90_chair_10_n02791124_5400.png
subject-04,1,217,0.743045091629028,bottle,bottle,0.05,0217_nse_s04_0.05_bottle_10_n03983396_3185.png
subject-04,1,218,0.870887994766235,bear,bear,0.35,0218_nse_s04_0.35_bear_10_n02134418_5073.png
subject-04,1,219,1.18049097061157,bird,elephant,0.90,0219_nse_s04_0.90_elephant_10_n02504458_9213.png
subject-04,1,220,0.826815843582153,truck,truck,0.20,0220_nse_s04_0.20_truck_10_n03417042_6654.png
subject-04,1,221,0.868211030960083,airplane,bicycle,0.60,0221_nse_s04_0.60_bicycle_10_n02835271_358.png
subject-04,1,222,0.886018037796021,cat,cat,0.20,0222_nse_s04_0.20_cat_10_n02124075_12622.png
subject-04,1,223,0.759787082672119,chair,chair,0.05,0223_nse_s04_0.05_chair_10_n02791124_2470.png
subject-04,1,224,0.697551965713501,bottle,bottle,0.05,0224_nse_s04_0.05_bottle_10_n04560804_3651.png
subject-04,1,225,0.9234778881073,truck,car,0.60,0225_nse_s04_0.60_car_10_n02814533_41478.png
subject-04,1,226,1.00531911849976,bird,bird,0.03,0226_nse_s04_0.03_bird_10_n01558993_34885.png
subject-04,1,227,1.03903198242188,bear,chair,0.60,0227_nse_s04_0.60_chair_10_n03376595_8995.png
subject-04,1,228,0.760951042175293,boat,boat,0.90,0228_nse_s04_0.90_boat_10_n03344393_771.png
subject-04,1,229,0.860727071762085,boat,bottle,0.20,0229_nse_s04_0.20_bottle_10_n04591713_5569.png
subject-04,1,230,0.62256908416748,clock,clock,0.00,0230_nse_s04_0.00_clock_10_n02708093_1038.png
subject-04,1,231,0.692337036132812,bottle,bottle,0.00,0231_nse_s04_0.00_bottle_10_n04591713_5476.png
subject-04,1,232,0.798197031021118,car,clock,0.60,0232_nse_s04_0.60_clock_10_n02708093_1418.png
subject-04,1,233,0.79398512840271,bird,bird,0.00,0233_nse_s04_0.00_bird_10_n01560419_2432.png
subject-04,1,234,1.0237889289856,car,truck,0.35,0234_nse_s04_0.35_truck_10_n03796401_2551.png
subject-04,1,235,0.627593994140625,chair,chair,0.00,0235_nse_s04_0.00_chair_10_n04429376_5770.png
subject-04,1,236,0.66349720954895,keyboard,keyboard,0.03,0236_nse_s04_0.03_keyboard_10_n03085013_20495.png
subject-04,1,237,0.877341985702515,boat,boat,0.05,0237_nse_s04_0.05_boat_10_n03662601_5176.png
subject-04,1,238,0.92704701423645,car,bird,0.60,0238_nse_s04_0.60_bird_10_n02011460_2611.png
subject-04,1,239,0.658796072006226,car,car,0.03,0239_nse_s04_0.03_car_10_n03100240_2425.png
subject-04,1,240,0.664808034896851,bear,bear,0.03,0240_nse_s04_0.03_bear_10_n02132136_23078.png
subject-04,1,241,0.549490928649902,clock,clock,0.03,0241_nse_s04_0.03_clock_10_n02708093_8100.png
subject-04,1,242,0.641556978225708,chair,chair,0.10,0242_nse_s04_0.10_chair_10_n04429376_619.png
subject-04,1,243,0.592931032180786,bottle,bottle,0.35,0243_nse_s04_0.35_bottle_10_n03983396_11434.png
subject-04,1,244,1.00297117233276,oven,keyboard,0.35,0244_nse_s04_0.35_keyboard_10_n04505470_8620.png
subject-04,1,245,0.73884105682373,bird,bird,0.35,0245_nse_s04_0.35_bird_10_n01828970_11221.png
subject-04,1,246,1.02436399459839,boat,bear,0.00,0246_nse_s04_0.00_bear_10_n02132136_25897.png
subject-04,1,247,0.700304985046387,bottle,bicycle,0.90,0247_nse_s04_0.90_bicycle_10_n03792782_37794.png
subject-04,1,248,0.613978147506714,keyboard,knife,0.90,0248_nse_s04_0.90_knife_10_n03041632_29285.png
subject-04,1,249,0.875886917114258,car,car,0.20,0249_nse_s04_0.20_car_10_n02814533_211.png
subject-04,1,250,0.957842111587524,clock,clock,0.35,0250_nse_s04_0.35_clock_10_n02708093_4415.png
subject-04,1,251,0.837372064590454,bottle,bottle,0.60,0251_nse_s04_0.60_bottle_10_n02823428_9063.png
subject-04,1,252,0.673465013504028,car,car,0.35,0252_nse_s04_0.35_car_10_n02814533_73210.png
subject-04,1,253,0.661144018173218,bottle,bottle,0.10,0253_nse_s04_0.10_bottle_10_n03983396_9662.png
subject-04,1,254,0.86897611618042,car,boat,0.35,0254_nse_s04_0.35_boat_10_n03662601_7352.png
subject-04,1,255,0.761076927185059,bird,bird,0.35,0255_nse_s04_0.35_bird_10_n01534433_12864.png
subject-04,1,256,0.70849084854126,truck,truck,0.05,0256_nse_s04_0.05_truck_10_n03796401_30000.png
subject-04,1,257,0.618721008300781,elephant,elephant,0.03,0257_nse_s04_0.03_elephant_10_n02504458_2135.png
subject-04,1,258,0.676226854324341,knife,knife,0.10,0258_nse_s04_0.10_knife_10_n03041632_3159.png
subject-04,1,259,0.822180986404419,bicycle,bicycle,0.20,0259_nse_s04_0.20_bicycle_10_n03792782_29108.png
subject-04,1,260,0.497837066650391,clock,clock,0.05,0260_nse_s04_0.05_clock_10_n02708093_3462.png
subject-04,1,261,0.789566993713379,knife,knife,0.10,0261_nse_s04_0.10_knife_10_n03041632_28129.png
subject-04,1,262,0.84761118888855,bottle,truck,0.60,0262_nse_s04_0.60_truck_10_n04467665_34932.png
subject-04,1,263,0.821172952651978,bottle,bottle,0.03,0263_nse_s04_0.03_bottle_10_n03983396_11654.png
subject-04,1,264,1.14149808883667,chair,chair,0.03,0264_nse_s04_0.03_chair_10_n04429376_26765.png
subject-04,1,265,0.770910024642944,truck,truck,0.10,0265_nse_s04_0.10_truck_10_n03796401_407.png
subject-04,1,266,0.702829122543335,bicycle,bicycle,0.05,0266_nse_s04_0.05_bicycle_10_n03792782_48457.png
subject-04,1,267,0.680724143981934,truck,truck,0.10,0267_nse_s04_0.10_truck_10_n03796401_21198.png
subject-04,1,268,1.15430498123169,bottle,bird,0.35,0268_nse_s04_0.35_bird_10_n01824575_2959.png
subject-04,1,269,1.18617486953735,cat,car,0.60,0269_nse_s04_0.60_car_10_n04285008_2363.png
subject-04,1,270,1.48202300071716,bicycle,chair,0.00,0270_nse_s04_0.00_chair_10_n03376595_16202.png
subject-04,1,271,0.687939882278442,chair,chair,0.10,0271_nse_s04_0.10_chair_10_n03376595_15723.png
subject-04,1,272,0.759616851806641,truck,car,0.20,0272_nse_s04_0.20_car_10_n03100240_4294.png
subject-04,1,273,0.951489925384521,cat,elephant,0.35,0273_nse_s04_0.35_elephant_10_n02504013_945.png
subject-04,1,274,1.37563514709473,elephant,oven,0.60,0274_nse_s04_0.60_oven_10_n04111531_22797.png
subject-04,1,275,0.799309015274048,dog,dog,0.10,0275_nse_s04_0.10_dog_10_n02105251_5570.png
subject-04,1,276,0.591148853302002,keyboard,keyboard,0.10,0276_nse_s04_0.10_keyboard_10_n03085013_29042.png
subject-04,1,277,0.718621969223022,truck,truck,0.05,0277_nse_s04_0.05_truck_10_n04467665_62524.png
subject-04,1,278,0.96494722366333,bear,keyboard,0.35,0278_nse_s04_0.35_keyboard_10_n03085013_20798.png
subject-04,1,279,0.938354015350342,car,chair,0.35,0279_nse_s04_0.35_chair_10_n04099969_12909.png
subject-04,1,280,0.856035232543945,knife,knife,0.10,0280_nse_s04_0.10_knife_10_n03041632_43289.png
subject-04,1,281,1.00805497169495,clock,clock,0.00,0281_nse_s04_0.00_clock_10_n03196217_9231.png
subject-04,1,282,1.30566191673279,knife,elephant,0.00,0282_nse_s04_0.00_elephant_10_n02504013_3602.png
subject-04,1,283,0.989515066146851,truck,oven,0.90,0283_nse_s04_0.90_oven_10_n04111531_845.png
subject-04,1,284,1.15130400657654,car,chair,0.35,0284_nse_s04_0.35_chair_10_n02791124_13469.png
subject-04,1,285,1.23322010040283,cat,bicycle,0.20,0285_nse_s04_0.20_bicycle_10_n03792782_7050.png
subject-04,1,286,0.713125944137573,bear,dog,0.35,0286_nse_s04_0.35_dog_10_n02105251_6564.png
subject-04,1,287,1.20081210136414,keyboard,knife,0.10,0287_nse_s04_0.10_knife_10_n03041632_30821.png
subject-04,1,288,1.02099585533142,airplane,bicycle,0.90,0288_nse_s04_0.90_bicycle_10_n02835271_30318.png
subject-04,1,289,0.728265047073364,boat,boat,0.03,0289_nse_s04_0.03_boat_10_n04273569_4348.png
subject-04,1,290,0.682380199432373,keyboard,keyboard,0.03,0290_nse_s04_0.03_keyboard_10_n04505470_4983.png
subject-04,1,291,0.951964139938354,bear,dog,0.20,0291_nse_s04_0.20_dog_10_n02096437_4384.png
subject-04,1,292,0.814167022705078,car,car,0.00,0292_nse_s04_0.00_car_10_n03100240_9639.png
subject-04,1,293,1.12155103683472,boat,oven,0.35,0293_nse_s04_0.35_oven_10_n04111531_21404.png
subject-04,1,294,0.961718082427979,airplane,airplane,0.10,0294_nse_s04_0.10_airplane_10_n02690373_2579.png
subject-04,1,295,1.50003099441528,dog,dog,0.10,0295_nse_s04_0.10_dog_10_n02106550_3020.png
subject-04,1,296,0.961118936538696,boat,boat,0.00,0296_nse_s04_0.00_boat_10_n03662601_11972.png
subject-04,1,297,0.623213052749634,bottle,bottle,0.35,0297_nse_s04_0.35_bottle_10_n04591713_665.png
subject-04,1,298,0.706799983978271,bear,dog,0.35,0298_nse_s04_0.35_dog_10_n02105505_5576.png
subject-04,1,299,0.694928169250488,elephant,elephant,0.20,0299_nse_s04_0.20_elephant_10_n02504458_5827.png
subject-04,1,300,0.556694030761719,cat,cat,0.00,0300_nse_s04_0.00_cat_10_n02123159_469.png
subject-04,1,301,0.644158840179443,keyboard,clock,0.05,0301_nse_s04_0.05_clock_10_n03196217_3987.png
subject-04,1,302,0.873861789703369,bear,truck,0.90,0302_nse_s04_0.90_truck_10_n03417042_10788.png
subject-04,1,303,0.611868858337402,clock,clock,0.00,0303_nse_s04_0.00_clock_10_n03196217_6064.png
subject-04,1,304,0.817862033843994,car,car,0.20,0304_nse_s04_0.20_car_10_n02814533_2271.png
subject-04,1,305,0.46137809753418,clock,clock,0.03,0305_nse_s04_0.03_clock_10_n04548280_9752.png
subject-04,1,306,0.645169019699097,keyboard,keyboard,0.05,0306_nse_s04_0.05_keyboard_10_n03085013_19504.png
subject-04,1,307,0.677063941955566,bottle,bottle,0.00,0307_nse_s04_0.00_bottle_10_n04591713_2808.png
subject-04,1,308,0.539225101470947,bicycle,bicycle,0.35,0308_nse_s04_0.35_bicycle_10_n03792782_20387.png
subject-04,1,309,1.15650105476379,bear,bear,0.20,0309_nse_s04_0.20_bear_10_n02132136_17615.png
subject-04,1,310,0.864318132400513,clock,bottle,0.90,0310_nse_s04_0.90_bottle_10_n03937543_7493.png
subject-04,1,311,0.548214912414551,cat,cat,0.00,0311_nse_s04_0.00_cat_10_n02123394_7105.png
subject-04,1,312,0.6200110912323,chair,chair,0.20,0312_nse_s04_0.20_chair_10_n03376595_9900.png
subject-04,1,313,0.787935018539429,bear,dog,0.20,0313_nse_s04_0.20_dog_10_n02086079_17983.png
subject-04,1,314,0.66578483581543,bottle,cat,0.60,0314_nse_s04_0.60_cat_10_n02125311_22037.png
subject-04,1,315,0.62946605682373,boat,truck,0.90,0315_nse_s04_0.90_truck_10_n04467665_37009.png
subject-04,1,316,0.625242948532104,cat,cat,0.10,0316_nse_s04_0.10_cat_10_n02123394_1789.png
subject-04,1,317,1.00310778617859,oven,oven,0.00,0317_nse_s04_0.00_oven_10_n04111531_9611.png
subject-04,1,318,0.577347040176392,clock,clock,0.03,0318_nse_s04_0.03_clock_10_n03196217_3007.png
subject-04,1,319,0.830780029296875,knife,airplane,0.90,0319_nse_s04_0.90_airplane_10_n02690373_629.png
subject-04,1,320,0.782564163208008,keyboard,keyboard,0.05,0320_nse_s04_0.05_keyboard_10_n03085013_15646.png
subject-04,1,321,0.540604114532471,car,car,0.00,0321_nse_s04_0.00_car_10_n04285008_10905.png
subject-04,1,322,0.734130859375,knife,knife,0.03,0322_nse_s04_0.03_knife_10_n03041632_29580.png
subject-04,1,323,0.971666097640991,boat,elephant,0.35,0323_nse_s04_0.35_elephant_10_n02504458_130.png
subject-04,1,324,0.773664951324463,knife,knife,0.20,0324_nse_s04_0.20_knife_10_n03041632_46103.png
subject-04,1,325,0.685496091842651,bear,dog,0.60,0325_nse_s04_0.60_dog_10_n02096294_5451.png
subject-04,1,326,0.98326301574707,knife,knife,0.00,0326_nse_s04_0.00_knife_10_n03041632_22330.png
subject-04,1,327,1.35507798194885,chair,chair,0.20,0327_nse_s04_0.20_chair_10_n02791124_1140.png
subject-04,1,328,1.13501691818237,bear,dog,0.10,0328_nse_s04_0.10_dog_10_n02097130_7349.png
subject-04,1,329,1.24864792823792,boat,bicycle,0.20,0329_nse_s04_0.20_bicycle_10_n02835271_12120.png
subject-04,1,330,0.71262001991272,cat,cat,0.00,0330_nse_s04_0.00_cat_10_n02123159_5799.png
subject-04,1,331,0.596336126327515,car,car,0.03,0331_nse_s04_0.03_car_10_n03100240_15686.png
subject-04,1,332,0.640304088592529,boat,boat,0.60,0332_nse_s04_0.60_boat_10_n03662601_6625.png
subject-04,1,333,0.637931108474731,bicycle,bicycle,0.35,0333_nse_s04_0.35_bicycle_10_n03792782_51156.png
subject-04,1,334,0.741974830627441,bear,bottle,0.35,0334_nse_s04_0.35_bottle_10_n03937543_3289.png
subject-04,1,335,0.705701112747192,bird,bird,0.10,0335_nse_s04_0.10_bird_10_n02018795_14312.png
subject-04,1,336,0.707753896713257,car,cat,0.60,0336_nse_s04_0.60_cat_10_n02125311_3616.png
subject-04,1,337,0.889266014099121,bottle,truck,0.35,0337_nse_s04_0.35_truck_10_n03417042_6847.png
subject-04,1,338,0.939161062240601,clock,clock,0.03,0338_nse_s04_0.03_clock_10_n04548280_4872.png
subject-04,1,339,0.779091119766235,bear,elephant,0.60,0339_nse_s04_0.60_elephant_10_n02504458_4824.png
subject-04,1,340,0.97861909866333,oven,oven,0.05,0340_nse_s04_0.05_oven_10_n04111531_7741.png
subject-04,1,341,0.600526094436646,truck,truck,0.00,0341_nse_s04_0.00_truck_10_n03796401_2012.png
subject-04,1,342,0.800191164016724,boat,boat,0.05,0342_nse_s04_0.05_boat_10_n03662601_19809.png
subject-04,1,343,1.26235389709473,car,car,0.60,0343_nse_s04_0.60_car_10_n02814533_92286.png
subject-04,1,344,0.769980907440186,bear,clock,0.90,0344_nse_s04_0.90_clock_10_n02708093_6967.png
subject-04,1,345,1.21787190437317,bicycle,car,0.05,0345_nse_s04_0.05_car_10_n02814533_35054.png
subject-04,1,346,0.695673942565918,bird,bird,0.00,0346_nse_s04_0.00_bird_10_n02033041_2320.png
subject-04,1,347,0.765405893325806,oven,clock,0.35,0347_nse_s04_0.35_clock_10_n04548280_5088.png
subject-04,1,348,1.50007104873657,elephant,boat,0.03,0348_nse_s04_0.03_boat_10_n03344393_8545.png
subject-04,1,349,1.23722910881042,chair,chair,0.05,0349_nse_s04_0.05_chair_10_n04429376_14729.png
subject-04,1,350,0.852734088897705,cat,bear,0.60,0350_nse_s04_0.60_bear_10_n02133161_5637.png
subject-04,1,351,0.722459077835083,oven,clock,0.03,0351_nse_s04_0.03_clock_10_n02708093_3213.png
subject-04,1,352,0.624743938446045,keyboard,keyboard,0.20,0352_nse_s04_0.20_keyboard_10_n04505470_4679.png
subject-04,1,353,1.50003099441528,oven,airplane,0.10,0353_nse_s04_0.10_airplane_10_n02690373_10285.png
subject-04,1,354,0.792107105255127,bottle,bottle,0.05,0354_nse_s04_0.05_bottle_10_n03983396_23516.png
subject-04,1,355,0.656093120574951,bear,bear,0.03,0355_nse_s04_0.03_bear_10_n02132136_9735.png
subject-04,1,356,0.869746923446655,oven,oven,0.03,0356_nse_s04_0.03_oven_10_n04111531_1723.png
subject-04,1,357,0.855408906936646,cat,bird,0.03,0357_nse_s04_0.03_bird_10_n01860187_24935.png
subject-04,1,358,0.827341079711914,bear,cat,0.90,0358_nse_s04_0.90_cat_10_n02123159_277.png
subject-04,1,359,0.768988132476807,bicycle,boat,0.90,0359_nse_s04_0.90_boat_10_n04273569_16078.png
subject-04,1,360,0.928735971450806,keyboard,knife,0.00,0360_nse_s04_0.00_knife_10_n03041632_289.png
subject-04,1,361,NaN,na,oven,0.00,0361_nse_s04_0.00_oven_10_n04111531_3270.png
subject-04,1,362,1.50014710426331,cat,bird,0.05,0362_nse_s04_0.05_bird_10_n02006656_10360.png
subject-04,1,363,0.716253995895386,oven,oven,0.10,0363_nse_s04_0.10_oven_10_n04111531_5828.png
subject-04,1,364,0.688079833984375,clock,clock,0.05,0364_nse_s04_0.05_clock_10_n02708093_2898.png
subject-04,1,365,0.816023111343384,car,airplane,0.20,0365_nse_s04_0.20_airplane_10_n02690373_1441.png
subject-04,1,366,1.13983416557312,boat,keyboard,0.05,0366_nse_s04_0.05_keyboard_10_n03085013_23865.png
subject-04,1,367,1.0076048374176,bear,knife,0.60,0367_nse_s04_0.60_knife_10_n03041632_48816.png
subject-04,1,368,0.707291126251221,boat,elephant,0.20,0368_nse_s04_0.20_elephant_10_n02504013_2464.png
subject-04,1,369,0.579230070114136,bottle,bottle,0.00,0369_nse_s04_0.00_bottle_10_n04557648_5627.png
subject-04,1,370,0.721081972122192,keyboard,cat,0.90,0370_nse_s04_0.90_cat_10_n02123045_13151.png
subject-04,1,371,0.926828861236572,bear,airplane,0.60,0371_nse_s04_0.60_airplane_10_n02690373_3377.png
subject-04,1,372,0.570839881896973,clock,clock,0.60,0372_nse_s04_0.60_clock_10_n02708093_6672.png
subject-04,1,373,0.770853042602539,bear,bird,0.35,0373_nse_s04_0.35_bird_10_n01833805_6289.png
subject-04,1,374,0.646181106567383,bear,cat,0.90,0374_nse_s04_0.90_cat_10_n02123597_7138.png
subject-04,1,375,0.562044143676758,cat,cat,0.10,0375_nse_s04_0.10_cat_10_n02123045_3098.png
subject-04,1,376,0.675916910171509,car,oven,0.10,0376_nse_s04_0.10_oven_10_n04111531_7600.png
subject-04,1,377,0.729779005050659,bottle,bottle,0.03,0377_nse_s04_0.03_bottle_10_n03937543_1602.png
subject-04,1,378,0.561434984207153,bear,bear,0.05,0378_nse_s04_0.05_bear_10_n02132136_3224.png
subject-04,1,379,0.823251008987427,boat,boat,0.03,0379_nse_s04_0.03_boat_10_n02951358_18655.png
subject-04,1,380,1.00342702865601,car,bicycle,0.90,0380_nse_s04_0.90_bicycle_10_n03792782_18516.png
subject-04,1,381,0.631143093109131,bicycle,bicycle,0.10,0381_nse_s04_0.10_bicycle_10_n02835271_25417.png
subject-04,1,382,0.877124071121216,bear,bird,0.90,0382_nse_s04_0.90_bird_10_n01534433_14677.png
subject-04,1,383,0.690431833267212,keyboard,keyboard,0.05,0383_nse_s04_0.05_keyboard_10_n04505470_4994.png
subject-04,1,384,0.754477024078369,car,dog,0.60,0384_nse_s04_0.60_dog_10_n02099849_4819.png
subject-04,1,385,0.654129028320312,car,knife,0.60,0385_nse_s04_0.60_knife_10_n03041632_42162.png
subject-04,1,386,0.781991958618164,bear,bicycle,0.90,0386_nse_s04_0.90_bicycle_10_n03792782_16558.png
subject-04,1,387,0.667818784713745,clock,clock,0.05,0387_nse_s04_0.05_clock_10_n02708093_1313.png
subject-04,1,388,0.889554977416992,boat,boat,0.10,0388_nse_s04_0.10_boat_10_n04273569_11940.png
subject-04,1,389,1.02547192573547,truck,bear,0.90,0389_nse_s04_0.90_bear_10_n02133161_16103.png
subject-04,1,390,0.639343976974487,clock,clock,0.10,0390_nse_s04_0.10_clock_10_n04548280_1114.png
subject-04,1,391,0.627177000045776,bicycle,bicycle,0.00,0391_nse_s04_0.00_bicycle_10_n02835271_9297.png
subject-04,1,392,0.746758937835693,knife,knife,0.20,0392_nse_s04_0.20_knife_10_n03041632_36280.png
subject-04,1,393,0.582763910293579,keyboard,keyboard,0.35,0393_nse_s04_0.35_keyboard_10_n04505470_2141.png
subject-04,1,394,0.71061110496521,bottle,bottle,0.10,0394_nse_s04_0.10_bottle_10_n04560804_3597.png
subject-04,1,395,1.02011013031006,car,clock,0.90,0395_nse_s04_0.90_clock_10_n03196217_12701.png
subject-04,1,396,0.646016120910645,boat,cat,0.35,0396_nse_s04_0.35_cat_10_n02123159_6106.png
subject-04,1,397,0.744005918502808,bear,oven,0.60,0397_nse_s04_0.60_oven_10_n04111531_9370.png
subject-04,1,398,0.777969837188721,elephant,keyboard,0.90,0398_nse_s04_0.90_keyboard_10_n04505470_4824.png
subject-04,1,399,0.609624147415161,bird,bird,0.00,0399_nse_s04_0.00_bird_10_n02009912_31837.png
subject-04,1,400,0.78938889503479,airplane,airplane,0.20,0400_nse_s04_0.20_airplane_10_n02690373_10423.png
subject-04,1,401,0.546921968460083,bear,bear,0.20,0401_nse_s04_0.20_bear_10_n02134418_5271.png
subject-04,1,402,0.612880945205688,bottle,keyboard,0.20,0402_nse_s04_0.20_keyboard_10_n04505470_9570.png
subject-04,1,403,0.680531978607178,chair,chair,0.10,0403_nse_s04_0.10_chair_10_n02791124_7335.png
subject-04,1,404,1.01821494102478,boat,knife,0.90,0404_nse_s04_0.90_knife_10_n03041632_4879.png
subject-04,1,405,1.42212104797363,oven,chair,0.05,0405_nse_s04_0.05_chair_10_n04429376_30921.png
subject-04,1,406,0.917943954467773,bear,bicycle,0.90,0406_nse_s04_0.90_bicycle_10_n02835271_542.png
subject-04,1,407,0.889612913131714,oven,keyboard,0.60,0407_nse_s04_0.60_keyboard_10_n03085013_24088.png
subject-04,1,408,0.611809968948364,airplane,airplane,0.10,0408_nse_s04_0.10_airplane_10_n02690373_3818.png
subject-04,1,409,0.889477968215942,dog,dog,0.05,0409_nse_s04_0.05_dog_10_n02093647_286.png
subject-04,1,410,0.985284090042114,chair,chair,0.10,0410_nse_s04_0.10_chair_10_n02791124_1217.png
subject-04,1,411,0.636981010437012,clock,clock,0.60,0411_nse_s04_0.60_clock_10_n03196217_3697.png
subject-04,1,412,0.670654058456421,car,car,0.03,0412_nse_s04_0.03_car_10_n02814533_31532.png
subject-04,1,413,0.67295503616333,bottle,keyboard,0.20,0413_nse_s04_0.20_keyboard_10_n04505470_4684.png
subject-04,1,414,0.708339929580688,car,car,0.05,0414_nse_s04_0.05_car_10_n02814533_65294.png
subject-04,1,415,0.742439985275269,truck,truck,0.03,0415_nse_s04_0.03_truck_10_n03796401_21261.png
subject-04,1,416,0.746042966842651,car,chair,0.05,0416_nse_s04_0.05_chair_10_n02791124_4595.png
subject-04,1,417,0.927735090255737,bear,cat,0.90,0417_nse_s04_0.90_cat_10_n02124075_7020.png
subject-04,1,418,0.59148120880127,airplane,airplane,0.00,0418_nse_s04_0.00_airplane_10_n02690373_5967.png
subject-04,1,419,0.667702913284302,boat,elephant,0.05,0419_nse_s04_0.05_elephant_10_n02504013_5501.png
subject-04,1,420,0.819191217422485,boat,oven,0.90,0420_nse_s04_0.90_oven_10_n04111531_22916.png
subject-04,1,421,0.549104928970337,boat,boat,0.00,0421_nse_s04_0.00_boat_10_n04612504_20067.png
subject-04,1,422,0.924916982650757,chair,chair,0.05,0422_nse_s04_0.05_chair_10_n04099969_2532.png
subject-04,1,423,0.796639919281006,bicycle,bicycle,0.10,0423_nse_s04_0.10_bicycle_10_n03792782_9004.png
subject-04,1,424,0.672478199005127,dog,dog,0.35,0424_nse_s04_0.35_dog_10_n02107574_3352.png
subject-04,1,425,0.698163986206055,bird,bird,0.05,0425_nse_s04_0.05_bird_10_n01833805_7361.png
subject-04,1,426,0.592139005661011,clock,clock,0.00,0426_nse_s04_0.00_clock_10_n02708093_2588.png
subject-04,1,427,1.26389193534851,knife,knife,0.60,0427_nse_s04_0.60_knife_10_n03041632_39342.png
subject-04,1,428,0.549860954284668,keyboard,keyboard,0.10,0428_nse_s04_0.10_keyboard_10_n04505470_4951.png
subject-04,1,429,0.635725021362305,airplane,airplane,0.20,0429_nse_s04_0.20_airplane_10_n02690373_7229.png
subject-04,1,430,0.707460880279541,cat,dog,0.90,0430_nse_s04_0.90_dog_10_n02111277_11664.png
subject-04,1,431,0.569202899932861,car,car,0.10,0431_nse_s04_0.10_car_10_n03100240_4594.png
subject-04,1,432,1.00339698791504,elephant,bottle,0.90,0432_nse_s04_0.90_bottle_10_n04591713_2014.png
subject-04,1,433,0.943260192871094,boat,boat,0.10,0433_nse_s04_0.10_boat_10_n04612504_6308.png
subject-04,1,434,0.540994882583618,elephant,elephant,0.20,0434_nse_s04_0.20_elephant_10_n02504013_3939.png
subject-04,1,435,0.552779912948608,boat,boat,0.03,0435_nse_s04_0.03_boat_10_n03344393_6577.png
subject-04,1,436,0.544305086135864,boat,boat,0.35,0436_nse_s04_0.35_boat_10_n04273569_12536.png
subject-04,1,437,0.687952995300293,cat,cat,0.03,0437_nse_s04_0.03_cat_10_n02123597_9664.png
subject-04,1,438,0.851912975311279,car,boat,0.60,0438_nse_s04_0.60_boat_10_n04273569_28074.png
subject-04,1,439,1.14774107933044,boat,bear,0.10,0439_nse_s04_0.10_bear_10_n02134418_4349.png
subject-04,1,440,0.979511976242065,cat,boat,0.35,0440_nse_s04_0.35_boat_10_n03662601_5419.png
subject-04,1,441,0.89567494392395,oven,oven,0.20,0441_nse_s04_0.20_oven_10_n04111531_3121.png
subject-04,1,442,0.79539680480957,elephant,elephant,0.05,0442_nse_s04_0.05_elephant_10_n02504013_19753.png
subject-04,1,443,1.07298302650452,bird,bottle,0.35,0443_nse_s04_0.35_bottle_10_n04591713_7121.png
subject-04,1,444,0.770575046539307,truck,truck,0.20,0444_nse_s04_0.20_truck_10_n04467665_72022.png
subject-04,1,445,0.952531099319458,bicycle,airplane,0.90,0445_nse_s04_0.90_airplane_10_n02690373_427.png
subject-04,1,446,0.792718172073364,car,car,0.90,0446_nse_s04_0.90_car_10_n04285008_17052.png
subject-04,1,447,0.73015284538269,truck,truck,0.20,0447_nse_s04_0.20_truck_10_n04467665_40307.png
subject-04,1,448,1.20201420783997,bear,oven,0.35,0448_nse_s04_0.35_oven_10_n04111531_9411.png
subject-04,1,449,0.627710103988647,bear,clock,0.90,0449_nse_s04_0.90_clock_10_n04548280_6287.png
subject-04,1,450,0.935523986816406,bicycle,bicycle,0.20,0450_nse_s04_0.20_bicycle_10_n02835271_9669.png
subject-04,1,451,0.905457019805908,boat,oven,0.20,0451_nse_s04_0.20_oven_10_n04111531_15635.png
subject-04,1,452,1.19124007225037,bear,truck,0.00,0452_nse_s04_0.00_truck_10_n03417042_5105.png
subject-04,1,453,1.04506802558899,truck,truck,0.03,0453_nse_s04_0.03_truck_10_n03417042_12874.png
subject-04,1,454,1.32085204124451,truck,chair,0.20,0454_nse_s04_0.20_chair_10_n02791124_3994.png
subject-04,1,455,0.722795009613037,bear,dog,0.60,0455_nse_s04_0.60_dog_10_n02097658_1923.png
subject-04,1,456,0.764533996582031,truck,oven,0.60,0456_nse_s04_0.60_oven_10_n04111531_9429.png
subject-04,1,457,0.554189920425415,oven,oven,0.05,0457_nse_s04_0.05_oven_10_n04111531_2630.png
subject-04,1,458,0.748080015182495,car,car,0.60,0458_nse_s04_0.60_car_10_n02814533_27588.png
subject-04,1,459,0.647923946380615,airplane,airplane,0.00,0459_nse_s04_0.00_airplane_10_n02690373_1381.png
subject-04,1,460,0.814158916473389,airplane,bird,0.90,0460_nse_s04_0.90_bird_10_n02037110_8826.png
subject-04,1,461,0.785648107528687,bicycle,bicycle,0.20,0461_nse_s04_0.20_bicycle_10_n03792782_15114.png
subject-04,1,462,1.01531195640564,truck,keyboard,0.35,0462_nse_s04_0.35_keyboard_10_n04505470_3425.png
subject-04,1,463,0.995230913162231,car,airplane,0.60,0463_nse_s04_0.60_airplane_10_n02690373_6285.png
subject-04,1,464,0.772970914840698,boat,bird,0.35,0464_nse_s04_0.35_bird_10_n02025239_18436.png
subject-04,1,465,0.812726974487305,car,chair,0.90,0465_nse_s04_0.90_chair_10_n02791124_15383.png
subject-04,1,466,0.844770908355713,boat,bird,0.90,0466_nse_s04_0.90_bird_10_n01843383_4896.png
subject-04,1,467,0.956341028213501,oven,oven,0.00,0467_nse_s04_0.00_oven_10_n04111531_11935.png
subject-04,1,468,1.26627206802368,car,clock,0.35,0468_nse_s04_0.35_clock_10_n03196217_3333.png
subject-04,1,469,1.09016704559326,truck,truck,0.60,0469_nse_s04_0.60_truck_10_n04467665_1840.png
subject-04,1,470,0.985953807830811,car,truck,0.90,0470_nse_s04_0.90_truck_10_n04467665_61522.png
subject-04,1,471,0.61400580406189,elephant,elephant,0.10,0471_nse_s04_0.10_elephant_10_n02504458_2054.png
subject-04,1,472,0.543524980545044,cat,dog,0.03,0472_nse_s04_0.03_dog_10_n02112350_1654.png
subject-04,1,473,0.671499013900757,car,car,0.10,0473_nse_s04_0.10_car_10_n04285008_7249.png
subject-04,1,474,0.675185203552246,bottle,bottle,0.00,0474_nse_s04_0.00_bottle_10_n04557648_10420.png
subject-04,1,475,0.534936189651489,cat,dog,0.05,0475_nse_s04_0.05_dog_10_n02112350_5035.png
subject-04,1,476,1.28884410858154,elephant,bicycle,0.35,0476_nse_s04_0.35_bicycle_10_n03792782_44296.png
subject-04,1,477,0.67864203453064,elephant,elephant,0.00,0477_nse_s04_0.00_elephant_10_n02504013_19694.png
subject-04,1,478,0.766413927078247,cat,bird,0.00,0478_nse_s04_0.00_bird_10_n01817953_1968.png
subject-04,1,479,0.614233016967773,cat,oven,0.00,0479_nse_s04_0.00_oven_10_n04111531_10375.png
subject-04,1,480,0.770089864730835,bird,dog,0.90,0480_nse_s04_0.90_dog_10_n02110806_5609.png
subject-04,1,481,0.923650026321411,truck,keyboard,0.90,0481_nse_s04_0.90_keyboard_10_n04505470_4917.png
subject-04,1,482,0.781578063964844,cat,dog,0.60,0482_nse_s04_0.60_dog_10_n02086646_6407.png
subject-04,1,483,0.901324987411499,dog,dog,0.35,0483_nse_s04_0.35_dog_10_n02107312_5759.png
subject-04,1,484,0.615244150161743,airplane,airplane,0.10,0484_nse_s04_0.10_airplane_10_n02690373_8547.png
subject-04,1,485,0.525128841400146,airplane,airplane,0.00,0485_nse_s04_0.00_airplane_10_n02690373_563.png
subject-04,1,486,0.60877513885498,elephant,elephant,0.00,0486_nse_s04_0.00_elephant_10_n02504013_1647.png
subject-04,1,487,0.754724979400635,car,boat,0.90,0487_nse_s04_0.90_boat_10_n03662601_3913.png
subject-04,1,488,1.08635091781616,car,cat,0.60,0488_nse_s04_0.60_cat_10_n02123159_6596.png
subject-04,1,489,0.990269899368286,oven,keyboard,0.03,0489_nse_s04_0.03_keyboard_10_n04505470_6051.png
subject-04,1,490,0.816130876541138,dog,dog,0.00,0490_nse_s04_0.00_dog_10_n02107683_7021.png
subject-04,1,491,1.45202898979187,dog,knife,0.00,0491_nse_s04_0.00_knife_10_n03041632_62810.png
subject-04,1,492,0.791812896728516,bird,cat,0.05,0492_nse_s04_0.05_cat_10_n02123045_10433.png
subject-04,1,493,0.871648073196411,boat,oven,0.90,0493_nse_s04_0.90_oven_10_n04111531_2054.png
subject-04,1,494,0.719236850738525,elephant,elephant,0.03,0494_nse_s04_0.03_elephant_10_n02504458_10554.png
subject-04,1,495,1.01724100112915,knife,knife,0.05,0495_nse_s04_0.05_knife_10_n03041632_737.png
subject-04,1,496,0.981027841567993,car,bottle,0.35,0496_nse_s04_0.35_bottle_10_n04557648_2954.png
subject-04,1,497,0.640995979309082,bottle,bottle,0.05,0497_nse_s04_0.05_bottle_10_n04557648_9277.png
subject-04,1,498,1.31875109672546,bear,elephant,0.20,0498_nse_s04_0.20_elephant_10_n02504458_2799.png
subject-04,1,499,0.932436943054199,car,boat,0.90,0499_nse_s04_0.90_boat_10_n03662601_20381.png
subject-04,1,500,0.576070070266724,airplane,airplane,0.10,0500_nse_s04_0.10_airplane_10_n02690373_4213.png
subject-04,1,501,0.75002908706665,car,car,0.10,0501_nse_s04_0.10_car_10_n03100240_4071.png
subject-04,1,502,0.841799020767212,truck,boat,0.60,0502_nse_s04_0.60_boat_10_n04273569_7296.png
subject-04,1,503,0.719511032104492,bear,bear,0.03,0503_nse_s04_0.03_bear_10_n02134084_16632.png
subject-04,1,504,0.65151309967041,car,car,0.05,0504_nse_s04_0.05_car_10_n03100240_9149.png
subject-04,1,505,0.781177043914795,boat,truck,0.10,0505_nse_s04_0.10_truck_10_n03417042_5380.png
subject-04,1,506,0.867018938064575,truck,truck,0.00,0506_nse_s04_0.00_truck_10_n03417042_13151.png
subject-04,1,507,0.724876165390015,car,chair,0.35,0507_nse_s04_0.35_chair_10_n04099969_6425.png
subject-04,1,508,0.642675161361694,elephant,elephant,0.60,0508_nse_s04_0.60_elephant_10_n02504013_5876.png
subject-04,1,509,0.580641031265259,truck,truck,0.03,0509_nse_s04_0.03_truck_10_n03796401_26359.png
subject-04,1,510,0.748272895812988,car,elephant,0.90,0510_nse_s04_0.90_elephant_10_n02504458_12555.png
subject-04,1,511,0.790124893188477,chair,oven,0.00,0511_nse_s04_0.00_oven_10_n04111531_11026.png
subject-04,1,512,1.07405304908752,bird,bear,0.05,0512_nse_s04_0.05_bear_10_n02133161_545.png
subject-04,1,513,0.717758893966675,boat,boat,0.05,0513_nse_s04_0.05_boat_10_n02951358_34116.png
subject-04,1,514,1.22341108322144,knife,knife,0.03,0514_nse_s04_0.03_knife_10_n03041632_12651.png
subject-04,1,515,0.691275119781494,cat,cat,0.05,0515_nse_s04_0.05_cat_10_n02123394_7223.png
subject-04,1,516,0.793154001235962,bear,bear,0.10,0516_nse_s04_0.10_bear_10_n02132136_5365.png
subject-04,1,517,0.7570641040802,boat,chair,0.90,0517_nse_s04_0.90_chair_10_n03376595_4142.png
subject-04,1,518,1.07278084754944,clock,knife,0.00,0518_nse_s04_0.00_knife_10_n03041632_19614.png
subject-04,1,519,1.49999809265137,bicycle,oven,0.10,0519_nse_s04_0.10_oven_10_n04111531_7965.png
subject-04,1,520,0.83643102645874,bicycle,car,0.05,0520_nse_s04_0.05_car_10_n04285008_4047.png
subject-04,1,521,0.752350091934204,bottle,bottle,0.03,0521_nse_s04_0.03_bottle_10_n04591713_5518.png
subject-04,1,522,0.638162851333618,truck,truck,0.10,0522_nse_s04_0.10_truck_10_n04467665_68821.png
subject-04,1,523,0.710015058517456,keyboard,keyboard,0.03,0523_nse_s04_0.03_keyboard_10_n04505470_1651.png
subject-04,1,524,0.581605911254883,bird,bird,0.03,0524_nse_s04_0.03_bird_10_n01818515_1617.png
subject-04,1,525,0.559548854827881,clock,clock,0.05,0525_nse_s04_0.05_clock_10_n03196217_8792.png
subject-04,1,526,0.695698976516724,bicycle,bicycle,0.10,0526_nse_s04_0.10_bicycle_10_n03792782_30312.png
subject-04,1,527,0.737379789352417,car,car,0.90,0527_nse_s04_0.90_car_10_n02814533_27929.png
subject-04,1,528,0.498916149139404,keyboard,keyboard,0.20,0528_nse_s04_0.20_keyboard_10_n04505470_5172.png
subject-04,1,529,0.758701086044312,dog,dog,0.10,0529_nse_s04_0.10_dog_10_n02087394_28673.png
subject-04,1,530,0.548624992370605,car,car,0.00,0530_nse_s04_0.00_car_10_n04285008_14349.png
subject-04,1,531,0.826335191726685,boat,knife,0.60,0531_nse_s04_0.60_knife_10_n03041632_13645.png
subject-04,1,532,0.710104942321777,keyboard,keyboard,0.03,0532_nse_s04_0.03_keyboard_10_n03085013_24309.png
subject-04,1,533,0.869970083236694,truck,boat,0.35,0533_nse_s04_0.35_boat_10_n04273569_4418.png
subject-04,1,534,0.905870914459229,chair,chair,0.03,0534_nse_s04_0.03_chair_10_n03376595_5112.png
subject-04,1,535,0.823682069778442,cat,chair,0.60,0535_nse_s04_0.60_chair_10_n02791124_5089.png
subject-04,1,536,0.67947793006897,airplane,airplane,0.00,0536_nse_s04_0.00_airplane_10_n02690373_12505.png
subject-04,1,537,0.679240942001343,bear,bear,0.05,0537_nse_s04_0.05_bear_10_n02133161_547.png
subject-04,1,538,1.05715918540955,cat,cat,0.05,0538_nse_s04_0.05_cat_10_n02125311_34464.png
subject-04,1,539,0.935028791427612,car,boat,0.90,0539_nse_s04_0.90_boat_10_n02951358_34261.png
subject-04,1,540,0.692965030670166,clock,clock,0.10,0540_nse_s04_0.10_clock_10_n02708093_527.png
subject-04,1,541,0.884775161743164,car,car,0.90,0541_nse_s04_0.90_car_10_n03100240_1194.png
subject-04,1,542,0.990634202957153,airplane,boat,0.10,0542_nse_s04_0.10_boat_10_n03662601_3471.png
subject-04,1,543,0.744188070297241,oven,oven,0.03,0543_nse_s04_0.03_oven_10_n04111531_21911.png
subject-04,1,544,0.620340824127197,clock,clock,0.20,0544_nse_s04_0.20_clock_10_n04548280_8649.png
subject-04,1,545,0.613817930221558,boat,bottle,0.35,0545_nse_s04_0.35_bottle_10_n04591713_6138.png
subject-04,1,546,0.905888795852661,elephant,elephant,0.35,0546_nse_s04_0.35_elephant_10_n02504013_20042.png
subject-04,1,547,0.845344066619873,bear,chair,0.90,0547_nse_s04_0.90_chair_10_n04429376_7321.png
subject-04,1,548,0.689173936843872,bottle,bottle,0.05,0548_nse_s04_0.05_bottle_10_n04579145_5289.png
subject-04,1,549,1.22518587112427,car,car,0.00,0549_nse_s04_0.00_car_10_n03100240_4348.png
subject-04,1,550,0.806983947753906,clock,clock,0.05,0550_nse_s04_0.05_clock_10_n02708093_6624.png
subject-04,1,551,1.08899402618408,bird,bottle,0.90,0551_nse_s04_0.90_bottle_10_n04579145_1117.png
subject-04,1,552,0.880492925643921,car,car,0.03,0552_nse_s04_0.03_car_10_n04285008_5559.png
subject-04,1,553,0.712164878845215,bear,dog,0.10,0553_nse_s04_0.10_dog_10_n02108551_26509.png
subject-04,1,554,0.660006046295166,dog,dog,0.20,0554_nse_s04_0.20_dog_10_n02100236_4048.png
subject-04,1,555,0.786039113998413,oven,oven,0.05,0555_nse_s04_0.05_oven_10_n04111531_16583.png
subject-04,1,556,0.689599990844727,bird,bird,0.05,0556_nse_s04_0.05_bird_10_n01820546_3203.png
subject-04,1,557,0.711467027664185,car,car,0.05,0557_nse_s04_0.05_car_10_n03100240_17364.png
subject-04,1,558,0.689433097839355,airplane,airplane,0.20,0558_nse_s04_0.20_airplane_10_n02690373_2024.png
subject-04,1,559,0.895160913467407,boat,boat,0.35,0559_nse_s04_0.35_boat_10_n03662601_16418.png
subject-04,1,560,0.765352964401245,chair,chair,0.10,0560_nse_s04_0.10_chair_10_n04099969_6266.png
subject-04,1,561,0.686079025268555,cat,oven,0.05,0561_nse_s04_0.05_oven_10_n04111531_9314.png
subject-04,1,562,0.657710075378418,airplane,airplane,0.03,0562_nse_s04_0.03_airplane_10_n02690373_7686.png
subject-04,1,563,0.931890964508057,bird,clock,0.03,0563_nse_s04_0.03_clock_10_n02708093_742.png
subject-04,1,564,0.801343202590942,bottle,boat,0.90,0564_nse_s04_0.90_boat_10_n04273569_26577.png
subject-04,1,565,0.765042066574097,bird,airplane,0.90,0565_nse_s04_0.90_airplane_10_n02690373_5328.png
subject-04,1,566,0.95697283744812,cat,bear,0.00,0566_nse_s04_0.00_bear_10_n02134084_12389.png
subject-04,1,567,0.514976024627686,keyboard,keyboard,0.10,0567_nse_s04_0.10_keyboard_10_n03085013_25476.png
subject-04,1,568,1.02457308769226,dog,cat,0.35,0568_nse_s04_0.35_cat_10_n02123597_7615.png
subject-04,1,569,0.602530002593994,bird,bird,0.03,0569_nse_s04_0.03_bird_10_n02025239_19864.png
subject-04,1,570,0.56647801399231,cat,cat,0.00,0570_nse_s04_0.00_cat_10_n02123597_3896.png
subject-04,1,571,0.859978914260864,airplane,airplane,0.20,0571_nse_s04_0.20_airplane_10_n02690373_9423.png
subject-04,1,572,0.798135042190552,car,elephant,0.90,0572_nse_s04_0.90_elephant_10_n02504013_7032.png
subject-04,1,573,1.0575909614563,truck,knife,0.35,0573_nse_s04_0.35_knife_10_n03041632_40508.png
subject-04,1,574,0.813950061798096,boat,bicycle,0.90,0574_nse_s04_0.90_bicycle_10_n02835271_9116.png
subject-04,1,575,0.751292943954468,truck,truck,0.05,0575_nse_s04_0.05_truck_10_n03796401_13349.png
subject-04,1,576,0.723105907440186,chair,chair,0.03,0576_nse_s04_0.03_chair_10_n04099969_37437.png
subject-04,1,577,0.875205039978027,boat,boat,0.60,0577_nse_s04_0.60_boat_10_n03662601_8191.png
subject-04,1,578,1.01463890075684,truck,truck,0.03,0578_nse_s04_0.03_truck_10_n04467665_51949.png
subject-04,1,579,0.95657205581665,knife,knife,0.00,0579_nse_s04_0.00_knife_10_n03041632_52929.png
subject-04,1,580,0.778524875640869,bicycle,boat,0.35,0580_nse_s04_0.35_boat_10_n03344393_4143.png
subject-04,1,581,0.846554040908813,car,car,0.20,0581_nse_s04_0.20_car_10_n02814533_5430.png
subject-04,1,582,0.77198600769043,oven,oven,0.03,0582_nse_s04_0.03_oven_10_n04111531_6415.png
subject-04,1,583,0.833828926086426,keyboard,keyboard,0.00,0583_nse_s04_0.00_keyboard_10_n03085013_23369.png
subject-04,1,584,0.735665082931519,bear,bear,0.03,0584_nse_s04_0.03_bear_10_n02132136_6967.png
subject-04,1,585,0.701289892196655,bottle,bottle,0.03,0585_nse_s04_0.03_bottle_10_n04560804_11426.png
subject-04,1,586,1.1856050491333,airplane,airplane,0.10,0586_nse_s04_0.10_airplane_10_n02690373_5003.png
subject-04,1,587,0.66136908531189,bird,bird,0.00,0587_nse_s04_0.00_bird_10_n01820546_4535.png
subject-04,1,588,0.998982906341553,bird,bird,0.20,0588_nse_s04_0.20_bird_10_n01532829_4692.png
subject-04,1,589,0.85302996635437,boat,boat,0.05,0589_nse_s04_0.05_boat_10_n03344393_7433.png
subject-04,1,590,0.59855580329895,keyboard,keyboard,0.10,0590_nse_s04_0.10_keyboard_10_n04505470_1286.png
subject-04,1,591,0.804225921630859,chair,dog,0.10,0591_nse_s04_0.10_dog_10_n02101006_16132.png
subject-04,1,592,0.720515012741089,car,car,0.35,0592_nse_s04_0.35_car_10_n03100240_319.png
subject-04,1,593,1.0419750213623,oven,bottle,0.90,0593_nse_s04_0.90_bottle_10_n04591713_5279.png
subject-04,1,594,0.893704891204834,chair,bear,0.10,0594_nse_s04_0.10_bear_10_n02134418_1749.png
subject-04,1,595,0.911437034606934,boat,keyboard,0.35,0595_nse_s04_0.35_keyboard_10_n03085013_24578.png
subject-04,1,596,1.16350293159485,truck,dog,0.90,0596_nse_s04_0.90_dog_10_n02105505_6715.png
subject-04,1,597,0.91305685043335,bear,bear,0.60,0597_nse_s04_0.60_bear_10_n02133161_830.png
subject-04,1,598,0.713031053543091,dog,dog,0.20,0598_nse_s04_0.20_dog_10_n02101556_4066.png
subject-04,1,599,0.701111078262329,car,car,0.03,0599_nse_s04_0.03_car_10_n04285008_6278.png
subject-04,1,600,0.774947881698608,bicycle,elephant,0.60,0600_nse_s04_0.60_elephant_10_n02504458_5288.png
subject-04,1,601,0.748190879821777,bicycle,bicycle,0.00,0601_nse_s04_0.00_bicycle_10_n03792782_1472.png
subject-04,1,602,0.850292921066284,car,keyboard,0.60,0602_nse_s04_0.60_keyboard_10_n03085013_22942.png
subject-04,1,603,0.877892017364502,knife,clock,0.20,0603_nse_s04_0.20_clock_10_n02708093_6795.png
subject-04,1,604,0.859867095947266,airplane,airplane,0.05,0604_nse_s04_0.05_airplane_10_n02690373_1751.png
subject-04,1,605,1.01212191581726,cat,dog,0.20,0605_nse_s04_0.20_dog_10_n02110063_4287.png
subject-04,1,606,0.791427850723267,oven,elephant,0.10,0606_nse_s04_0.10_elephant_10_n02504013_2394.png
subject-04,1,607,0.817298889160156,knife,knife,0.20,0607_nse_s04_0.20_knife_10_n03041632_18995.png
subject-04,1,608,1.50017380714417,keyboard,keyboard,0.05,0608_nse_s04_0.05_keyboard_10_n03085013_6857.png
subject-04,1,609,0.728775978088379,airplane,airplane,0.05,0609_nse_s04_0.05_airplane_10_n02690373_1075.png
subject-04,1,610,0.880759954452515,oven,bird,0.60,0610_nse_s04_0.60_bird_10_n01843065_1871.png
subject-04,1,611,1.50006508827209,dog,truck,0.35,0611_nse_s04_0.35_truck_10_n04467665_20923.png
subject-04,1,612,0.874756813049316,knife,airplane,0.35,0612_nse_s04_0.35_airplane_10_n02690373_5724.png
subject-04,1,613,0.798050880432129,car,truck,0.60,0613_nse_s04_0.60_truck_10_n04467665_37833.png
subject-04,1,614,0.72782301902771,truck,truck,0.00,0614_nse_s04_0.00_truck_10_n04467665_39477.png
subject-04,1,615,1.07401895523071,clock,clock,0.35,0615_nse_s04_0.35_clock_10_n04548280_156.png
subject-04,1,616,NaN,na,knife,0.05,0616_nse_s04_0.05_knife_10_n03041632_105581.png
subject-04,1,617,0.76549506187439,cat,dog,0.05,0617_nse_s04_0.05_dog_10_n02098105_146.png
subject-04,1,618,0.619308948516846,elephant,elephant,0.10,0618_nse_s04_0.10_elephant_10_n02504013_1719.png
subject-04,1,619,0.745313882827759,elephant,elephant,0.00,0619_nse_s04_0.00_elephant_10_n02504458_291.png
subject-04,1,620,1.45662307739258,car,car,0.10,0620_nse_s04_0.10_car_10_n02814533_90798.png
subject-04,1,621,0.662631988525391,truck,truck,0.20,0621_nse_s04_0.20_truck_10_n03417042_17916.png
subject-04,1,622,1.10045003890991,boat,dog,0.20,0622_nse_s04_0.20_dog_10_n02102318_7028.png
subject-04,1,623,0.712194204330444,truck,truck,0.00,0623_nse_s04_0.00_truck_10_n04467665_242.png
subject-04,1,624,0.732159852981567,bear,cat,0.60,0624_nse_s04_0.60_cat_10_n02123045_5913.png
subject-04,1,625,0.585999011993408,clock,car,0.90,0625_nse_s04_0.90_car_10_n02814533_93476.png
subject-04,1,626,0.799591064453125,truck,clock,0.20,0626_nse_s04_0.20_clock_10_n03196217_6741.png
subject-04,1,627,0.849443912506104,truck,oven,0.90,0627_nse_s04_0.90_oven_10_n04111531_22466.png
subject-04,1,628,1.01541209220886,truck,clock,0.60,0628_nse_s04_0.60_clock_10_n02708093_1733.png
subject-04,1,629,0.661309003829956,bottle,truck,0.05,0629_nse_s04_0.05_truck_10_n03417042_94.png
subject-04,1,630,0.740910053253174,car,bottle,0.20,0630_nse_s04_0.20_bottle_10_n02823428_13937.png
subject-04,1,631,1.12871384620667,truck,car,0.60,0631_nse_s04_0.60_car_10_n04285008_5078.png
subject-04,1,632,1.38845491409302,cat,bear,0.05,0632_nse_s04_0.05_bear_10_n02134084_473.png
subject-04,1,633,0.556226968765259,airplane,airplane,0.05,0633_nse_s04_0.05_airplane_10_n02690373_2981.png
subject-04,1,634,0.636471033096313,car,car,0.20,0634_nse_s04_0.20_car_10_n04285008_7139.png
subject-04,1,635,0.623987913131714,car,keyboard,0.60,0635_nse_s04_0.60_keyboard_10_n03085013_22417.png
subject-04,1,636,0.575921058654785,bicycle,bicycle,0.00,0636_nse_s04_0.00_bicycle_10_n03792782_13608.png
subject-04,1,637,0.695616006851196,car,boat,0.90,0637_nse_s04_0.90_boat_10_n04612504_7148.png
subject-04,1,638,0.945672988891602,truck,oven,0.60,0638_nse_s04_0.60_oven_10_n04111531_22386.png
subject-04,1,639,0.799067974090576,boat,boat,0.05,0639_nse_s04_0.05_boat_10_n04612504_15898.png
subject-04,1,640,0.70123291015625,bear,bird,0.90,0640_nse_s04_0.90_bird_10_n02018795_5868.png
subject-04,1,641,0.504508972167969,boat,boat,0.03,0641_nse_s04_0.03_boat_10_n03662601_34009.png
subject-04,1,642,0.844300031661987,cat,bird,0.20,0642_nse_s04_0.20_bird_10_n01530575_10119.png
subject-04,1,643,0.62588906288147,chair,chair,0.10,0643_nse_s04_0.10_chair_10_n04099969_8647.png
subject-04,1,644,1.29179501533508,bear,elephant,0.10,0644_nse_s04_0.10_elephant_10_n02504013_5533.png
subject-04,1,645,0.739516019821167,boat,oven,0.35,0645_nse_s04_0.35_oven_10_n04111531_10583.png
subject-04,1,646,0.581418991088867,boat,knife,0.35,0646_nse_s04_0.35_knife_10_n03041632_51581.png
subject-04,1,647,0.763142824172974,bird,chair,0.60,0647_nse_s04_0.60_chair_10_n02791124_1635.png
subject-04,1,648,0.673077821731567,cat,cat,0.60,0648_nse_s04_0.60_cat_10_n02123159_6162.png
subject-04,1,649,0.664870023727417,elephant,oven,0.90,0649_nse_s04_0.90_oven_10_n04111531_5246.png
subject-04,1,650,1.05479097366333,airplane,airplane,0.20,0650_nse_s04_0.20_airplane_10_n02690373_15097.png
subject-04,1,651,0.602482080459595,cat,cat,0.20,0651_nse_s04_0.20_cat_10_n02123597_1750.png
subject-04,1,652,0.928353071212769,bear,bicycle,0.90,0652_nse_s04_0.90_bicycle_10_n03792782_4067.png
subject-04,1,653,1.50014209747314,oven,oven,0.05,0653_nse_s04_0.05_oven_10_n04111531_274.png
subject-04,1,654,0.966174125671387,knife,knife,0.03,0654_nse_s04_0.03_knife_10_n03041632_22480.png
subject-04,1,655,0.609815120697021,bicycle,bicycle,0.10,0655_nse_s04_0.10_bicycle_10_n02835271_8324.png
subject-04,1,656,0.973522901535034,knife,dog,0.05,0656_nse_s04_0.05_dog_10_n02101388_2968.png
subject-04,1,657,0.67127513885498,oven,oven,0.10,0657_nse_s04_0.10_oven_10_n04111531_8009.png
subject-04,1,658,0.877490997314453,car,boat,0.10,0658_nse_s04_0.10_boat_10_n03344393_5207.png
subject-04,1,659,0.679243087768555,chair,chair,0.03,0659_nse_s04_0.03_chair_10_n04429376_33792.png
subject-04,1,660,0.641044855117798,cat,bear,0.90,0660_nse_s04_0.90_bear_10_n02132136_4636.png
subject-04,1,661,0.688440084457397,bottle,bottle,0.10,0661_nse_s04_0.10_bottle_10_n04591713_1978.png
subject-04,1,662,0.840611934661865,knife,bicycle,0.35,0662_nse_s04_0.35_bicycle_10_n02835271_845.png
subject-04,1,663,0.62609601020813,bear,bear,0.90,0663_nse_s04_0.90_bear_10_n02133161_1169.png
subject-04,1,664,0.566035032272339,bear,dog,0.35,0664_nse_s04_0.35_dog_10_n02105855_9326.png
subject-04,1,665,0.584233045578003,bicycle,bicycle,0.05,0665_nse_s04_0.05_bicycle_10_n03792782_13923.png
subject-04,1,666,1.13380217552185,bear,truck,0.60,0666_nse_s04_0.60_truck_10_n04467665_63829.png
subject-04,1,667,1.50015187263489,oven,knife,0.20,0667_nse_s04_0.20_knife_10_n03041632_44269.png
subject-04,1,668,0.843396902084351,cat,dog,0.05,0668_nse_s04_0.05_dog_10_n02096051_1308.png
subject-04,1,669,0.688966989517212,chair,chair,0.03,0669_nse_s04_0.03_chair_10_n02791124_5795.png
subject-04,1,670,1.19294810295105,bear,elephant,0.03,0670_nse_s04_0.03_elephant_10_n02504013_104.png
subject-04,1,671,0.66911792755127,bottle,bottle,0.00,0671_nse_s04_0.00_bottle_10_n03937543_2428.png
subject-04,1,672,0.506487131118774,airplane,airplane,0.05,0672_nse_s04_0.05_airplane_10_n02690373_1161.png
subject-04,1,673,0.714310884475708,clock,bottle,0.90,0673_nse_s04_0.90_bottle_10_n04560804_7375.png
subject-04,1,674,0.544245958328247,cat,cat,0.05,0674_nse_s04_0.05_cat_10_n02125311_5346.png
subject-04,1,675,0.813889026641846,truck,truck,0.05,0675_nse_s04_0.05_truck_10_n03417042_9478.png
subject-04,1,676,0.737771034240723,boat,keyboard,0.20,0676_nse_s04_0.20_keyboard_10_n03085013_20779.png
subject-04,1,677,0.74759316444397,bicycle,oven,0.03,0677_nse_s04_0.03_oven_10_n04111531_164.png
subject-04,1,678,0.633277893066406,elephant,elephant,0.35,0678_nse_s04_0.35_elephant_10_n02504458_4811.png
subject-04,1,679,0.769146919250488,keyboard,keyboard,0.10,0679_nse_s04_0.10_keyboard_10_n04505470_6876.png
subject-04,1,680,0.894935131072998,bicycle,bottle,0.05,0680_nse_s04_0.05_bottle_10_n02823428_6263.png
subject-04,1,681,0.573235034942627,bird,bird,0.20,0681_nse_s04_0.20_bird_10_n01860187_7297.png
subject-04,1,682,1.28706192970276,dog,elephant,0.35,0682_nse_s04_0.35_elephant_10_n02504458_6694.png
subject-04,1,683,0.784900188446045,bear,bottle,0.60,0683_nse_s04_0.60_bottle_10_n04560804_4624.png
subject-04,1,684,0.578227996826172,bicycle,bicycle,0.00,0684_nse_s04_0.00_bicycle_10_n02835271_15038.png
subject-04,1,685,0.55002498626709,boat,airplane,0.60,0685_nse_s04_0.60_airplane_10_n02690373_6674.png
subject-04,1,686,0.691948175430298,cat,cat,0.35,0686_nse_s04_0.35_cat_10_n02123159_6439.png
subject-04,1,687,0.537348985671997,chair,chair,0.05,0687_nse_s04_0.05_chair_10_n04099969_2694.png
subject-04,1,688,0.721560955047607,chair,oven,0.05,0688_nse_s04_0.05_oven_10_n04111531_5792.png
subject-04,1,689,0.661362886428833,car,car,0.20,0689_nse_s04_0.20_car_10_n04285008_5788.png
subject-04,1,690,1.20937490463257,cat,cat,0.35,0690_nse_s04_0.35_cat_10_n02123394_3885.png
subject-04,1,691,1.04884886741638,boat,oven,0.60,0691_nse_s04_0.60_oven_10_n04111531_326.png
subject-04,1,692,0.75655722618103,knife,knife,0.03,0692_nse_s04_0.03_knife_10_n03041632_3504.png
subject-04,1,693,0.666610956192017,clock,airplane,0.90,0693_nse_s04_0.90_airplane_10_n02690373_17011.png
subject-04,1,694,0.676362037658691,keyboard,keyboard,0.60,0694_nse_s04_0.60_keyboard_10_n03085013_23790.png
subject-04,1,695,0.608137845993042,keyboard,keyboard,0.00,0695_nse_s04_0.00_keyboard_10_n04505470_1052.png
subject-04,1,696,1.12002110481262,boat,boat,0.20,0696_nse_s04_0.20_boat_10_n03344393_9106.png
subject-04,1,697,0.606303215026855,cat,cat,0.03,0697_nse_s04_0.03_cat_10_n02123394_9542.png
subject-04,1,698,0.855655908584595,boat,elephant,0.35,0698_nse_s04_0.35_elephant_10_n02504013_6645.png
subject-04,1,699,0.765521049499512,bear,keyboard,0.60,0699_nse_s04_0.60_keyboard_10_n03085013_19374.png
subject-04,1,700,0.573260068893433,keyboard,keyboard,0.05,0700_nse_s04_0.05_keyboard_10_n03085013_5611.png
subject-04,1,701,0.623106956481934,oven,truck,0.00,0701_nse_s04_0.00_truck_10_n03417042_943.png
subject-04,1,702,1.13676691055298,truck,knife,0.90,0702_nse_s04_0.90_knife_10_n03041632_99460.png
subject-04,1,703,0.912600040435791,truck,truck,0.05,0703_nse_s04_0.05_truck_10_n03417042_24856.png
subject-04,1,704,0.576416015625,boat,boat,0.10,0704_nse_s04_0.10_boat_10_n04273569_1012.png
subject-04,1,705,0.728146076202393,bear,bear,0.20,0705_nse_s04_0.20_bear_10_n02134418_289.png
subject-04,1,706,0.686080932617188,knife,knife,0.05,0706_nse_s04_0.05_knife_10_n03041632_19098.png
subject-04,1,707,0.66399884223938,bird,bird,0.20,0707_nse_s04_0.20_bird_10_n02056570_3286.png
subject-04,1,708,1.26380705833435,knife,bird,0.35,0708_nse_s04_0.35_bird_10_n01817953_12511.png
subject-04,1,709,0.891984939575195,dog,cat,0.10,0709_nse_s04_0.10_cat_10_n02125311_33778.png
subject-04,1,710,0.561299085617065,bird,bird,0.00,0710_nse_s04_0.00_bird_10_n02009229_4129.png
subject-04,1,711,0.711425065994263,car,car,0.03,0711_nse_s04_0.03_car_10_n03100240_8683.png
subject-04,1,712,0.714932918548584,truck,truck,0.03,0712_nse_s04_0.03_truck_10_n04467665_67908.png
subject-04,1,713,0.654863119125366,chair,chair,0.20,0713_nse_s04_0.20_chair_10_n03376595_5909.png
subject-04,1,714,0.556711912155151,truck,truck,0.03,0714_nse_s04_0.03_truck_10_n03796401_9207.png
subject-04,1,715,0.934604167938232,elephant,elephant,0.05,0715_nse_s04_0.05_elephant_10_n02504013_5918.png
subject-04,1,716,0.774264097213745,boat,airplane,0.90,0716_nse_s04_0.90_airplane_10_n02690373_1862.png
subject-04,1,717,0.77009916305542,bear,elephant,0.90,0717_nse_s04_0.90_elephant_10_n02504458_12938.png
subject-04,1,718,0.647800922393799,truck,truck,0.35,0718_nse_s04_0.35_truck_10_n03417042_23445.png
subject-04,1,719,0.597551107406616,oven,oven,0.20,0719_nse_s04_0.20_oven_10_n04111531_8330.png
subject-04,1,720,0.803536176681519,cat,cat,0.20,0720_nse_s04_0.20_cat_10_n02123159_4876.png
subject-04,1,721,0.507674932479858,airplane,airplane,0.03,0721_nse_s04_0.03_airplane_10_n02690373_3821.png
subject-04,1,722,1.50015497207642,cat,boat,0.60,0722_nse_s04_0.60_boat_10_n03662601_32391.png
subject-04,1,723,1.49155402183533,cat,elephant,0.90,0723_nse_s04_0.90_elephant_10_n02504458_4139.png
subject-04,1,724,0.523575067520142,clock,clock,0.10,0724_nse_s04_0.10_clock_10_n04548280_9426.png
subject-04,1,725,0.779091119766235,elephant,knife,0.35,0725_nse_s04_0.35_knife_10_n03041632_84012.png
subject-04,1,726,0.601001977920532,elephant,elephant,0.20,0726_nse_s04_0.20_elephant_10_n02504013_7210.png
subject-04,1,727,0.62066388130188,chair,chair,0.10,0727_nse_s04_0.10_chair_10_n04429376_5742.png
subject-04,1,728,0.718597888946533,truck,truck,0.20,0728_nse_s04_0.20_truck_10_n03796401_3191.png
subject-04,1,729,0.94886302947998,knife,bird,0.03,0729_nse_s04_0.03_bird_10_n01843065_4999.png
subject-04,1,730,0.756205081939697,oven,oven,0.00,0730_nse_s04_0.00_oven_10_n04111531_7283.png
subject-04,1,731,1.22796511650085,car,truck,0.60,0731_nse_s04_0.60_truck_10_n03796401_6184.png
subject-04,1,732,1.13194990158081,dog,airplane,0.60,0732_nse_s04_0.60_airplane_10_n02690373_6665.png
subject-04,1,733,1.19755887985229,car,car,0.35,0733_nse_s04_0.35_car_10_n02814533_81455.png
subject-04,1,734,0.851878881454468,truck,bicycle,0.90,0734_nse_s04_0.90_bicycle_10_n03792782_3754.png
subject-04,1,735,0.961326122283936,truck,cat,0.35,0735_nse_s04_0.35_cat_10_n02123045_10834.png
subject-04,1,736,0.737017869949341,bear,cat,0.03,0736_nse_s04_0.03_cat_10_n02123159_8257.png
subject-04,1,737,0.82680606842041,car,car,0.35,0737_nse_s04_0.35_car_10_n04285008_10631.png
subject-04,1,738,0.600725173950195,airplane,airplane,0.03,0738_nse_s04_0.03_airplane_10_n02690373_6755.png
subject-04,1,739,0.696561098098755,airplane,airplane,0.03,0739_nse_s04_0.03_airplane_10_n02690373_10006.png
subject-04,1,740,0.966301918029785,cat,dog,0.60,0740_nse_s04_0.60_dog_10_n02107683_3902.png
subject-04,1,741,0.586545944213867,airplane,airplane,0.35,0741_nse_s04_0.35_airplane_10_n02690373_6491.png
subject-04,1,742,0.862096071243286,elephant,elephant,0.03,0742_nse_s04_0.03_elephant_10_n02504458_7822.png
subject-04,1,743,1.27175688743591,oven,knife,0.10,0743_nse_s04_0.10_knife_10_n03041632_11887.png
subject-04,1,744,1.1835560798645,airplane,boat,0.05,0744_nse_s04_0.05_boat_10_n03662601_33184.png
subject-04,1,745,0.785502195358276,chair,chair,0.35,0745_nse_s04_0.35_chair_10_n04099969_2109.png
subject-04,1,746,0.843194007873535,bird,bird,0.10,0746_nse_s04_0.10_bird_10_n02037110_3949.png
subject-04,1,747,0.64533805847168,chair,boat,0.03,0747_nse_s04_0.03_boat_10_n02951358_512.png
subject-04,1,748,0.531044960021973,chair,chair,0.00,0748_nse_s04_0.00_chair_10_n04099969_8021.png
subject-04,1,749,0.908612966537476,cat,dog,0.03,0749_nse_s04_0.03_dog_10_n02095314_4996.png
subject-04,1,750,0.520586967468262,clock,clock,0.10,0750_nse_s04_0.10_clock_10_n04548280_8668.png
subject-04,1,751,0.904306173324585,bicycle,clock,0.35,0751_nse_s04_0.35_clock_10_n03196217_6163.png
subject-04,1,752,0.870004892349243,boat,cat,0.90,0752_nse_s04_0.90_cat_10_n02125311_5259.png
subject-04,1,753,0.701816082000732,bird,bird,0.05,0753_nse_s04_0.05_bird_10_n02033041_6728.png
subject-04,1,754,0.681734085083008,boat,clock,0.20,0754_nse_s04_0.20_clock_10_n03196217_4486.png
subject-04,1,755,0.689491033554077,oven,chair,0.90,0755_nse_s04_0.90_chair_10_n03376595_3120.png
subject-04,1,756,0.699420928955078,clock,keyboard,0.90,0756_nse_s04_0.90_keyboard_10_n03085013_20590.png
subject-04,1,757,0.695089101791382,car,car,0.03,0757_nse_s04_0.03_car_10_n04285008_7155.png
subject-04,1,758,0.564938068389893,airplane,airplane,0.00,0758_nse_s04_0.00_airplane_10_n02690373_17722.png
subject-04,1,759,0.804842948913574,truck,chair,0.90,0759_nse_s04_0.90_chair_10_n02791124_5411.png
subject-04,1,760,0.758542060852051,truck,truck,0.05,0760_nse_s04_0.05_truck_10_n04467665_3612.png
subject-04,1,761,0.886409997940063,truck,bird,0.90,0761_nse_s04_0.90_bird_10_n01820546_654.png
subject-04,1,762,0.716341972351074,bear,bear,0.05,0762_nse_s04_0.05_bear_10_n02132136_24663.png
subject-04,1,763,0.601902008056641,bear,bear,0.03,0763_nse_s04_0.03_bear_10_n02134418_1081.png
subject-04,1,764,0.558145046234131,airplane,airplane,0.10,0764_nse_s04_0.10_airplane_10_n02690373_6096.png
subject-04,1,765,1.16762590408325,truck,clock,0.90,0765_nse_s04_0.90_clock_10_n04548280_942.png
subject-04,1,766,0.871799945831299,bottle,cat,0.00,0766_nse_s04_0.00_cat_10_n02123394_2482.png
subject-04,1,767,0.649353981018066,boat,airplane,0.60,0767_nse_s04_0.60_airplane_10_n02690373_5197.png
subject-04,1,768,0.66713809967041,truck,truck,0.10,0768_nse_s04_0.10_truck_10_n03417042_2170.png
subject-04,1,769,0.905344009399414,car,dog,0.60,0769_nse_s04_0.60_dog_10_n02113023_6945.png
subject-04,1,770,0.682919025421143,dog,dog,0.10,0770_nse_s04_0.10_dog_10_n02109525_32744.png
subject-04,1,771,1.18655800819397,boat,car,0.60,0771_nse_s04_0.60_car_10_n04285008_6951.png
subject-04,1,772,0.61846399307251,elephant,elephant,0.10,0772_nse_s04_0.10_elephant_10_n02504013_156.png
subject-04,1,773,0.630202054977417,bottle,bottle,0.00,0773_nse_s04_0.00_bottle_10_n04557648_9790.png
subject-04,1,774,0.505983114242554,clock,clock,0.10,0774_nse_s04_0.10_clock_10_n03196217_5441.png
subject-04,1,775,0.803922891616821,bear,cat,0.35,0775_nse_s04_0.35_cat_10_n02123159_3083.png
subject-04,1,776,0.633594989776611,keyboard,keyboard,0.00,0776_nse_s04_0.00_keyboard_10_n04505470_4379.png
subject-04,1,777,0.99764609336853,bottle,chair,0.35,0777_nse_s04_0.35_chair_10_n04429376_8124.png
subject-04,1,778,0.725308895111084,cat,cat,0.60,0778_nse_s04_0.60_cat_10_n02123597_5514.png
subject-04,1,779,0.61295485496521,elephant,elephant,0.20,0779_nse_s04_0.20_elephant_10_n02504013_23628.png
subject-04,1,780,1.05282092094421,car,airplane,0.90,0780_nse_s04_0.90_airplane_10_n02690373_8813.png
subject-04,1,781,0.664839029312134,car,bear,0.90,0781_nse_s04_0.90_bear_10_n02134418_5478.png
subject-04,1,782,0.684431076049805,bicycle,bicycle,0.00,0782_nse_s04_0.00_bicycle_10_n02835271_5056.png
subject-04,1,783,1.27431702613831,bird,bird,0.60,0783_nse_s04_0.60_bird_10_n01530575_10612.png
subject-04,1,784,0.554309844970703,clock,clock,0.20,0784_nse_s04_0.20_clock_10_n03196217_5827.png
subject-04,1,785,0.879847049713135,clock,bicycle,0.60,0785_nse_s04_0.60_bicycle_10_n02835271_12799.png
subject-04,1,786,0.69412899017334,elephant,elephant,0.35,0786_nse_s04_0.35_elephant_10_n02504458_8064.png
subject-04,1,787,0.767570972442627,oven,oven,0.10,0787_nse_s04_0.10_oven_10_n04111531_5218.png
subject-04,1,788,0.589271068572998,cat,cat,0.20,0788_nse_s04_0.20_cat_10_n02123394_5895.png
subject-04,1,789,0.73343300819397,dog,dog,0.10,0789_nse_s04_0.10_dog_10_n02102177_4771.png
subject-04,1,790,1.30511999130249,knife,knife,0.03,0790_nse_s04_0.03_knife_10_n03041632_18141.png
subject-04,1,791,0.596894979476929,bottle,bottle,0.10,0791_nse_s04_0.10_bottle_10_n03983396_10251.png
subject-04,1,792,0.89645791053772,oven,knife,0.35,0792_nse_s04_0.35_knife_10_n03041632_54732.png
subject-04,1,793,1.29047799110413,dog,bear,0.00,0793_nse_s04_0.00_bear_10_n02134418_3284.png
subject-04,1,794,0.80013108253479,airplane,airplane,0.10,0794_nse_s04_0.10_airplane_10_n02690373_3753.png
subject-04,1,795,0.998140096664429,airplane,oven,0.35,0795_nse_s04_0.35_oven_10_n04111531_20493.png
subject-04,1,796,0.703757047653198,truck,truck,0.03,0796_nse_s04_0.03_truck_10_n04467665_2098.png
subject-04,1,797,0.637734889984131,cat,cat,0.10,0797_nse_s04_0.10_cat_10_n02123045_2721.png
subject-04,1,798,0.647533893585205,bicycle,bicycle,0.05,0798_nse_s04_0.05_bicycle_10_n02835271_10271.png
subject-04,1,799,0.777344942092896,truck,truck,0.00,0799_nse_s04_0.00_truck_10_n03796401_27811.png
subject-04,1,800,0.669218063354492,boat,boat,0.20,0800_nse_s04_0.20_boat_10_n04612504_40672.png
subject-04,1,801,0.564075946807861,boat,boat,0.03,0801_nse_s04_0.03_boat_10_n03344393_7109.png
subject-04,1,802,0.553838968276978,bicycle,bicycle,0.00,0802_nse_s04_0.00_bicycle_10_n03792782_7092.png
subject-04,1,803,0.671430110931396,keyboard,keyboard,0.10,0803_nse_s04_0.10_keyboard_10_n04505470_4521.png
subject-04,1,804,0.767349004745483,cat,bear,0.60,0804_nse_s04_0.60_bear_10_n02133161_97.png
subject-04,1,805,0.677273988723755,bottle,knife,0.05,0805_nse_s04_0.05_knife_10_n03041632_86118.png
subject-04,1,806,0.585391998291016,airplane,airplane,0.00,0806_nse_s04_0.00_airplane_10_n02690373_8666.png
subject-04,1,807,0.508800983428955,boat,boat,0.03,0807_nse_s04_0.03_boat_10_n04612504_30424.png
subject-04,1,808,0.552550077438354,airplane,airplane,0.03,0808_nse_s04_0.03_airplane_10_n02690373_1983.png
subject-04,1,809,0.71269702911377,bird,bird,0.00,0809_nse_s04_0.00_bird_10_n02027492_597.png
subject-04,1,810,0.614177942276001,bicycle,bicycle,0.05,0810_nse_s04_0.05_bicycle_10_n02835271_5963.png
subject-04,1,811,0.628112077713013,boat,truck,0.60,0811_nse_s04_0.60_truck_10_n04467665_20933.png
subject-04,1,812,0.751975059509277,cat,bear,0.05,0812_nse_s04_0.05_bear_10_n02132136_17161.png
subject-04,1,813,0.404193878173828,clock,clock,0.10,0813_nse_s04_0.10_clock_10_n03196217_3140.png
subject-04,1,814,0.993752956390381,truck,truck,0.90,0814_nse_s04_0.90_truck_10_n03417042_27988.png
subject-04,1,815,0.747398138046265,bear,bear,0.35,0815_nse_s04_0.35_bear_10_n02133161_5927.png
subject-04,1,816,0.561172008514404,clock,clock,0.00,0816_nse_s04_0.00_clock_10_n04548280_4560.png
subject-04,1,817,0.424976110458374,cat,cat,0.05,0817_nse_s04_0.05_cat_10_n02123394_8172.png
subject-04,1,818,0.556596040725708,airplane,airplane,0.03,0818_nse_s04_0.03_airplane_10_n02690373_10817.png
subject-04,1,819,0.600691080093384,boat,elephant,0.60,0819_nse_s04_0.60_elephant_10_n02504013_5996.png
subject-04,1,820,0.964303016662598,elephant,keyboard,0.90,0820_nse_s04_0.90_keyboard_10_n03085013_20727.png
subject-04,1,821,1.11212801933289,clock,chair,0.00,0821_nse_s04_0.00_chair_10_n04429376_14995.png
subject-04,1,822,0.71211314201355,bottle,bear,0.60,0822_nse_s04_0.60_bear_10_n02134084_33483.png
subject-04,1,823,1.07385492324829,car,bird,0.90,0823_nse_s04_0.90_bird_10_n01828970_11546.png
subject-04,1,824,1.50012493133545,dog,dog,0.90,0824_nse_s04_0.90_dog_10_n02093754_5736.png
subject-04,1,825,0.575990915298462,keyboard,keyboard,0.35,0825_nse_s04_0.35_keyboard_10_n04505470_4724.png
subject-04,1,826,0.629151821136475,boat,chair,0.90,0826_nse_s04_0.90_chair_10_n02791124_8788.png
subject-04,1,827,0.749156951904297,cat,bird,0.20,0827_nse_s04_0.20_bird_10_n01797886_551.png
subject-04,1,828,1.5000958442688,car,oven,0.20,0828_nse_s04_0.20_oven_10_n04111531_6024.png
subject-04,1,829,0.728803873062134,bicycle,bicycle,0.05,0829_nse_s04_0.05_bicycle_10_n02835271_1530.png
subject-04,1,830,0.55273699760437,bear,bear,0.05,0830_nse_s04_0.05_bear_10_n02132136_10412.png
subject-04,1,831,0.688228845596313,boat,airplane,0.35,0831_nse_s04_0.35_airplane_10_n02690373_10079.png
subject-04,1,832,0.560106992721558,boat,boat,0.05,0832_nse_s04_0.05_boat_10_n04273569_15138.png
subject-04,1,833,0.835864067077637,car,clock,0.60,0833_nse_s04_0.60_clock_10_n03196217_3362.png
subject-04,1,834,1.06791114807129,dog,dog,0.05,0834_nse_s04_0.05_dog_10_n02087394_6330.png
subject-04,1,835,0.787566900253296,bottle,bottle,0.20,0835_nse_s04_0.20_bottle_10_n02823428_4165.png
subject-04,1,836,0.6873779296875,dog,dog,0.05,0836_nse_s04_0.05_dog_10_n02086646_4881.png
subject-04,1,837,0.83350682258606,oven,oven,0.10,0837_nse_s04_0.10_oven_10_n04111531_8081.png
subject-04,1,838,0.73894214630127,bottle,boat,0.20,0838_nse_s04_0.20_boat_10_n03344393_11590.png
subject-04,1,839,0.592857122421265,dog,dog,0.03,0839_nse_s04_0.03_dog_10_n02092002_15319.png
subject-04,1,840,0.706592082977295,keyboard,keyboard,0.20,0840_nse_s04_0.20_keyboard_10_n03085013_7605.png
subject-04,1,841,0.796485900878906,oven,truck,0.90,0841_nse_s04_0.90_truck_10_n04467665_37811.png
subject-04,1,842,0.720284938812256,knife,knife,0.10,0842_nse_s04_0.10_knife_10_n03041632_31849.png
subject-04,1,843,0.840435981750488,boat,bicycle,0.60,0843_nse_s04_0.60_bicycle_10_n02835271_4619.png
subject-04,1,844,1.11776804924011,knife,clock,0.00,0844_nse_s04_0.00_clock_10_n04548280_1032.png
subject-04,1,845,0.785842895507812,bear,elephant,0.60,0845_nse_s04_0.60_elephant_10_n02504458_12368.png
subject-04,1,846,0.897461175918579,knife,knife,0.00,0846_nse_s04_0.00_knife_10_n03041632_25512.png
subject-04,1,847,0.627182960510254,boat,boat,0.35,0847_nse_s04_0.35_boat_10_n02951358_10003.png
subject-04,1,848,0.575201988220215,chair,chair,0.05,0848_nse_s04_0.05_chair_10_n04099969_5242.png
subject-04,1,849,0.525054931640625,bicycle,bicycle,0.05,0849_nse_s04_0.05_bicycle_10_n03792782_122.png
subject-04,1,850,0.566770076751709,bird,bird,0.03,0850_nse_s04_0.03_bird_10_n02018207_4180.png
subject-04,1,851,0.514633893966675,cat,cat,0.20,0851_nse_s04_0.20_cat_10_n02123159_1413.png
subject-04,1,852,0.714749097824097,car,bear,0.20,0852_nse_s04_0.20_bear_10_n02134084_22150.png
subject-04,1,853,0.918593883514404,boat,elephant,0.90,0853_nse_s04_0.90_elephant_10_n02504013_22633.png
subject-04,1,854,0.735936880111694,car,elephant,0.90,0854_nse_s04_0.90_elephant_10_n02504458_2419.png
subject-04,1,855,0.513813018798828,boat,airplane,0.60,0855_nse_s04_0.60_airplane_10_n02690373_7115.png
subject-04,1,856,0.716002941131592,car,clock,0.60,0856_nse_s04_0.60_clock_10_n04548280_2404.png
subject-04,1,857,0.641371965408325,keyboard,airplane,0.00,0857_nse_s04_0.00_airplane_10_n02690373_10455.png
subject-04,1,858,0.763566970825195,bird,bird,0.20,0858_nse_s04_0.20_bird_10_n01560419_50.png
subject-04,1,859,0.601003170013428,bird,bird,0.03,0859_nse_s04_0.03_bird_10_n01843065_654.png
subject-04,1,860,0.67278003692627,keyboard,keyboard,0.05,0860_nse_s04_0.05_keyboard_10_n04505470_4592.png
subject-04,1,861,0.668751001358032,bear,bear,0.00,0861_nse_s04_0.00_bear_10_n02133161_16147.png
subject-04,1,862,1.32052111625671,bottle,chair,0.35,0862_nse_s04_0.35_chair_10_n04429376_48722.png
subject-04,1,863,0.978227853775024,dog,dog,0.03,0863_nse_s04_0.03_dog_10_n02098286_6303.png
subject-04,1,864,0.620172023773193,dog,dog,0.00,0864_nse_s04_0.00_dog_10_n02107574_835.png
subject-04,1,865,0.530394077301025,oven,oven,0.35,0865_nse_s04_0.35_oven_10_n04111531_1830.png
subject-04,1,866,0.839663982391357,boat,boat,0.03,0866_nse_s04_0.03_boat_10_n03344393_6892.png
subject-04,1,867,1.06963109970093,dog,clock,0.90,0867_nse_s04_0.90_clock_10_n04548280_3053.png
subject-04,1,868,0.577410936355591,dog,dog,0.03,0868_nse_s04_0.03_dog_10_n02108915_3733.png
subject-04,1,869,0.54131007194519,bicycle,bicycle,0.10,0869_nse_s04_0.10_bicycle_10_n02835271_7594.png
subject-04,1,870,1.05929207801819,chair,knife,0.10,0870_nse_s04_0.10_knife_10_n03041632_90407.png
subject-04,1,871,0.685089111328125,truck,dog,0.90,0871_nse_s04_0.90_dog_10_n02110958_8971.png
subject-04,1,872,0.562464952468872,cat,cat,0.03,0872_nse_s04_0.03_cat_10_n02123597_4948.png
subject-04,1,873,0.596421957015991,dog,dog,0.03,0873_nse_s04_0.03_dog_10_n02107312_3262.png
subject-04,1,874,0.620433807373047,bird,bird,0.10,0874_nse_s04_0.10_bird_10_n01843383_386.png
subject-04,1,875,0.937950134277344,cat,bear,0.35,0875_nse_s04_0.35_bear_10_n02133161_1205.png
subject-04,1,876,0.555907964706421,bird,bird,0.00,0876_nse_s04_0.00_bird_10_n02051845_15350.png
subject-04,1,877,0.891524076461792,bear,dog,0.90,0877_nse_s04_0.90_dog_10_n02109047_6542.png
subject-04,1,878,0.941541910171509,elephant,boat,0.60,0878_nse_s04_0.60_boat_10_n03662601_7585.png
subject-04,1,879,1.0912070274353,bear,elephant,0.60,0879_nse_s04_0.60_elephant_10_n02504458_6835.png
subject-04,1,880,NaN,na,bear,0.60,0880_nse_s04_0.60_bear_10_n02134084_8095.png
subject-04,1,881,0.502538919448853,airplane,airplane,0.20,0881_nse_s04_0.20_airplane_10_n02690373_4201.png
subject-04,1,882,1.07428383827209,car,oven,0.60,0882_nse_s04_0.60_oven_10_n04111531_13391.png
subject-04,1,883,0.616498947143555,truck,truck,0.05,0883_nse_s04_0.05_truck_10_n03417042_6489.png
subject-04,1,884,0.61783504486084,car,car,0.35,0884_nse_s04_0.35_car_10_n03100240_11664.png
subject-04,1,885,0.581753969192505,bicycle,bicycle,0.03,0885_nse_s04_0.03_bicycle_10_n02835271_3135.png
subject-04,1,886,0.653576850891113,truck,truck,0.03,0886_nse_s04_0.03_truck_10_n03796401_6444.png
subject-04,1,887,0.781422853469849,car,chair,0.90,0887_nse_s04_0.90_chair_10_n03376595_4887.png
subject-04,1,888,0.665161848068237,dog,dog,0.20,0888_nse_s04_0.20_dog_10_n02094433_6402.png
subject-04,1,889,1.00481700897217,boat,knife,0.60,0889_nse_s04_0.60_knife_10_n03041632_37618.png
subject-04,1,890,0.94472599029541,chair,boat,0.10,0890_nse_s04_0.10_boat_10_n04612504_19388.png
subject-04,1,891,1.17252087593079,bird,truck,0.20,0891_nse_s04_0.20_truck_10_n03417042_10597.png
subject-04,1,892,0.73431396484375,cat,bear,0.35,0892_nse_s04_0.35_bear_10_n02132136_2760.png
subject-04,1,893,0.634315013885498,airplane,airplane,0.05,0893_nse_s04_0.05_airplane_10_n02690373_932.png
subject-04,1,894,0.628221988677979,keyboard,keyboard,0.05,0894_nse_s04_0.05_keyboard_10_n04505470_1043.png
subject-04,1,895,0.787879943847656,oven,cat,0.90,0895_nse_s04_0.90_cat_10_n02124075_9291.png
subject-04,1,896,0.673938035964966,bottle,bottle,0.03,0896_nse_s04_0.03_bottle_10_n02823428_901.png
subject-04,1,897,0.637896060943604,chair,chair,0.35,0897_nse_s04_0.35_chair_10_n03376595_7515.png
subject-04,1,898,0.465502023696899,cat,cat,0.05,0898_nse_s04_0.05_cat_10_n02123045_5381.png
subject-04,1,899,0.593091011047363,clock,clock,0.03,0899_nse_s04_0.03_clock_10_n02708093_5944.png
subject-04,1,900,0.620920896530151,chair,bottle,0.03,0900_nse_s04_0.03_bottle_10_n03983396_4627.png
subject-04,1,901,0.934786081314087,elephant,elephant,0.20,0901_nse_s04_0.20_elephant_10_n02504013_8522.png
subject-04,1,902,0.946532964706421,chair,chair,0.03,0902_nse_s04_0.03_chair_10_n02791124_7483.png
subject-04,1,903,1.20842909812927,bird,bear,0.20,0903_nse_s04_0.20_bear_10_n02134418_271.png
subject-04,1,904,0.7341628074646,cat,bottle,0.60,0904_nse_s04_0.60_bottle_10_n04579145_2485.png
subject-04,1,905,0.731910228729248,car,bird,0.60,0905_nse_s04_0.60_bird_10_n01817953_12877.png
subject-04,1,906,0.731729984283447,knife,knife,0.03,0906_nse_s04_0.03_knife_10_n03041632_3781.png
subject-04,1,907,0.617919921875,cat,cat,0.20,0907_nse_s04_0.20_cat_10_n02123597_30864.png
subject-04,1,908,0.62742280960083,boat,bottle,0.90,0908_nse_s04_0.90_bottle_10_n04579145_3830.png
subject-04,1,909,0.667258024215698,truck,truck,0.05,0909_nse_s04_0.05_truck_10_n03417042_7187.png
subject-04,1,910,0.573004961013794,bottle,bottle,0.20,0910_nse_s04_0.20_bottle_10_n04560804_21519.png
subject-04,1,911,0.990848064422607,dog,dog,0.60,0911_nse_s04_0.60_dog_10_n02109525_50916.png
subject-04,1,912,0.611075162887573,airplane,airplane,0.35,0912_nse_s04_0.35_airplane_10_n02690373_8524.png
subject-04,1,913,1.2163200378418,boat,boat,0.35,0913_nse_s04_0.35_boat_10_n03344393_10519.png
subject-04,1,914,0.632224082946777,bear,airplane,0.60,0914_nse_s04_0.60_airplane_10_n02690373_9605.png
subject-04,1,915,1.25016522407532,keyboard,keyboard,0.05,0915_nse_s04_0.05_keyboard_10_n03085013_24577.png
subject-04,1,916,1.30815291404724,bear,oven,0.35,0916_nse_s04_0.35_oven_10_n04111531_13625.png
subject-04,1,917,0.790030956268311,dog,cat,0.35,0917_nse_s04_0.35_cat_10_n02123045_8491.png
subject-04,1,918,1.01142883300781,car,car,0.90,0918_nse_s04_0.90_car_10_n03100240_1065.png
subject-04,1,919,0.885748147964478,car,car,0.05,0919_nse_s04_0.05_car_10_n03100240_9000.png
subject-04,1,920,0.641288995742798,car,car,0.35,0920_nse_s04_0.35_car_10_n02814533_4519.png
subject-04,1,921,1.13495898246765,dog,bear,0.20,0921_nse_s04_0.20_bear_10_n02134418_4458.png
subject-04,1,922,0.822764873504639,dog,cat,0.20,0922_nse_s04_0.20_cat_10_n02123045_7167.png
subject-04,1,923,0.694616079330444,knife,knife,0.10,0923_nse_s04_0.10_knife_10_n03041632_29862.png
subject-04,1,924,0.624488115310669,keyboard,keyboard,0.10,0924_nse_s04_0.10_keyboard_10_n04505470_4507.png
subject-04,1,925,0.682301044464111,bear,bottle,0.60,0925_nse_s04_0.60_bottle_10_n04591713_5290.png
subject-04,1,926,0.700360774993896,elephant,truck,0.90,0926_nse_s04_0.90_truck_10_n03796401_1446.png
subject-04,1,927,0.88969898223877,dog,oven,0.20,0927_nse_s04_0.20_oven_10_n04111531_4250.png
subject-04,1,928,0.512058973312378,airplane,airplane,0.05,0928_nse_s04_0.05_airplane_10_n02690373_466.png
subject-04,1,929,0.819458961486816,dog,oven,0.90,0929_nse_s04_0.90_oven_10_n04111531_17995.png
subject-04,1,930,0.94920802116394,bear,bear,0.10,0930_nse_s04_0.10_bear_10_n02132136_282.png
subject-04,1,931,0.86707592010498,elephant,elephant,0.03,0931_nse_s04_0.03_elephant_10_n02504013_2385.png
subject-04,1,932,1.06693983078003,keyboard,keyboard,0.00,0932_nse_s04_0.00_keyboard_10_n04505470_6847.png
subject-04,1,933,1.11513996124268,car,bird,0.60,0933_nse_s04_0.60_bird_10_n01530575_280.png
subject-04,1,934,NaN,na,bicycle,0.20,0934_nse_s04_0.20_bicycle_10_n03792782_50446.png
subject-04,1,935,0.586269855499268,clock,clock,0.20,0935_nse_s04_0.20_clock_10_n02708093_8002.png
subject-04,1,936,0.716248035430908,bicycle,bicycle,0.10,0936_nse_s04_0.10_bicycle_10_n03792782_11921.png
subject-04,1,937,1.2159469127655,clock,knife,0.03,0937_nse_s04_0.03_knife_10_n03041632_21017.png
subject-04,1,938,0.672152996063232,cat,bicycle,0.35,0938_nse_s04_0.35_bicycle_10_n02835271_8798.png
subject-04,1,939,0.815422058105469,bear,bottle,0.60,0939_nse_s04_0.60_bottle_10_n04560804_30885.png
subject-04,1,940,1.04561400413513,oven,oven,0.03,0940_nse_s04_0.03_oven_10_n04111531_10681.png
subject-04,1,941,0.669200897216797,cat,bear,0.35,0941_nse_s04_0.35_bear_10_n02134418_2502.png
subject-04,1,942,0.734893083572388,bear,bear,0.10,0942_nse_s04_0.10_bear_10_n02133161_4060.png
subject-04,1,943,1.15904808044434,car,car,0.90,0943_nse_s04_0.90_car_10_n03100240_18270.png
subject-04,1,944,0.738738059997559,cat,dog,0.03,0944_nse_s04_0.03_dog_10_n02094114_1589.png
subject-04,1,945,0.686354875564575,clock,bottle,0.90,0945_nse_s04_0.90_bottle_10_n02823428_5482.png
subject-04,1,946,0.912231922149658,oven,knife,0.10,0946_nse_s04_0.10_knife_10_n03041632_14774.png
subject-04,1,947,0.774029970169067,car,car,0.10,0947_nse_s04_0.10_car_10_n03100240_1438.png
subject-04,1,948,0.861860990524292,car,truck,0.35,0948_nse_s04_0.35_truck_10_n04467665_450.png
subject-04,1,949,0.627533912658691,car,knife,0.60,0949_nse_s04_0.60_knife_10_n03041632_16826.png
subject-04,1,950,0.911635160446167,airplane,airplane,0.10,0950_nse_s04_0.10_airplane_10_n02690373_2496.png
subject-04,1,951,0.681306123733521,keyboard,bottle,0.20,0951_nse_s04_0.20_bottle_10_n04557648_2075.png
subject-04,1,952,0.74743390083313,bird,bird,0.00,0952_nse_s04_0.00_bird_10_n01795545_11076.png
subject-04,1,953,0.695068120956421,cat,oven,0.90,0953_nse_s04_0.90_oven_10_n04111531_10220.png
subject-04,1,954,1.02680492401123,boat,truck,0.90,0954_nse_s04_0.90_truck_10_n03417042_12908.png
subject-04,1,955,0.678620100021362,boat,bear,0.90,0955_nse_s04_0.90_bear_10_n02133161_8835.png
subject-04,1,956,1.07439303398132,truck,truck,0.05,0956_nse_s04_0.05_truck_10_n03417042_10150.png
subject-04,1,957,0.716150999069214,cat,dog,0.35,0957_nse_s04_0.35_dog_10_n02107142_55162.png
subject-04,1,958,NaN,na,bottle,0.90,0958_nse_s04_0.90_bottle_10_n04557648_907.png
subject-04,1,959,0.593821048736572,oven,oven,0.05,0959_nse_s04_0.05_oven_10_n04111531_16144.png
subject-04,1,960,0.957858800888062,bird,bird,0.03,0960_nse_s04_0.03_bird_10_n01843383_8624.png
subject-04,1,961,0.673064947128296,car,airplane,0.60,0961_nse_s04_0.60_airplane_10_n02690373_9001.png
subject-04,1,962,0.58892297744751,boat,knife,0.90,0962_nse_s04_0.90_knife_10_n03041632_38535.png
subject-04,1,963,0.496693134307861,boat,clock,0.90,0963_nse_s04_0.90_clock_10_n04548280_5189.png
subject-04,1,964,0.624706983566284,airplane,clock,0.10,0964_nse_s04_0.10_clock_10_n04548280_2654.png
subject-04,1,965,0.924359798431396,knife,knife,0.35,0965_nse_s04_0.35_knife_10_n03041632_36390.png
subject-04,1,966,0.662199974060059,car,bird,0.90,0966_nse_s04_0.90_bird_10_n01514859_1951.png
subject-04,1,967,0.697959899902344,oven,clock,0.20,0967_nse_s04_0.20_clock_10_n03196217_445.png
subject-04,1,968,0.73177695274353,cat,airplane,0.60,0968_nse_s04_0.60_airplane_10_n02690373_5729.png
subject-04,1,969,1.50003099441528,bicycle,bicycle,0.03,0969_nse_s04_0.03_bicycle_10_n03792782_1004.png
subject-04,1,970,0.691397190093994,car,car,0.00,0970_nse_s04_0.00_car_10_n03100240_14667.png
subject-04,1,971,0.67142915725708,clock,knife,0.20,0971_nse_s04_0.20_knife_10_n03041632_7448.png
subject-04,1,972,0.664980888366699,boat,boat,0.00,0972_nse_s04_0.00_boat_10_n04273569_11427.png
subject-04,1,973,0.60661506652832,cat,cat,0.00,0973_nse_s04_0.00_cat_10_n02124075_4116.png
subject-04,1,974,0.672898054122925,car,boat,0.60,0974_nse_s04_0.60_boat_10_n03662601_5995.png
subject-04,1,975,0.824356079101562,clock,clock,0.35,0975_nse_s04_0.35_clock_10_n04548280_4113.png
subject-04,1,976,0.780209064483643,bicycle,bicycle,0.03,0976_nse_s04_0.03_bicycle_10_n03792782_12354.png
subject-04,1,977,0.760046005249023,bird,bear,0.20,0977_nse_s04_0.20_bear_10_n02133161_1427.png
subject-04,1,978,0.573797941207886,boat,truck,0.60,0978_nse_s04_0.60_truck_10_n03417042_4876.png
subject-04,1,979,0.56160306930542,bear,bear,0.03,0979_nse_s04_0.03_bear_10_n02134418_2590.png
subject-04,1,980,1.37942504882812,cat,elephant,0.10,0980_nse_s04_0.10_elephant_10_n02504013_7774.png
subject-04,1,981,0.865212917327881,cat,bear,0.00,0981_nse_s04_0.00_bear_10_n02132136_5138.png
subject-04,1,982,1.05734205245972,elephant,cat,0.35,0982_nse_s04_0.35_cat_10_n02123159_3299.png
subject-04,1,983,0.660836935043335,bottle,bottle,0.20,0983_nse_s04_0.20_bottle_10_n04560804_9981.png
subject-04,1,984,1.50005483627319,cat,elephant,0.20,0984_nse_s04_0.20_elephant_10_n02504013_18217.png
subject-04,1,985,0.776659965515137,dog,dog,0.05,0985_nse_s04_0.05_dog_10_n02102480_10015.png
subject-04,1,986,0.560319900512695,cat,cat,0.10,0986_nse_s04_0.10_cat_10_n02124075_15399.png
subject-04,1,987,0.636475086212158,car,car,0.05,0987_nse_s04_0.05_car_10_n02814533_42665.png
subject-04,1,988,0.686058044433594,car,car,0.90,0988_nse_s04_0.90_car_10_n04285008_11714.png
subject-04,1,989,1.50001287460327,knife,oven,0.03,0989_nse_s04_0.03_oven_10_n04111531_9474.png
subject-04,1,990,0.721621990203857,cat,cat,0.03,0990_nse_s04_0.03_cat_10_n02124075_14021.png
subject-04,1,991,0.535341024398804,bicycle,bicycle,0.20,0991_nse_s04_0.20_bicycle_10_n02835271_1075.png
subject-04,1,992,0.861119985580444,elephant,elephant,0.00,0992_nse_s04_0.00_elephant_10_n02504458_8889.png
subject-04,1,993,0.69110894203186,keyboard,keyboard,0.20,0993_nse_s04_0.20_keyboard_10_n04505470_578.png
subject-04,1,994,1.03866195678711,knife,cat,0.05,0994_nse_s04_0.05_cat_10_n02124075_8799.png
subject-04,1,995,0.832728862762451,cat,truck,0.90,0995_nse_s04_0.90_truck_10_n04467665_48953.png
subject-04,1,996,0.786414861679077,cat,cat,0.90,0996_nse_s04_0.90_cat_10_n02124075_6024.png
subject-04,1,997,1.1443018913269,cat,elephant,0.20,0997_nse_s04_0.20_elephant_10_n02504458_975.png
subject-04,1,998,0.682121992111206,truck,truck,0.00,0998_nse_s04_0.00_truck_10_n04467665_3502.png
subject-04,1,999,0.705933094024658,knife,knife,0.03,0999_nse_s04_0.03_knife_10_n03041632_50996.png
subject-04,1,1000,0.647488117218018,bicycle,bicycle,0.03,1000_nse_s04_0.03_bicycle_10_n03792782_17212.png
subject-04,1,1001,0.68971586227417,boat,clock,0.90,1001_nse_s04_0.90_clock_10_n02708093_3114.png
subject-04,1,1002,0.705600023269653,dog,dog,0.00,1002_nse_s04_0.00_dog_10_n02110958_16337.png
subject-04,1,1003,0.725170850753784,truck,truck,0.03,1003_nse_s04_0.03_truck_10_n04467665_74235.png
subject-04,1,1004,0.494879007339478,bicycle,bicycle,0.05,1004_nse_s04_0.05_bicycle_10_n02835271_20177.png
subject-04,1,1005,0.636853933334351,cat,oven,0.20,1005_nse_s04_0.20_oven_10_n04111531_4467.png
subject-04,1,1006,0.43855881690979,clock,clock,0.00,1006_nse_s04_0.00_clock_10_n04548280_4181.png
subject-04,1,1007,0.570467948913574,boat,bird,0.60,1007_nse_s04_0.60_bird_10_n02018207_43958.png
subject-04,1,1008,0.754162073135376,knife,knife,0.03,1008_nse_s04_0.03_knife_10_n03041632_94202.png
subject-04,1,1009,0.733911991119385,dog,dog,0.00,1009_nse_s04_0.00_dog_10_n02098105_5905.png
subject-04,1,1010,0.762128114700317,dog,bottle,0.90,1010_nse_s04_0.90_bottle_10_n04560804_10541.png
subject-04,1,1011,0.833642959594727,bear,bear,0.10,1011_nse_s04_0.10_bear_10_n02133161_2476.png
subject-04,1,1012,0.649477958679199,boat,knife,0.60,1012_nse_s04_0.60_knife_10_n03041632_87380.png
subject-04,1,1013,0.739322900772095,elephant,elephant,0.05,1013_nse_s04_0.05_elephant_10_n02504013_8391.png
subject-04,1,1014,0.547215938568115,boat,keyboard,0.10,1014_nse_s04_0.10_keyboard_10_n03085013_2073.png
subject-04,1,1015,0.535082817077637,oven,car,0.90,1015_nse_s04_0.90_car_10_n02814533_72079.png
subject-04,1,1016,0.898781061172485,chair,chair,0.00,1016_nse_s04_0.00_chair_10_n03376595_11352.png
subject-04,1,1017,1.29288101196289,car,car,0.60,1017_nse_s04_0.60_car_10_n04285008_12501.png
subject-04,1,1018,0.764288902282715,boat,airplane,0.35,1018_nse_s04_0.35_airplane_10_n02690373_2185.png
subject-04,1,1019,0.620110034942627,boat,knife,0.90,1019_nse_s04_0.90_knife_10_n03041632_82878.png
subject-04,1,1020,0.591857194900513,boat,keyboard,0.90,1020_nse_s04_0.90_keyboard_10_n03085013_20330.png
subject-04,1,1021,0.704205989837646,elephant,elephant,0.05,1021_nse_s04_0.05_elephant_10_n02504458_2965.png
subject-04,1,1022,0.927842140197754,chair,chair,0.03,1022_nse_s04_0.03_chair_10_n03376595_8227.png
