subj,Session,trial,rt,object_response,category,condition,imagename
subject-02,1,1,1.00961899757385,clock,clock,0.00,0001_nse_s02_0.00_clock_10_n03196217_6064.png
subject-02,1,2,0.709587097167969,keyboard,bear,0.35,0002_nse_s02_0.35_bear_10_n02134418_2372.png
subject-02,1,3,0.757214069366455,chair,knife,0.03,0003_nse_s02_0.03_knife_10_n03041632_3504.png
subject-02,1,4,0.81725001335144,bottle,bottle,0.00,0004_nse_s02_0.00_bottle_10_n04557648_9790.png
subject-02,1,5,0.805033922195435,cat,truck,0.60,0005_nse_s02_0.60_truck_10_n03417042_4876.png
subject-02,1,6,1.36264896392822,bear,elephant,0.10,0006_nse_s02_0.10_elephant_10_n02504013_7774.png
subject-02,1,7,0.75639796257019,airplane,airplane,0.03,0007_nse_s02_0.03_airplane_10_n02690373_7686.png
subject-02,1,8,0.880709886550903,truck,truck,0.10,0008_nse_s02_0.10_truck_10_n03417042_9559.png
subject-02,1,9,0.936077117919922,bird,bird,0.10,0009_nse_s02_0.10_bird_10_n02006656_5719.png
subject-02,1,10,0.815845012664795,cat,airplane,0.60,0010_nse_s02_0.60_airplane_10_n02690373_3377.png
subject-02,1,11,1.20981311798096,boat,boat,0.10,0011_nse_s02_0.10_boat_10_n04612504_19388.png
subject-02,1,12,0.755635976791382,bottle,bottle,0.00,0012_nse_s02_0.00_bottle_10_n04557648_5627.png
subject-02,1,13,1.02727603912354,keyboard,keyboard,0.10,0013_nse_s02_0.10_keyboard_10_n03085013_9146.png
subject-02,1,14,0.749420881271362,bird,bird,0.35,0014_nse_s02_0.35_bird_10_n02027492_6813.png
subject-02,1,15,1.48101496696472,knife,bird,0.03,0015_nse_s02_0.03_bird_10_n01843065_4999.png
subject-02,1,16,1.50001907348633,airplane,airplane,0.03,0016_nse_s02_0.03_airplane_10_n02690373_10817.png
subject-02,1,17,1.01250600814819,oven,clock,0.60,0017_nse_s02_0.60_clock_10_n03196217_3697.png
subject-02,1,18,0.846814155578613,airplane,oven,0.35,0018_nse_s02_0.35_oven_10_n04111531_2677.png
subject-02,1,19,0.706240177154541,chair,chair,0.00,0019_nse_s02_0.00_chair_10_n03376595_11352.png
subject-02,1,20,0.882130861282349,bicycle,truck,0.00,0020_nse_s02_0.00_truck_10_n03417042_5105.png
subject-02,1,21,1.03816390037537,oven,oven,0.60,0021_nse_s02_0.60_oven_10_n04111531_9915.png
subject-02,1,22,1.08187413215637,chair,bottle,0.35,0022_nse_s02_0.35_bottle_10_n03983396_10174.png
subject-02,1,23,0.725475072860718,clock,boat,0.03,0023_nse_s02_0.03_boat_10_n03344393_8545.png
subject-02,1,24,0.801249027252197,cat,cat,0.05,0024_nse_s02_0.05_cat_10_n02123394_7223.png
subject-02,1,25,0.631569862365723,oven,clock,0.35,0025_nse_s02_0.35_clock_10_n03196217_6672.png
subject-02,1,26,0.762871026992798,clock,airplane,0.90,0026_nse_s02_0.90_airplane_10_n02690373_427.png
subject-02,1,27,0.776888132095337,cat,oven,0.90,0027_nse_s02_0.90_oven_10_n04111531_5246.png
subject-02,1,28,0.994895935058594,bear,bear,0.90,0028_nse_s02_0.90_bear_10_n02134084_12801.png
subject-02,1,29,0.802371978759766,bird,bird,0.10,0029_nse_s02_0.10_bird_10_n01843383_386.png
subject-02,1,30,0.920193910598755,cat,bottle,0.60,0030_nse_s02_0.60_bottle_10_n04579145_2485.png
subject-02,1,31,0.820220947265625,oven,oven,0.90,0031_nse_s02_0.90_oven_10_n04111531_2054.png
subject-02,1,32,0.865884065628052,car,car,0.03,0032_nse_s02_0.03_car_10_n03100240_15979.png
subject-02,1,33,1.069904088974,bird,car,0.90,0033_nse_s02_0.90_car_10_n03100240_18270.png
subject-02,1,34,0.923481941223145,car,truck,0.60,0034_nse_s02_0.60_truck_10_n03796401_6184.png
subject-02,1,35,1.32122492790222,truck,car,0.35,0035_nse_s02_0.35_car_10_n02814533_4519.png
subject-02,1,36,1.27302503585815,keyboard,cat,0.60,0036_nse_s02_0.60_cat_10_n02125311_22037.png
subject-02,1,37,0.902964115142822,elephant,elephant,0.00,0037_nse_s02_0.00_elephant_10_n02504458_291.png
subject-02,1,38,0.664669036865234,chair,chair,0.05,0038_nse_s02_0.05_chair_10_n04099969_2694.png
subject-02,1,39,1.03636908531189,airplane,bear,0.05,0039_nse_s02_0.05_bear_10_n02133161_545.png
subject-02,1,40,1.1602201461792,oven,knife,0.35,0040_nse_s02_0.35_knife_10_n03041632_40508.png
subject-02,1,41,0.868018865585327,truck,car,0.20,0041_nse_s02_0.20_car_10_n02814533_5430.png
subject-02,1,42,0.819952964782715,bird,bird,0.20,0042_nse_s02_0.20_bird_10_n01860187_7297.png
subject-02,1,43,0.795691967010498,bear,bear,0.00,0043_nse_s02_0.00_bear_10_n02134418_3284.png
subject-02,1,44,1.36361312866211,bicycle,dog,0.35,0044_nse_s02_0.35_dog_10_n02107142_55162.png
subject-02,1,45,0.791545152664185,car,car,0.20,0045_nse_s02_0.20_car_10_n02814533_7028.png
subject-02,1,46,0.69566798210144,bottle,bottle,0.00,0046_nse_s02_0.00_bottle_10_n04591713_2808.png
subject-02,1,47,0.68346095085144,cat,cat,0.00,0047_nse_s02_0.00_cat_10_n02123394_7105.png
subject-02,1,48,0.822940826416016,bird,knife,0.35,0048_nse_s02_0.35_knife_10_n03041632_36390.png
subject-02,1,49,0.630611896514893,chair,chair,0.20,0049_nse_s02_0.20_chair_10_n04099969_8604.png
subject-02,1,50,1.31641387939453,car,car,0.90,0050_nse_s02_0.90_car_10_n02814533_93476.png
subject-02,1,51,0.666200160980225,oven,oven,0.00,0051_nse_s02_0.00_oven_10_n04111531_10358.png
subject-02,1,52,0.928065061569214,car,car,0.20,0052_nse_s02_0.20_car_10_n02814533_211.png
subject-02,1,53,0.967763900756836,car,car,0.03,0053_nse_s02_0.03_car_10_n02814533_88986.png
subject-02,1,54,1.23214387893677,car,chair,0.90,0054_nse_s02_0.90_chair_10_n02791124_8788.png
subject-02,1,55,1.36956715583801,car,elephant,0.35,0055_nse_s02_0.35_elephant_10_n02504458_1041.png
subject-02,1,56,1.33341598510742,cat,cat,0.20,0056_nse_s02_0.20_cat_10_n02123394_5895.png
subject-02,1,57,1.15098404884338,airplane,airplane,0.10,0057_nse_s02_0.10_airplane_10_n02690373_2496.png
subject-02,1,58,0.73088812828064,bird,bird,0.03,0058_nse_s02_0.03_bird_10_n02025239_19864.png
subject-02,1,59,0.769000053405762,airplane,airplane,0.10,0059_nse_s02_0.10_airplane_10_n02690373_3753.png
subject-02,1,60,0.788478136062622,chair,chair,0.03,0060_nse_s02_0.03_chair_10_n02791124_5795.png
subject-02,1,61,1.28827500343323,bicycle,bicycle,0.00,0061_nse_s02_0.00_bicycle_10_n02835271_8617.png
subject-02,1,62,0.840273857116699,bird,bicycle,0.35,0062_nse_s02_0.35_bicycle_10_n03792782_44296.png
subject-02,1,63,0.963942050933838,cat,boat,0.60,0063_nse_s02_0.60_boat_10_n03662601_5995.png
subject-02,1,64,0.915909051895142,car,chair,0.90,0064_nse_s02_0.90_chair_10_n02791124_3186.png
subject-02,1,65,1.16972017288208,bird,keyboard,0.60,0065_nse_s02_0.60_keyboard_10_n03085013_22942.png
subject-02,1,66,1.08137488365173,car,elephant,0.60,0066_nse_s02_0.60_elephant_10_n02504458_4776.png
subject-02,1,67,0.897241830825806,bicycle,bicycle,0.00,0067_nse_s02_0.00_bicycle_10_n02835271_5056.png
subject-02,1,68,1.1214120388031,bear,elephant,0.90,0068_nse_s02_0.90_elephant_10_n02504013_1255.png
subject-02,1,69,0.758821964263916,bicycle,bicycle,0.10,0069_nse_s02_0.10_bicycle_10_n03792782_37212.png
subject-02,1,70,0.990792989730835,car,car,0.00,0070_nse_s02_0.00_car_10_n03100240_4348.png
subject-02,1,71,0.996485948562622,elephant,bear,0.60,0071_nse_s02_0.60_bear_10_n02134418_3570.png
subject-02,1,72,1.0881769657135,truck,keyboard,0.35,0072_nse_s02_0.35_keyboard_10_n04505470_2141.png
subject-02,1,73,0.994067907333374,car,clock,0.35,0073_nse_s02_0.35_clock_10_n04548280_4113.png
subject-02,1,74,1.17793297767639,truck,keyboard,0.00,0074_nse_s02_0.00_keyboard_10_n04505470_1052.png
subject-02,1,75,1.0336549282074,bear,bear,0.20,0075_nse_s02_0.20_bear_10_n02134418_271.png
subject-02,1,76,0.857501029968262,car,oven,0.60,0076_nse_s02_0.60_oven_10_n04111531_326.png
subject-02,1,77,0.919281959533691,bear,bear,0.03,0077_nse_s02_0.03_bear_10_n02134418_1081.png
subject-02,1,78,1.2913019657135,bird,bear,0.00,0078_nse_s02_0.00_bear_10_n02132136_25897.png
subject-02,1,79,1.14891409873962,bear,knife,0.60,0079_nse_s02_0.60_knife_10_n03041632_37618.png
subject-02,1,80,0.606637001037598,chair,chair,0.00,0080_nse_s02_0.00_chair_10_n04099969_6395.png
subject-02,1,81,0.749835014343262,bear,bear,0.10,0081_nse_s02_0.10_bear_10_n02133161_2476.png
subject-02,1,82,1.15774989128113,car,clock,0.90,0082_nse_s02_0.90_clock_10_n04548280_5189.png
subject-02,1,83,0.931580781936646,bear,bear,0.90,0083_nse_s02_0.90_bear_10_n02134418_4893.png
subject-02,1,84,0.57542896270752,chair,chair,0.20,0084_nse_s02_0.20_chair_10_n03376595_9900.png
subject-02,1,85,0.981142044067383,bear,cat,0.60,0085_nse_s02_0.60_cat_10_n02123159_7949.png
subject-02,1,86,0.627068042755127,cat,cat,0.35,0086_nse_s02_0.35_cat_10_n02123045_8491.png
subject-02,1,87,0.748815774917603,boat,boat,0.10,0087_nse_s02_0.10_boat_10_n03344393_5207.png
subject-02,1,88,0.942456007003784,car,car,0.35,0088_nse_s02_0.35_car_10_n03100240_11664.png
subject-02,1,89,0.690415859222412,clock,clock,0.00,0089_nse_s02_0.00_clock_10_n02708093_3702.png
subject-02,1,90,1.3061408996582,boat,boat,0.35,0090_nse_s02_0.35_boat_10_n03344393_10519.png
subject-02,1,91,0.518043994903564,cat,cat,0.05,0091_nse_s02_0.05_cat_10_n02123394_8172.png
subject-02,1,92,0.729773044586182,car,truck,0.35,0092_nse_s02_0.35_truck_10_n04467665_47602.png
subject-02,1,93,0.681793928146362,boat,boat,0.60,0093_nse_s02_0.60_boat_10_n03662601_8191.png
subject-02,1,94,0.663906097412109,bicycle,bicycle,0.10,0094_nse_s02_0.10_bicycle_10_n03792782_9004.png
subject-02,1,95,0.701441049575806,car,chair,0.60,0095_nse_s02_0.60_chair_10_n03376595_8995.png
subject-02,1,96,1.50000905990601,cat,chair,0.90,0096_nse_s02_0.90_chair_10_n02791124_5411.png
subject-02,1,97,0.827334880828857,cat,boat,0.90,0097_nse_s02_0.90_boat_10_n04273569_18898.png
subject-02,1,98,0.7150559425354,boat,airplane,0.90,0098_nse_s02_0.90_airplane_10_n02690373_17011.png
subject-02,1,99,1.13458108901978,car,knife,0.20,0099_nse_s02_0.20_knife_10_n03041632_29355.png
subject-02,1,100,0.956195116043091,airplane,knife,0.60,0100_nse_s02_0.60_knife_10_n03041632_48816.png
subject-02,1,101,0.750200033187866,truck,truck,0.20,0101_nse_s02_0.20_truck_10_n04467665_72022.png
subject-02,1,102,1.0598669052124,truck,airplane,0.60,0102_nse_s02_0.60_airplane_10_n02690373_9605.png
subject-02,1,103,0.643619060516357,chair,chair,0.05,0103_nse_s02_0.05_chair_10_n02791124_7142.png
subject-02,1,104,0.983541965484619,bicycle,boat,0.20,0104_nse_s02_0.20_boat_10_n03662601_35225.png
subject-02,1,105,0.69347882270813,boat,boat,0.90,0105_nse_s02_0.90_boat_10_n04273569_16078.png
subject-02,1,106,0.743355989456177,truck,truck,0.03,0106_nse_s02_0.03_truck_10_n03417042_12874.png
subject-02,1,107,0.717148065567017,chair,oven,0.20,0107_nse_s02_0.20_oven_10_n04111531_3121.png
subject-02,1,108,0.862873077392578,airplane,airplane,0.00,0108_nse_s02_0.00_airplane_10_n02690373_12505.png
subject-02,1,109,0.642643928527832,cat,cat,0.00,0109_nse_s02_0.00_cat_10_n02124075_9591.png
subject-02,1,110,0.882511138916016,chair,oven,0.03,0110_nse_s02_0.03_oven_10_n04111531_7449.png
subject-02,1,111,0.980236053466797,truck,chair,0.35,0111_nse_s02_0.35_chair_10_n04429376_4341.png
subject-02,1,112,0.804000854492188,bear,bear,0.20,0112_nse_s02_0.20_bear_10_n02133161_7184.png
subject-02,1,113,1.08997583389282,chair,boat,0.03,0113_nse_s02_0.03_boat_10_n02951358_512.png
subject-02,1,114,1.16180491447449,dog,oven,0.05,0114_nse_s02_0.05_oven_10_n04111531_7741.png
subject-02,1,115,1.21962404251099,cat,bicycle,0.90,0115_nse_s02_0.90_bicycle_10_n02835271_9116.png
subject-02,1,116,0.905317068099976,car,car,0.90,0116_nse_s02_0.90_car_10_n04285008_550.png
subject-02,1,117,0.769134044647217,chair,keyboard,0.35,0117_nse_s02_0.35_keyboard_10_n03085013_19607.png
subject-02,1,118,0.770947933197021,keyboard,keyboard,0.00,0118_nse_s02_0.00_keyboard_10_n04505470_3864.png
subject-02,1,119,1.06675791740417,bicycle,bicycle,0.03,0119_nse_s02_0.03_bicycle_10_n03792782_2649.png
subject-02,1,120,1.02862811088562,bear,truck,0.90,0120_nse_s02_0.90_truck_10_n04467665_37009.png
subject-02,1,121,1.23061990737915,knife,knife,0.03,0121_nse_s02_0.03_knife_10_n03041632_94202.png
subject-02,1,122,0.750292062759399,chair,chair,0.10,0122_nse_s02_0.10_chair_10_n04099969_8647.png
subject-02,1,123,0.458003997802734,cat,cat,0.10,0123_nse_s02_0.10_cat_10_n02124075_12815.png
subject-02,1,124,0.963735103607178,dog,bird,0.60,0124_nse_s02_0.60_bird_10_n02018207_43958.png
subject-02,1,125,0.969990968704224,bicycle,bicycle,0.20,0125_nse_s02_0.20_bicycle_10_n03792782_29108.png
subject-02,1,126,0.771397113800049,bear,bear,0.05,0126_nse_s02_0.05_bear_10_n02132136_24663.png
subject-02,1,127,0.831336975097656,cat,bird,0.90,0127_nse_s02_0.90_bird_10_n02037110_8826.png
subject-02,1,128,0.953044891357422,bird,bird,0.03,0128_nse_s02_0.03_bird_10_n01843383_8624.png
subject-02,1,129,0.700961112976074,bear,cat,0.03,0129_nse_s02_0.03_cat_10_n02125311_1736.png
subject-02,1,130,1.11074090003967,bicycle,chair,0.35,0130_nse_s02_0.35_chair_10_n02791124_13469.png
subject-02,1,131,1.03845500946045,dog,keyboard,0.90,0131_nse_s02_0.90_keyboard_10_n04505470_1479.png
subject-02,1,132,1.35251092910767,car,bear,0.20,0132_nse_s02_0.20_bear_10_n02134084_22150.png
subject-02,1,133,1.14816403388977,dog,clock,0.90,0133_nse_s02_0.90_clock_10_n04548280_3053.png
subject-02,1,134,0.674240112304688,clock,clock,0.10,0134_nse_s02_0.10_clock_10_n03196217_5441.png
subject-02,1,135,0.761899948120117,dog,dog,0.20,0135_nse_s02_0.20_dog_10_n02100236_4048.png
subject-02,1,136,0.849447965621948,bird,truck,0.90,0136_nse_s02_0.90_truck_10_n04467665_48953.png
subject-02,1,137,0.939383029937744,bird,knife,0.35,0137_nse_s02_0.35_knife_10_n03041632_2153.png
subject-02,1,138,0.883177995681763,car,oven,0.10,0138_nse_s02_0.10_oven_10_n04111531_7965.png
subject-02,1,139,0.6510009765625,oven,oven,0.00,0139_nse_s02_0.00_oven_10_n04111531_11935.png
subject-02,1,140,0.998775005340576,elephant,elephant,0.05,0140_nse_s02_0.05_elephant_10_n02504013_9144.png
subject-02,1,141,0.926609039306641,cat,oven,0.05,0141_nse_s02_0.05_oven_10_n04111531_274.png
subject-02,1,142,0.666485071182251,bicycle,bicycle,0.20,0142_nse_s02_0.20_bicycle_10_n03792782_15114.png
subject-02,1,143,0.710117101669312,oven,truck,0.00,0143_nse_s02_0.00_truck_10_n03417042_943.png
subject-02,1,144,0.986120939254761,oven,oven,0.00,0144_nse_s02_0.00_oven_10_n04111531_11026.png
subject-02,1,145,0.575746059417725,oven,oven,0.35,0145_nse_s02_0.35_oven_10_n04111531_1830.png
subject-02,1,146,0.595668077468872,bicycle,bicycle,0.03,0146_nse_s02_0.03_bicycle_10_n03792782_42626.png
subject-02,1,147,0.889522075653076,dog,cat,0.05,0147_nse_s02_0.05_cat_10_n02123045_10433.png
subject-02,1,148,0.65931510925293,clock,clock,0.00,0148_nse_s02_0.00_clock_10_n02708093_2588.png
subject-02,1,149,0.719237089157104,bird,bird,0.60,0149_nse_s02_0.60_bird_10_n01828970_454.png
subject-02,1,150,0.684999942779541,clock,clock,0.10,0150_nse_s02_0.10_clock_10_n04548280_7839.png
subject-02,1,151,0.782856225967407,cat,cat,0.10,0151_nse_s02_0.10_cat_10_n02124075_7240.png
subject-02,1,152,1.3126699924469,dog,bottle,0.35,0152_nse_s02_0.35_bottle_10_n04557648_2954.png
subject-02,1,153,1.19047594070435,keyboard,keyboard,0.05,0153_nse_s02_0.05_keyboard_10_n03085013_24577.png
subject-02,1,154,1.20427298545837,bear,bottle,0.90,0154_nse_s02_0.90_bottle_10_n02823428_5482.png
subject-02,1,155,0.948031902313232,bear,boat,0.90,0155_nse_s02_0.90_boat_10_n02951358_34261.png
subject-02,1,156,0.695939064025879,bottle,bottle,0.00,0156_nse_s02_0.00_bottle_10_n04591713_5476.png
subject-02,1,157,1.11599588394165,bear,car,0.60,0157_nse_s02_0.60_car_10_n02814533_39597.png
subject-02,1,158,0.893573045730591,chair,bottle,0.05,0158_nse_s02_0.05_bottle_10_n02823428_6263.png
subject-02,1,159,0.805305004119873,bird,bear,0.60,0159_nse_s02_0.60_bear_10_n02134084_8095.png
subject-02,1,160,0.716969013214111,dog,dog,0.20,0160_nse_s02_0.20_dog_10_n02110063_4287.png
subject-02,1,161,1.04797291755676,dog,oven,0.90,0161_nse_s02_0.90_oven_10_n04111531_6489.png
subject-02,1,162,0.895469188690186,bird,bird,0.00,0162_nse_s02_0.00_bird_10_n01817953_1968.png
subject-02,1,163,0.787815093994141,bird,bear,0.60,0163_nse_s02_0.60_bear_10_n02133161_4882.png
subject-02,1,164,0.793328046798706,bird,clock,0.90,0164_nse_s02_0.90_clock_10_n02708093_3114.png
subject-02,1,165,0.625004053115845,chair,chair,0.60,0165_nse_s02_0.60_chair_10_n04099969_33329.png
subject-02,1,166,0.634955883026123,keyboard,keyboard,0.20,0166_nse_s02_0.20_keyboard_10_n04505470_5172.png
subject-02,1,167,0.694921016693115,chair,knife,0.00,0167_nse_s02_0.00_knife_10_n03041632_34769.png
subject-02,1,168,0.590553045272827,chair,chair,0.00,0168_nse_s02_0.00_chair_10_n03376595_9139.png
subject-02,1,169,1.03870296478271,bird,bottle,0.90,0169_nse_s02_0.90_bottle_10_n04591713_2014.png
subject-02,1,170,0.824488878250122,bear,bird,0.90,0170_nse_s02_0.90_bird_10_n02028035_889.png
subject-02,1,171,1.02188491821289,cat,elephant,0.60,0171_nse_s02_0.60_elephant_10_n02504458_4824.png
subject-02,1,172,0.697662115097046,airplane,airplane,0.20,0172_nse_s02_0.20_airplane_10_n02690373_10423.png
subject-02,1,173,0.781496047973633,car,truck,0.60,0173_nse_s02_0.60_truck_10_n04467665_63829.png
subject-02,1,174,0.839737892150879,knife,knife,0.10,0174_nse_s02_0.10_knife_10_n03041632_14774.png
subject-02,1,175,0.703092098236084,cat,cat,0.60,0175_nse_s02_0.60_cat_10_n02123159_6596.png
subject-02,1,176,0.771414995193481,boat,boat,0.00,0176_nse_s02_0.00_boat_10_n04612504_20067.png
subject-02,1,177,0.710986137390137,cat,knife,0.60,0177_nse_s02_0.60_knife_10_n03041632_14766.png
subject-02,1,178,0.810637950897217,dog,dog,0.20,0178_nse_s02_0.20_dog_10_n02110185_10879.png
subject-02,1,179,0.854470014572144,airplane,airplane,0.20,0179_nse_s02_0.20_airplane_10_n02690373_1441.png
subject-02,1,180,0.53033709526062,cat,cat,0.00,0180_nse_s02_0.00_cat_10_n02124075_4116.png
subject-02,1,181,0.520239114761353,cat,dog,0.20,0181_nse_s02_0.20_dog_10_n02113799_3680.png
subject-02,1,182,0.855954885482788,knife,bird,0.60,0182_nse_s02_0.60_bird_10_n01843065_1871.png
subject-02,1,183,0.846123933792114,dog,bear,0.10,0183_nse_s02_0.10_bear_10_n02133161_4060.png
subject-02,1,184,0.77159595489502,bird,bird,0.20,0184_nse_s02_0.20_bird_10_n01532829_4692.png
subject-02,1,185,0.903358936309814,bear,car,0.90,0185_nse_s02_0.90_car_10_n02814533_27929.png
subject-02,1,186,0.751000881195068,airplane,airplane,0.03,0186_nse_s02_0.03_airplane_10_n02690373_5845.png
subject-02,1,187,0.862926006317139,keyboard,keyboard,0.20,0187_nse_s02_0.20_keyboard_10_n03085013_22597.png
subject-02,1,188,1.29664206504822,airplane,oven,0.10,0188_nse_s02_0.10_oven_10_n04111531_9831.png
subject-02,1,189,0.786668062210083,bicycle,bicycle,0.00,0189_nse_s02_0.00_bicycle_10_n02835271_9297.png
subject-02,1,190,1.33674097061157,car,airplane,0.60,0190_nse_s02_0.60_airplane_10_n02690373_7115.png
subject-02,1,191,0.686290979385376,clock,clock,0.10,0191_nse_s02_0.10_clock_10_n03196217_3140.png
subject-02,1,192,0.877995014190674,elephant,knife,0.60,0192_nse_s02_0.60_knife_10_n03041632_87380.png
subject-02,1,193,0.609760999679565,bird,bird,0.00,0193_nse_s02_0.00_bird_10_n02009912_31837.png
subject-02,1,194,0.787758111953735,elephant,elephant,0.00,0194_nse_s02_0.00_elephant_10_n02504458_8889.png
subject-02,1,195,0.793581008911133,truck,truck,0.10,0195_nse_s02_0.10_truck_10_n03796401_21198.png
subject-02,1,196,0.545169115066528,chair,chair,0.03,0196_nse_s02_0.03_chair_10_n04099969_37437.png
subject-02,1,197,0.761099100112915,car,car,0.03,0197_nse_s02_0.03_car_10_n04285008_5559.png
subject-02,1,198,1.03084111213684,bear,bicycle,0.60,0198_nse_s02_0.60_bicycle_10_n02835271_12799.png
subject-02,1,199,0.894723176956177,truck,truck,0.20,0199_nse_s02_0.20_truck_10_n03417042_4994.png
subject-02,1,200,0.744517087936401,chair,chair,0.05,0200_nse_s02_0.05_chair_10_n04429376_14729.png
subject-02,1,201,0.792162895202637,truck,truck,0.05,0201_nse_s02_0.05_truck_10_n03417042_6489.png
subject-02,1,202,0.722063064575195,car,car,0.00,0202_nse_s02_0.00_car_10_n02814533_72473.png
subject-02,1,203,1.17214703559875,dog,dog,0.90,0203_nse_s02_0.90_dog_10_n02109525_13812.png
subject-02,1,204,1.07383394241333,airplane,clock,0.20,0204_nse_s02_0.20_clock_10_n03196217_4486.png
subject-02,1,205,1.18745708465576,bear,dog,0.60,0205_nse_s02_0.60_dog_10_n02113023_6945.png
subject-02,1,206,0.879409074783325,elephant,bicycle,0.90,0206_nse_s02_0.90_bicycle_10_n03792782_4067.png
subject-02,1,207,0.649086952209473,chair,chair,0.03,0207_nse_s02_0.03_chair_10_n04429376_33792.png
subject-02,1,208,0.965307950973511,truck,car,0.35,0208_nse_s02_0.35_car_10_n02814533_81455.png
subject-02,1,209,0.656856060028076,bottle,bottle,0.03,0209_nse_s02_0.03_bottle_10_n04560804_11426.png
subject-02,1,210,1.26257801055908,elephant,dog,0.90,0210_nse_s02_0.90_dog_10_n02095570_9488.png
subject-02,1,211,1.35436701774597,bear,airplane,0.60,0211_nse_s02_0.60_airplane_10_n02690373_5729.png
subject-02,1,212,1.14015913009644,bear,dog,0.90,0212_nse_s02_0.90_dog_10_n02109047_6542.png
subject-02,1,213,0.818169116973877,car,car,0.00,0213_nse_s02_0.00_car_10_n03100240_11400.png
subject-02,1,214,0.640024900436401,bottle,bottle,0.10,0214_nse_s02_0.10_bottle_10_n04591713_1978.png
subject-02,1,215,0.629513025283813,knife,knife,0.03,0215_nse_s02_0.03_knife_10_n03041632_29580.png
subject-02,1,216,0.687557935714722,car,car,0.00,0216_nse_s02_0.00_car_10_n04285008_14349.png
subject-02,1,217,0.749488830566406,elephant,cat,0.60,0217_nse_s02_0.60_cat_10_n02125311_3616.png
subject-02,1,218,0.771071910858154,clock,clock,0.03,0218_nse_s02_0.03_clock_10_n03196217_3007.png
subject-02,1,219,0.831066846847534,car,clock,0.00,0219_nse_s02_0.00_clock_10_n04548280_4181.png
subject-02,1,220,0.68673300743103,chair,chair,0.03,0220_nse_s02_0.03_chair_10_n03376595_5112.png
subject-02,1,221,0.660425186157227,bear,bear,0.00,0221_nse_s02_0.00_bear_10_n02133161_16147.png
subject-02,1,222,1.08267402648926,knife,knife,0.60,0222_nse_s02_0.60_knife_10_n03041632_13645.png
subject-02,1,223,1.23247194290161,elephant,elephant,0.10,0223_nse_s02_0.10_elephant_10_n02504013_7553.png
subject-02,1,224,0.76829981803894,bear,chair,0.90,0224_nse_s02_0.90_chair_10_n03376595_4887.png
subject-02,1,225,0.881694078445435,elephant,elephant,0.10,0225_nse_s02_0.10_elephant_10_n02504458_2054.png
subject-02,1,226,NaN,na,knife,0.35,0226_nse_s02_0.35_knife_10_n03041632_84012.png
subject-02,1,227,0.855586051940918,knife,knife,0.00,0227_nse_s02_0.00_knife_10_n03041632_1607.png
subject-02,1,228,0.773154020309448,elephant,airplane,0.60,0228_nse_s02_0.60_airplane_10_n02690373_9001.png
subject-02,1,229,1.50014996528625,elephant,chair,0.60,0229_nse_s02_0.60_chair_10_n02791124_5089.png
subject-02,1,230,0.696797132492065,car,boat,0.20,0230_nse_s02_0.20_boat_10_n03662601_11739.png
subject-02,1,231,0.880546092987061,bear,bottle,0.35,0231_nse_s02_0.35_bottle_10_n04591713_6138.png
subject-02,1,232,1.33646416664124,dog,bicycle,0.60,0232_nse_s02_0.60_bicycle_10_n02835271_5821.png
subject-02,1,233,0.762221097946167,car,truck,0.10,0233_nse_s02_0.10_truck_10_n03417042_5380.png
subject-02,1,234,1.07996296882629,bear,clock,0.90,0234_nse_s02_0.90_clock_10_n02708093_6967.png
subject-02,1,235,0.755769968032837,elephant,oven,0.90,0235_nse_s02_0.90_oven_10_n04111531_845.png
subject-02,1,236,0.6680748462677,cat,cat,0.20,0236_nse_s02_0.20_cat_10_n02123159_4876.png
subject-02,1,237,0.787485122680664,dog,bicycle,0.90,0237_nse_s02_0.90_bicycle_10_n02835271_30318.png
subject-02,1,238,0.755440950393677,cat,cat,0.20,0238_nse_s02_0.20_cat_10_n02123597_30864.png
subject-02,1,239,0.775169134140015,elephant,bottle,0.10,0239_nse_s02_0.10_bottle_10_n03937543_1290.png
subject-02,1,240,0.718935966491699,bicycle,bicycle,0.03,0240_nse_s02_0.03_bicycle_10_n02835271_25268.png
subject-02,1,241,0.602967977523804,cat,cat,0.03,0241_nse_s02_0.03_cat_10_n02123394_6828.png
subject-02,1,242,0.85060715675354,boat,boat,0.05,0242_nse_s02_0.05_boat_10_n03344393_2937.png
subject-02,1,243,0.542670011520386,chair,chair,0.03,0243_nse_s02_0.03_chair_10_n03376595_524.png
subject-02,1,244,0.718313932418823,boat,bottle,0.20,0244_nse_s02_0.20_bottle_10_n02823428_7570.png
subject-02,1,245,0.826189041137695,bottle,keyboard,0.03,0245_nse_s02_0.03_keyboard_10_n04505470_6051.png
subject-02,1,246,0.60016918182373,bicycle,bicycle,0.20,0246_nse_s02_0.20_bicycle_10_n03792782_31101.png
subject-02,1,247,0.791669845581055,elephant,elephant,0.10,0247_nse_s02_0.10_elephant_10_n02504013_1719.png
subject-02,1,248,0.655885934829712,chair,chair,0.05,0248_nse_s02_0.05_chair_10_n02791124_2470.png
subject-02,1,249,0.729708909988403,keyboard,keyboard,0.03,0249_nse_s02_0.03_keyboard_10_n04505470_1651.png
subject-02,1,250,1.22749304771423,bear,keyboard,0.35,0250_nse_s02_0.35_keyboard_10_n04505470_8620.png
subject-02,1,251,0.660943984985352,clock,clock,0.05,0251_nse_s02_0.05_clock_10_n04548280_2045.png
subject-02,1,252,0.897154092788696,bird,bird,0.05,0252_nse_s02_0.05_bird_10_n01833805_7361.png
subject-02,1,253,1.08871006965637,cat,bicycle,0.20,0253_nse_s02_0.20_bicycle_10_n03792782_7050.png
subject-02,1,254,0.616411924362183,clock,clock,0.05,0254_nse_s02_0.05_clock_10_n04548280_7800.png
subject-02,1,255,0.888334035873413,airplane,boat,0.05,0255_nse_s02_0.05_boat_10_n03662601_33184.png
subject-02,1,256,0.62611198425293,bottle,bottle,0.03,0256_nse_s02_0.03_bottle_10_n03937543_1602.png
subject-02,1,257,0.692229032516479,cat,cat,0.35,0257_nse_s02_0.35_cat_10_n02123597_7615.png
subject-02,1,258,0.757992029190063,bear,oven,0.90,0258_nse_s02_0.90_oven_10_n04111531_22466.png
subject-02,1,259,0.935405969619751,oven,knife,0.90,0259_nse_s02_0.90_knife_10_n03041632_19620.png
subject-02,1,260,0.861268997192383,bear,bear,0.00,0260_nse_s02_0.00_bear_10_n02133161_5434.png
subject-02,1,261,0.535316944122314,chair,chair,0.03,0261_nse_s02_0.03_chair_10_n04099969_5453.png
subject-02,1,262,0.609281063079834,keyboard,keyboard,0.05,0262_nse_s02_0.05_keyboard_10_n04505470_1043.png
subject-02,1,263,0.958632946014404,bicycle,clock,0.00,0263_nse_s02_0.00_clock_10_n04548280_1032.png
subject-02,1,264,0.736547946929932,bird,knife,0.10,0264_nse_s02_0.10_knife_10_n03041632_31849.png
subject-02,1,265,0.656677007675171,elephant,bear,0.20,0265_nse_s02_0.20_bear_10_n02132136_17615.png
subject-02,1,266,0.878187894821167,bear,cat,0.90,0266_nse_s02_0.90_cat_10_n02124075_9291.png
subject-02,1,267,0.869905948638916,cat,chair,0.90,0267_nse_s02_0.90_chair_10_n03376595_3120.png
subject-02,1,268,0.66375994682312,airplane,airplane,0.00,0268_nse_s02_0.00_airplane_10_n02690373_5967.png
subject-02,1,269,0.69153094291687,bird,bird,0.03,0269_nse_s02_0.03_bird_10_n02018207_4180.png
subject-02,1,270,0.65366005897522,elephant,elephant,0.35,0270_nse_s02_0.35_elephant_10_n02504458_8064.png
subject-02,1,271,0.627226829528809,cat,cat,0.03,0271_nse_s02_0.03_cat_10_n02124075_14924.png
subject-02,1,272,0.88112998008728,bear,clock,0.60,0272_nse_s02_0.60_clock_10_n03196217_3362.png
subject-02,1,273,0.788737058639526,bottle,oven,0.03,0273_nse_s02_0.03_oven_10_n04111531_6415.png
subject-02,1,274,0.582961082458496,keyboard,keyboard,0.20,0274_nse_s02_0.20_keyboard_10_n04505470_4684.png
subject-02,1,275,0.724661827087402,bicycle,bicycle,0.00,0275_nse_s02_0.00_bicycle_10_n02835271_15038.png
subject-02,1,276,0.682207822799683,bird,bird,0.10,0276_nse_s02_0.10_bird_10_n02007558_7446.png
subject-02,1,277,0.774040937423706,bear,dog,0.05,0277_nse_s02_0.05_dog_10_n02096051_1308.png
subject-02,1,278,0.573955774307251,keyboard,keyboard,0.03,0278_nse_s02_0.03_keyboard_10_n03085013_20877.png
subject-02,1,279,1.43586802482605,elephant,elephant,0.00,0279_nse_s02_0.00_elephant_10_n02504013_8534.png
subject-02,1,280,0.753515005111694,bird,bird,0.35,0280_nse_s02_0.35_bird_10_n02018795_248.png
subject-02,1,281,0.679571151733398,boat,boat,0.05,0281_nse_s02_0.05_boat_10_n03662601_19809.png
subject-02,1,282,0.917568922042847,clock,chair,0.90,0282_nse_s02_0.90_chair_10_n02791124_5400.png
subject-02,1,283,0.512978076934814,car,car,0.10,0283_nse_s02_0.10_car_10_n04285008_14554.png
subject-02,1,284,1.26084995269775,chair,bear,0.10,0284_nse_s02_0.10_bear_10_n02134418_1749.png
subject-02,1,285,0.674854040145874,truck,truck,0.20,0285_nse_s02_0.20_truck_10_n04467665_40307.png
subject-02,1,286,0.762349128723145,bird,bear,0.60,0286_nse_s02_0.60_bear_10_n02133161_97.png
subject-02,1,287,0.734143972396851,cat,truck,0.90,0287_nse_s02_0.90_truck_10_n04467665_37811.png
subject-02,1,288,0.735905885696411,bear,knife,0.90,0288_nse_s02_0.90_knife_10_n03041632_29285.png
subject-02,1,289,0.59992504119873,airplane,airplane,0.00,0289_nse_s02_0.00_airplane_10_n02690373_6031.png
subject-02,1,290,0.925626993179321,bird,oven,0.35,0290_nse_s02_0.35_oven_10_n04111531_2458.png
subject-02,1,291,0.631816148757935,car,car,0.35,0291_nse_s02_0.35_car_10_n03100240_1702.png
subject-02,1,292,1.20958089828491,dog,dog,0.00,0292_nse_s02_0.00_dog_10_n02110958_16337.png
subject-02,1,293,0.689221143722534,bear,elephant,0.60,0293_nse_s02_0.60_elephant_10_n02504458_5288.png
subject-02,1,294,0.66893196105957,airplane,airplane,0.05,0294_nse_s02_0.05_airplane_10_n02690373_1161.png
subject-02,1,295,1.42279410362244,airplane,oven,0.05,0295_nse_s02_0.05_oven_10_n04111531_22872.png
subject-02,1,296,0.8488609790802,airplane,airplane,0.05,0296_nse_s02_0.05_airplane_10_n02690373_466.png
subject-02,1,297,1.0724618434906,bicycle,bottle,0.20,0297_nse_s02_0.20_bottle_10_n03937543_2105.png
subject-02,1,298,0.654175043106079,dog,dog,0.00,0298_nse_s02_0.00_dog_10_n02091244_13118.png
subject-02,1,299,0.75817608833313,cat,cat,0.00,0299_nse_s02_0.00_cat_10_n02123597_3896.png
subject-02,1,300,1.09210085868835,cat,bottle,0.00,0300_nse_s02_0.00_bottle_10_n03937543_9745.png
subject-02,1,301,0.729926824569702,car,car,0.35,0301_nse_s02_0.35_car_10_n02814533_73210.png
subject-02,1,302,0.617552042007446,cat,cat,0.10,0302_nse_s02_0.10_cat_10_n02123045_2721.png
subject-02,1,303,0.895429849624634,knife,knife,0.00,0303_nse_s02_0.00_knife_10_n03041632_289.png
subject-02,1,304,0.78490686416626,bicycle,bicycle,0.00,0304_nse_s02_0.00_bicycle_10_n03792782_7092.png
subject-02,1,305,0.756808996200562,dog,dog,0.20,0305_nse_s02_0.20_dog_10_n02094433_6402.png
subject-02,1,306,0.738701820373535,knife,knife,0.00,0306_nse_s02_0.00_knife_10_n03041632_52929.png
subject-02,1,307,0.844626903533936,cat,knife,0.90,0307_nse_s02_0.90_knife_10_n03041632_99460.png
subject-02,1,308,0.724416017532349,elephant,elephant,0.20,0308_nse_s02_0.20_elephant_10_n02504458_309.png
subject-02,1,309,0.6561439037323,clock,clock,0.10,0309_nse_s02_0.10_clock_10_n04548280_8668.png
subject-02,1,310,0.738137006759644,boat,keyboard,0.60,0310_nse_s02_0.60_keyboard_10_n03085013_23718.png
subject-02,1,311,0.71994686126709,bicycle,bottle,0.35,0311_nse_s02_0.35_bottle_10_n04557648_310.png
subject-02,1,312,0.655421018600464,oven,oven,0.03,0312_nse_s02_0.03_oven_10_n04111531_1723.png
subject-02,1,313,0.913677930831909,elephant,elephant,0.20,0313_nse_s02_0.20_elephant_10_n02504013_18217.png
subject-02,1,314,0.617393016815186,cat,cat,0.03,0314_nse_s02_0.03_cat_10_n02123394_9542.png
subject-02,1,315,0.787102937698364,elephant,oven,0.05,0315_nse_s02_0.05_oven_10_n04111531_9314.png
subject-02,1,316,0.820799112319946,keyboard,keyboard,0.05,0316_nse_s02_0.05_keyboard_10_n04505470_4592.png
subject-02,1,317,0.80249810218811,bear,bear,0.35,0317_nse_s02_0.35_bear_10_n02133161_1500.png
subject-02,1,318,0.82443904876709,car,truck,0.35,0318_nse_s02_0.35_truck_10_n03417042_8928.png
subject-02,1,319,1.00256395339966,bottle,truck,0.20,0319_nse_s02_0.20_truck_10_n03796401_28656.png
subject-02,1,320,0.898120880126953,car,car,0.35,0320_nse_s02_0.35_car_10_n04285008_10631.png
subject-02,1,321,0.79656720161438,keyboard,keyboard,0.20,0321_nse_s02_0.20_keyboard_10_n04505470_1351.png
subject-02,1,322,0.560876846313477,keyboard,keyboard,0.00,0322_nse_s02_0.00_keyboard_10_n04505470_4682.png
subject-02,1,323,0.800565958023071,keyboard,bicycle,0.60,0323_nse_s02_0.60_bicycle_10_n03792782_988.png
subject-02,1,324,0.664119005203247,bicycle,bicycle,0.03,0324_nse_s02_0.03_bicycle_10_n03792782_1004.png
subject-02,1,325,0.674138784408569,boat,boat,0.10,0325_nse_s02_0.10_boat_10_n03344393_7075.png
subject-02,1,326,0.721611976623535,bicycle,bicycle,0.10,0326_nse_s02_0.10_bicycle_10_n03792782_11921.png
subject-02,1,327,0.625570058822632,bicycle,bicycle,0.05,0327_nse_s02_0.05_bicycle_10_n02835271_5963.png
subject-02,1,328,0.80941104888916,bear,chair,0.60,0328_nse_s02_0.60_chair_10_n04429376_21362.png
subject-02,1,329,0.753055095672607,cat,oven,0.60,0329_nse_s02_0.60_oven_10_n04111531_9429.png
subject-02,1,330,0.676934957504272,cat,dog,0.05,0330_nse_s02_0.05_dog_10_n02098105_146.png
subject-02,1,331,0.595079898834229,car,car,0.05,0331_nse_s02_0.05_car_10_n03100240_17364.png
subject-02,1,332,0.738626003265381,cat,cat,0.60,0332_nse_s02_0.60_cat_10_n02123597_5514.png
subject-02,1,333,0.79041600227356,car,car,0.03,0333_nse_s02_0.03_car_10_n03100240_8683.png
subject-02,1,334,1.10830783843994,cat,clock,0.60,0334_nse_s02_0.60_clock_10_n03196217_2346.png
subject-02,1,335,0.70612096786499,elephant,clock,0.10,0335_nse_s02_0.10_clock_10_n03196217_958.png
subject-02,1,336,0.859778165817261,bear,elephant,0.60,0336_nse_s02_0.60_elephant_10_n02504013_1110.png
subject-02,1,337,0.707660913467407,elephant,elephant,0.20,0337_nse_s02_0.20_elephant_10_n02504458_5827.png
subject-02,1,338,0.829468011856079,bicycle,truck,0.20,0338_nse_s02_0.20_truck_10_n03417042_6654.png
subject-02,1,339,0.653366804122925,chair,chair,0.00,0339_nse_s02_0.00_chair_10_n04099969_8021.png
subject-02,1,340,0.740997076034546,cat,bird,0.90,0340_nse_s02_0.90_bird_10_n01820546_654.png
subject-02,1,341,1.27496600151062,bicycle,oven,0.20,0341_nse_s02_0.20_oven_10_n04111531_8144.png
subject-02,1,342,1.179034948349,cat,bear,0.60,0342_nse_s02_0.60_bear_10_n02132136_11183.png
subject-02,1,343,1.23047089576721,bird,bottle,0.90,0343_nse_s02_0.90_bottle_10_n04591713_5279.png
subject-02,1,344,0.828495025634766,truck,truck,0.03,0344_nse_s02_0.03_truck_10_n03796401_6444.png
subject-02,1,345,0.746295928955078,boat,airplane,0.20,0345_nse_s02_0.20_airplane_10_n02690373_2024.png
subject-02,1,346,0.555965900421143,cat,airplane,0.60,0346_nse_s02_0.60_airplane_10_n02690373_6674.png
subject-02,1,347,0.885860204696655,dog,dog,0.00,0347_nse_s02_0.00_dog_10_n02107683_6800.png
subject-02,1,348,0.779529094696045,bird,oven,0.10,0348_nse_s02_0.10_oven_10_n04111531_16198.png
subject-02,1,349,0.619449853897095,elephant,bird,0.35,0349_nse_s02_0.35_bird_10_n01824575_2959.png
subject-02,1,350,0.905300140380859,elephant,elephant,0.60,0350_nse_s02_0.60_elephant_10_n02504013_1132.png
subject-02,1,351,0.619117021560669,cat,bird,0.00,0351_nse_s02_0.00_bird_10_n01818515_7370.png
subject-02,1,352,0.660808086395264,cat,bicycle,0.90,0352_nse_s02_0.90_bicycle_10_n03792782_3754.png
subject-02,1,353,0.605059146881104,bear,bear,0.00,0353_nse_s02_0.00_bear_10_n02132136_2263.png
subject-02,1,354,0.764388084411621,oven,truck,0.90,0354_nse_s02_0.90_truck_10_n03417042_12908.png
subject-02,1,355,0.706604957580566,airplane,chair,0.60,0355_nse_s02_0.60_chair_10_n02791124_7167.png
subject-02,1,356,0.922502040863037,car,truck,0.60,0356_nse_s02_0.60_truck_10_n04467665_1840.png
subject-02,1,357,0.721940994262695,airplane,airplane,0.10,0357_nse_s02_0.10_airplane_10_n02690373_2579.png
subject-02,1,358,0.827712059020996,airplane,boat,0.20,0358_nse_s02_0.20_boat_10_n04612504_40672.png
subject-02,1,359,0.843571901321411,bear,bottle,0.60,0359_nse_s02_0.60_bottle_10_n02823428_3929.png
subject-02,1,360,0.639331102371216,cat,bicycle,0.90,0360_nse_s02_0.90_bicycle_10_n03792782_37794.png
subject-02,1,361,0.627115964889526,elephant,elephant,0.20,0361_nse_s02_0.20_elephant_10_n02504013_3939.png
subject-02,1,362,0.930999040603638,elephant,boat,0.60,0362_nse_s02_0.60_boat_10_n03344393_382.png
subject-02,1,363,0.90278697013855,bear,cat,0.90,0363_nse_s02_0.90_cat_10_n02123597_7138.png
subject-02,1,364,0.704671144485474,bird,bird,0.00,0364_nse_s02_0.00_bird_10_n01560419_2432.png
subject-02,1,365,0.570463895797729,clock,clock,0.10,0365_nse_s02_0.10_clock_10_n02708093_527.png
subject-02,1,366,0.748255014419556,elephant,bicycle,0.35,0366_nse_s02_0.35_bicycle_10_n03792782_12504.png
subject-02,1,367,0.84586501121521,knife,knife,0.20,0367_nse_s02_0.20_knife_10_n03041632_10540.png
subject-02,1,368,0.63998007774353,cat,cat,0.10,0368_nse_s02_0.10_cat_10_n02123045_3098.png
subject-02,1,369,0.633692026138306,keyboard,keyboard,0.00,0369_nse_s02_0.00_keyboard_10_n03085013_19547.png
subject-02,1,370,0.623346090316772,elephant,elephant,0.03,0370_nse_s02_0.03_elephant_10_n02504013_104.png
subject-02,1,371,0.89134407043457,bear,bird,0.60,0371_nse_s02_0.60_bird_10_n01530575_280.png
subject-02,1,372,0.551112174987793,chair,keyboard,0.00,0372_nse_s02_0.00_keyboard_10_n03085013_23369.png
subject-02,1,373,0.642920970916748,car,car,0.35,0373_nse_s02_0.35_car_10_n03100240_319.png
subject-02,1,374,0.856882095336914,bottle,bottle,0.05,0374_nse_s02_0.05_bottle_10_n04591713_6662.png
subject-02,1,375,0.776407957077026,elephant,bicycle,0.35,0375_nse_s02_0.35_bicycle_10_n03792782_565.png
subject-02,1,376,0.666343927383423,clock,clock,0.03,0376_nse_s02_0.03_clock_10_n02708093_3213.png
subject-02,1,377,0.716156959533691,elephant,chair,0.60,0377_nse_s02_0.60_chair_10_n02791124_1635.png
subject-02,1,378,1.05609512329102,bottle,bottle,0.35,0378_nse_s02_0.35_bottle_10_n03983396_11434.png
subject-02,1,379,1.20779800415039,cat,cat,0.10,0379_nse_s02_0.10_cat_10_n02123159_3472.png
subject-02,1,380,0.781553983688354,car,car,0.05,0380_nse_s02_0.05_car_10_n03100240_9305.png
subject-02,1,381,0.645508766174316,keyboard,bottle,0.20,0381_nse_s02_0.20_bottle_10_n02823428_13937.png
subject-02,1,382,0.649645090103149,bird,bird,0.03,0382_nse_s02_0.03_bird_10_n01855672_12414.png
subject-02,1,383,1.08311796188354,bicycle,bicycle,0.00,0383_nse_s02_0.00_bicycle_10_n03792782_7101.png
subject-02,1,384,0.83685302734375,dog,dog,0.05,0384_nse_s02_0.05_dog_10_n02102480_10015.png
subject-02,1,385,0.684733867645264,elephant,bear,0.00,0385_nse_s02_0.00_bear_10_n02132136_5138.png
subject-02,1,386,0.626544952392578,keyboard,bottle,0.20,0386_nse_s02_0.20_bottle_10_n04557648_2075.png
subject-02,1,387,0.814608097076416,keyboard,knife,0.60,0387_nse_s02_0.60_knife_10_n03041632_4269.png
subject-02,1,388,0.70213508605957,clock,clock,0.05,0388_nse_s02_0.05_clock_10_n02708093_2898.png
subject-02,1,389,0.601923942565918,elephant,elephant,0.05,0389_nse_s02_0.05_elephant_10_n02504458_8212.png
subject-02,1,390,0.514031887054443,cat,cat,0.20,0390_nse_s02_0.20_cat_10_n02123159_1413.png
subject-02,1,391,0.885544061660767,dog,dog,0.03,0391_nse_s02_0.03_dog_10_n02094114_1589.png
subject-02,1,392,0.713420867919922,bottle,bottle,0.05,0392_nse_s02_0.05_bottle_10_n03983396_23516.png
subject-02,1,393,0.533094167709351,keyboard,keyboard,0.05,0393_nse_s02_0.05_keyboard_10_n03085013_5611.png
subject-02,1,394,0.545471906661987,keyboard,knife,0.20,0394_nse_s02_0.20_knife_10_n03041632_46103.png
subject-02,1,395,0.956718921661377,bicycle,chair,0.00,0395_nse_s02_0.00_chair_10_n04429376_6915.png
subject-02,1,396,1.14891004562378,cat,oven,0.90,0396_nse_s02_0.90_oven_10_n04111531_6211.png
subject-02,1,397,1.47472214698792,cat,keyboard,0.35,0397_nse_s02_0.35_keyboard_10_n03085013_20798.png
subject-02,1,398,0.780324935913086,boat,bear,0.90,0398_nse_s02_0.90_bear_10_n02133161_10190.png
subject-02,1,399,0.654384851455688,cat,keyboard,0.00,0399_nse_s02_0.00_keyboard_10_n03085013_23289.png
subject-02,1,400,0.969826221466064,cat,dog,0.05,0400_nse_s02_0.05_dog_10_n02091635_8296.png
subject-02,1,401,0.712120771408081,bird,elephant,0.05,0401_nse_s02_0.05_elephant_10_n02504013_13766.png
subject-02,1,402,0.653874158859253,bottle,bottle,0.10,0402_nse_s02_0.10_bottle_10_n03983396_11859.png
subject-02,1,403,0.781548023223877,airplane,airplane,0.35,0403_nse_s02_0.35_airplane_10_n02690373_8524.png
subject-02,1,404,0.669601917266846,elephant,bear,0.35,0404_nse_s02_0.35_bear_10_n02134418_2432.png
subject-02,1,405,0.673389911651611,bottle,oven,0.35,0405_nse_s02_0.35_oven_10_n04111531_9411.png
subject-02,1,406,0.607445001602173,bicycle,bicycle,0.20,0406_nse_s02_0.20_bicycle_10_n02835271_1075.png
subject-02,1,407,1.00295996665955,boat,truck,0.03,0407_nse_s02_0.03_truck_10_n04467665_51949.png
subject-02,1,408,0.738958120346069,truck,truck,0.03,0408_nse_s02_0.03_truck_10_n03796401_9207.png
subject-02,1,409,0.732475996017456,keyboard,clock,0.35,0409_nse_s02_0.35_clock_10_n04548280_5088.png
subject-02,1,410,0.806267023086548,keyboard,keyboard,0.05,0410_nse_s02_0.05_keyboard_10_n04505470_4994.png
subject-02,1,411,1.10621213912964,elephant,boat,0.35,0411_nse_s02_0.35_boat_10_n03662601_5419.png
subject-02,1,412,1.05999708175659,elephant,elephant,0.35,0412_nse_s02_0.35_elephant_10_n02504458_485.png
subject-02,1,413,0.671634912490845,cat,bird,0.90,0413_nse_s02_0.90_bird_10_n02018795_5868.png
subject-02,1,414,1.03357601165771,bird,keyboard,0.60,0414_nse_s02_0.60_keyboard_10_n04505470_3309.png
subject-02,1,415,1.13344812393188,elephant,truck,0.90,0415_nse_s02_0.90_truck_10_n04467665_61522.png
subject-02,1,416,1.02714681625366,bear,dog,0.20,0416_nse_s02_0.20_dog_10_n02096437_4384.png
subject-02,1,417,0.647467851638794,cat,cat,0.05,0417_nse_s02_0.05_cat_10_n02123045_5381.png
subject-02,1,418,0.686926126480103,keyboard,clock,0.05,0418_nse_s02_0.05_clock_10_n03196217_3987.png
subject-02,1,419,0.84666895866394,bird,knife,0.05,0419_nse_s02_0.05_knife_10_n03041632_52702.png
subject-02,1,420,0.874383926391602,bear,bird,0.90,0420_nse_s02_0.90_bird_10_n01530575_310.png
subject-02,1,421,0.796586990356445,clock,clock,0.03,0421_nse_s02_0.03_clock_10_n04548280_4872.png
subject-02,1,422,0.86232590675354,chair,airplane,0.00,0422_nse_s02_0.00_airplane_10_n02690373_10455.png
subject-02,1,423,1.13798308372498,dog,dog,0.60,0423_nse_s02_0.60_dog_10_n02109525_50916.png
subject-02,1,424,0.697781801223755,cat,cat,0.35,0424_nse_s02_0.35_cat_10_n02123159_5950.png
subject-02,1,425,0.645542144775391,airplane,airplane,0.03,0425_nse_s02_0.03_airplane_10_n02690373_1306.png
subject-02,1,426,0.907773017883301,bear,bottle,0.60,0426_nse_s02_0.60_bottle_10_n04591713_5290.png
subject-02,1,427,1.02910709381104,airplane,elephant,0.35,0427_nse_s02_0.35_elephant_10_n02504458_130.png
subject-02,1,428,0.829102993011475,truck,truck,0.05,0428_nse_s02_0.05_truck_10_n04467665_3612.png
subject-02,1,429,1.24469804763794,bird,oven,0.20,0429_nse_s02_0.20_oven_10_n04111531_6024.png
subject-02,1,430,1.1467490196228,bear,dog,0.60,0430_nse_s02_0.60_dog_10_n02096294_5451.png
subject-02,1,431,1.47861385345459,elephant,oven,0.35,0431_nse_s02_0.35_oven_10_n04111531_20493.png
subject-02,1,432,0.708223819732666,dog,dog,0.03,0432_nse_s02_0.03_dog_10_n02102480_6569.png
subject-02,1,433,0.946040868759155,bird,bicycle,0.90,0433_nse_s02_0.90_bicycle_10_n03792782_30942.png
subject-02,1,434,0.801733016967773,dog,dog,0.03,0434_nse_s02_0.03_dog_10_n02108915_3733.png
subject-02,1,435,0.735605955123901,chair,boat,0.03,0435_nse_s02_0.03_boat_10_n02951358_4397.png
subject-02,1,436,1.16565704345703,elephant,elephant,0.60,0436_nse_s02_0.60_elephant_10_n02504013_5876.png
subject-02,1,437,1.22931098937988,cat,car,0.60,0437_nse_s02_0.60_car_10_n04285008_2363.png
subject-02,1,438,0.725208044052124,car,car,0.10,0438_nse_s02_0.10_car_10_n03100240_1438.png
subject-02,1,439,0.846761226654053,bear,clock,0.90,0439_nse_s02_0.90_clock_10_n03196217_12701.png
subject-02,1,440,0.75656795501709,bird,bird,0.05,0440_nse_s02_0.05_bird_10_n02017213_7721.png
subject-02,1,441,0.650505065917969,chair,chair,0.05,0441_nse_s02_0.05_chair_10_n03376595_830.png
subject-02,1,442,1.28423500061035,bear,bird,0.90,0442_nse_s02_0.90_bird_10_n01843383_4896.png
subject-02,1,443,0.984195947647095,clock,clock,0.05,0443_nse_s02_0.05_clock_10_n03196217_3868.png
subject-02,1,444,0.7499098777771,cat,truck,0.90,0444_nse_s02_0.90_truck_10_n03417042_6554.png
subject-02,1,445,0.663760900497437,bicycle,bicycle,0.03,0445_nse_s02_0.03_bicycle_10_n02835271_6167.png
subject-02,1,446,0.677737951278687,bird,bird,0.05,0446_nse_s02_0.05_bird_10_n02033041_6728.png
subject-02,1,447,0.58739185333252,airplane,airplane,0.00,0447_nse_s02_0.00_airplane_10_n02690373_1381.png
subject-02,1,448,0.621118068695068,boat,boat,0.05,0448_nse_s02_0.05_boat_10_n03662601_10811.png
subject-02,1,449,0.649194002151489,oven,oven,0.10,0449_nse_s02_0.10_oven_10_n04111531_538.png
subject-02,1,450,0.914763927459717,knife,knife,0.20,0450_nse_s02_0.20_knife_10_n03041632_36789.png
subject-02,1,451,0.862679004669189,chair,truck,0.35,0451_nse_s02_0.35_truck_10_n03417042_6847.png
subject-02,1,452,0.678627014160156,bottle,bottle,0.20,0452_nse_s02_0.20_bottle_10_n04560804_21519.png
subject-02,1,453,0.658444881439209,bird,bird,0.03,0453_nse_s02_0.03_bird_10_n01818515_1617.png
subject-02,1,454,0.850260019302368,bear,bird,0.90,0454_nse_s02_0.90_bird_10_n01828970_11546.png
subject-02,1,455,0.649977922439575,bicycle,bicycle,0.05,0455_nse_s02_0.05_bicycle_10_n02835271_1530.png
subject-02,1,456,0.759719848632812,bear,bear,0.03,0456_nse_s02_0.03_bear_10_n02134418_2590.png
subject-02,1,457,0.889579057693481,bicycle,oven,0.90,0457_nse_s02_0.90_oven_10_n04111531_10220.png
subject-02,1,458,0.681428909301758,car,boat,0.20,0458_nse_s02_0.20_boat_10_n03662601_5529.png
subject-02,1,459,0.701513051986694,chair,knife,0.20,0459_nse_s02_0.20_knife_10_n03041632_24541.png
subject-02,1,460,0.880949020385742,bear,chair,0.60,0460_nse_s02_0.60_chair_10_n03376595_3010.png
subject-02,1,461,0.673033952713013,boat,boat,0.20,0461_nse_s02_0.20_boat_10_n04273569_32553.png
subject-02,1,462,0.614526987075806,oven,knife,0.00,0462_nse_s02_0.00_knife_10_n03041632_19614.png
subject-02,1,463,0.874799013137817,truck,chair,0.10,0463_nse_s02_0.10_chair_10_n04429376_23573.png
subject-02,1,464,1.25223302841187,truck,cat,0.60,0464_nse_s02_0.60_cat_10_n02124075_9939.png
subject-02,1,465,1.20236301422119,cat,cat,0.03,0465_nse_s02_0.03_cat_10_n02124075_14021.png
subject-02,1,466,0.911793947219849,elephant,bird,0.20,0466_nse_s02_0.20_bird_10_n02011460_13026.png
subject-02,1,467,0.797680139541626,bicycle,clock,0.60,0467_nse_s02_0.60_clock_10_n02708093_1100.png
subject-02,1,468,0.723615169525146,clock,clock,0.00,0468_nse_s02_0.00_clock_10_n04548280_4560.png
subject-02,1,469,0.875097036361694,bicycle,car,0.05,0469_nse_s02_0.05_car_10_n04285008_4047.png
subject-02,1,470,0.700946092605591,dog,dog,0.10,0470_nse_s02_0.10_dog_10_n02087394_28673.png
subject-02,1,471,0.528985977172852,clock,clock,0.00,0471_nse_s02_0.00_clock_10_n04548280_3716.png
subject-02,1,472,0.806753158569336,knife,knife,0.03,0472_nse_s02_0.03_knife_10_n03041632_13130.png
subject-02,1,473,0.972570896148682,bicycle,chair,0.20,0473_nse_s02_0.20_chair_10_n02791124_15754.png
subject-02,1,474,1.4264829158783,airplane,boat,0.60,0474_nse_s02_0.60_boat_10_n03662601_32391.png
subject-02,1,475,0.79621696472168,bird,bird,0.05,0475_nse_s02_0.05_bird_10_n01534433_4594.png
subject-02,1,476,0.790509939193726,elephant,bicycle,0.10,0476_nse_s02_0.10_bicycle_10_n03792782_66837.png
subject-02,1,477,0.864035844802856,keyboard,keyboard,0.03,0477_nse_s02_0.03_keyboard_10_n04505470_9866.png
subject-02,1,478,1.06979179382324,boat,boat,0.05,0478_nse_s02_0.05_boat_10_n03344393_7433.png
subject-02,1,479,0.805503845214844,bear,car,0.90,0479_nse_s02_0.90_car_10_n02814533_72079.png
subject-02,1,480,0.737023830413818,chair,chair,0.05,0480_nse_s02_0.05_chair_10_n04099969_2532.png
subject-02,1,481,0.72245979309082,elephant,elephant,0.10,0481_nse_s02_0.10_elephant_10_n02504013_5533.png
subject-02,1,482,0.834335088729858,clock,clock,0.05,0482_nse_s02_0.05_clock_10_n03196217_8792.png
subject-02,1,483,NaN,na,bottle,0.35,0483_nse_s02_0.35_bottle_10_n04560804_12736.png
subject-02,1,484,0.877933979034424,clock,clock,0.03,0484_nse_s02_0.03_clock_10_n02708093_8100.png
subject-02,1,485,0.913782119750977,knife,knife,0.00,0485_nse_s02_0.00_knife_10_n03041632_25512.png
subject-02,1,486,0.531495809555054,bottle,bottle,0.03,0486_nse_s02_0.03_bottle_10_n04591713_2841.png
subject-02,1,487,0.667326927185059,cat,elephant,0.90,0487_nse_s02_0.90_elephant_10_n02504458_12938.png
subject-02,1,488,0.725038051605225,bottle,oven,0.03,0488_nse_s02_0.03_oven_10_n04111531_11669.png
subject-02,1,489,0.720900058746338,bicycle,bicycle,0.00,0489_nse_s02_0.00_bicycle_10_n03792782_1418.png
subject-02,1,490,0.764933824539185,airplane,airplane,0.03,0490_nse_s02_0.03_airplane_10_n02690373_3821.png
subject-02,1,491,1.11254405975342,airplane,keyboard,0.90,0491_nse_s02_0.90_keyboard_10_n03085013_3439.png
subject-02,1,492,1.09079194068909,bear,oven,0.60,0492_nse_s02_0.60_oven_10_n04111531_22797.png
subject-02,1,493,0.956200122833252,bird,bird,0.35,0493_nse_s02_0.35_bird_10_n01534433_12864.png
subject-02,1,494,1.07816600799561,airplane,boat,0.03,0494_nse_s02_0.03_boat_10_n03662601_34009.png
subject-02,1,495,0.968096971511841,bicycle,knife,0.05,0495_nse_s02_0.05_knife_10_n03041632_33255.png
subject-02,1,496,1.07360100746155,airplane,airplane,0.20,0496_nse_s02_0.20_airplane_10_n02690373_8967.png
subject-02,1,497,0.753594875335693,airplane,airplane,0.03,0497_nse_s02_0.03_airplane_10_n02690373_10006.png
subject-02,1,498,0.699218988418579,bear,bear,0.03,0498_nse_s02_0.03_bear_10_n02134084_572.png
subject-02,1,499,0.643115997314453,cat,elephant,0.90,0499_nse_s02_0.90_elephant_10_n02504013_22633.png
subject-02,1,500,0.784839153289795,knife,knife,0.10,0500_nse_s02_0.10_knife_10_n03041632_22738.png
subject-02,1,501,0.916701078414917,boat,boat,0.20,0501_nse_s02_0.20_boat_10_n04273569_22495.png
subject-02,1,502,1.1307418346405,truck,truck,0.00,0502_nse_s02_0.00_truck_10_n04467665_39477.png
subject-02,1,503,0.64044189453125,airplane,airplane,0.20,0503_nse_s02_0.20_airplane_10_n02690373_7229.png
subject-02,1,504,0.704046010971069,keyboard,keyboard,0.10,0504_nse_s02_0.10_keyboard_10_n03085013_29042.png
subject-02,1,505,1.11587905883789,elephant,cat,0.35,0505_nse_s02_0.35_cat_10_n02123159_6106.png
subject-02,1,506,0.79166316986084,clock,clock,0.20,0506_nse_s02_0.20_clock_10_n04548280_1109.png
subject-02,1,507,1.3977038860321,airplane,dog,0.60,0507_nse_s02_0.60_dog_10_n02088238_11711.png
subject-02,1,508,0.869589805603027,bird,keyboard,0.60,0508_nse_s02_0.60_keyboard_10_n04505470_2603.png
subject-02,1,509,0.709644079208374,airplane,airplane,0.20,0509_nse_s02_0.20_airplane_10_n02690373_4814.png
subject-02,1,510,0.641148090362549,cat,cat,0.10,0510_nse_s02_0.10_cat_10_n02124075_5853.png
subject-02,1,511,0.924764156341553,oven,chair,0.20,0511_nse_s02_0.20_chair_10_n02791124_206.png
subject-02,1,512,0.79071307182312,bottle,bottle,0.00,0512_nse_s02_0.00_bottle_10_n04591713_7474.png
subject-02,1,513,0.966508865356445,bottle,bottle,0.03,0513_nse_s02_0.03_bottle_10_n03983396_11654.png
subject-02,1,514,0.780277967453003,car,truck,0.00,0514_nse_s02_0.00_truck_10_n04467665_30023.png
subject-02,1,515,0.660183191299438,elephant,bird,0.20,0515_nse_s02_0.20_bird_10_n01530575_10119.png
subject-02,1,516,0.795866012573242,elephant,car,0.60,0516_nse_s02_0.60_car_10_n02814533_27588.png
subject-02,1,517,0.891726970672607,elephant,dog,0.90,0517_nse_s02_0.90_dog_10_n02110806_5609.png
subject-02,1,518,0.62947678565979,bird,bird,0.05,0518_nse_s02_0.05_bird_10_n02027492_9899.png
subject-02,1,519,0.743248224258423,elephant,bottle,0.20,0519_nse_s02_0.20_bottle_10_n04591713_5569.png
subject-02,1,520,0.753348112106323,truck,truck,0.03,0520_nse_s02_0.03_truck_10_n04467665_67908.png
subject-02,1,521,0.803357839584351,keyboard,keyboard,0.10,0521_nse_s02_0.10_keyboard_10_n04505470_4521.png
subject-02,1,522,0.774893045425415,airplane,airplane,0.35,0522_nse_s02_0.35_airplane_10_n02690373_7591.png
subject-02,1,523,0.8887038230896,bear,bottle,0.60,0523_nse_s02_0.60_bottle_10_n04560804_9813.png
subject-02,1,524,0.728695869445801,bear,bear,0.00,0524_nse_s02_0.00_bear_10_n02134084_3888.png
subject-02,1,525,0.704195022583008,cat,bear,0.90,0525_nse_s02_0.90_bear_10_n02134418_5478.png
subject-02,1,526,0.786214113235474,keyboard,oven,0.05,0526_nse_s02_0.05_oven_10_n04111531_2630.png
subject-02,1,527,0.883951902389526,bear,dog,0.35,0527_nse_s02_0.35_dog_10_n02105251_6564.png
subject-02,1,528,0.785650968551636,boat,airplane,0.00,0528_nse_s02_0.00_airplane_10_n02690373_19407.png
subject-02,1,529,1.35944294929504,clock,knife,0.20,0529_nse_s02_0.20_knife_10_n03041632_7448.png
subject-02,1,530,0.675173997879028,car,car,0.20,0530_nse_s02_0.20_car_10_n03100240_15070.png
subject-02,1,531,0.505192995071411,keyboard,keyboard,0.35,0531_nse_s02_0.35_keyboard_10_n04505470_4724.png
subject-02,1,532,1.48887014389038,bear,keyboard,0.90,0532_nse_s02_0.90_keyboard_10_n03085013_20330.png
subject-02,1,533,0.702620983123779,bottle,bottle,0.10,0533_nse_s02_0.10_bottle_10_n04560804_3597.png
subject-02,1,534,0.698467969894409,chair,chair,0.10,0534_nse_s02_0.10_chair_10_n04429376_619.png
subject-02,1,535,0.990456104278564,bird,oven,0.35,0535_nse_s02_0.35_oven_10_n04111531_3702.png
subject-02,1,536,0.870500802993774,cat,oven,0.60,0536_nse_s02_0.60_oven_10_n04111531_1752.png
subject-02,1,537,0.689992189407349,elephant,elephant,0.10,0537_nse_s02_0.10_elephant_10_n02504458_8183.png
subject-02,1,538,0.997747182846069,elephant,truck,0.90,0538_nse_s02_0.90_truck_10_n03417042_5004.png
subject-02,1,539,0.641510963439941,car,car,0.20,0539_nse_s02_0.20_car_10_n04285008_7139.png
subject-02,1,540,0.739438056945801,bear,bear,0.20,0540_nse_s02_0.20_bear_10_n02134418_4458.png
subject-02,1,541,1.11140489578247,chair,chair,0.10,0541_nse_s02_0.10_chair_10_n04429376_5742.png
subject-02,1,542,0.656991958618164,boat,bird,0.03,0542_nse_s02_0.03_bird_10_n01601694_7574.png
subject-02,1,543,0.809079885482788,clock,clock,0.35,0543_nse_s02_0.35_clock_10_n03196217_3333.png
subject-02,1,544,0.772666931152344,bicycle,bicycle,0.35,0544_nse_s02_0.35_bicycle_10_n02835271_24131.png
subject-02,1,545,0.768479108810425,bear,bicycle,0.90,0545_nse_s02_0.90_bicycle_10_n03792782_32281.png
subject-02,1,546,0.902194976806641,truck,truck,0.00,0546_nse_s02_0.00_truck_10_n04467665_3502.png
subject-02,1,547,0.826179027557373,knife,knife,0.20,0547_nse_s02_0.20_knife_10_n03041632_36280.png
subject-02,1,548,1.07826495170593,dog,truck,0.20,0548_nse_s02_0.20_truck_10_n03417042_10597.png
subject-02,1,549,0.83784294128418,clock,bicycle,0.03,0549_nse_s02_0.03_bicycle_10_n03792782_6613.png
subject-02,1,550,0.755820989608765,car,car,0.20,0550_nse_s02_0.20_car_10_n02814533_2271.png
subject-02,1,551,0.709722995758057,bird,bird,0.20,0551_nse_s02_0.20_bird_10_n01560419_50.png
subject-02,1,552,0.735620975494385,bicycle,bicycle,0.35,0552_nse_s02_0.35_bicycle_10_n02835271_5825.png
subject-02,1,553,0.816918134689331,bicycle,clock,0.35,0553_nse_s02_0.35_clock_10_n03196217_6163.png
subject-02,1,554,0.726655006408691,clock,clock,0.20,0554_nse_s02_0.20_clock_10_n02708093_2800.png
subject-02,1,555,0.612681865692139,boat,boat,0.00,0555_nse_s02_0.00_boat_10_n04612504_30617.png
subject-02,1,556,0.7325758934021,bird,bird,0.20,0556_nse_s02_0.20_bird_10_n02002556_139.png
subject-02,1,557,0.758348941802979,car,car,0.00,0557_nse_s02_0.00_car_10_n03100240_9639.png
subject-02,1,558,1.03595304489136,bird,bear,0.90,0558_nse_s02_0.90_bear_10_n02133161_1169.png
subject-02,1,559,0.82608699798584,airplane,knife,0.60,0559_nse_s02_0.60_knife_10_n03041632_39342.png
subject-02,1,560,0.86006498336792,cat,bear,0.05,0560_nse_s02_0.05_bear_10_n02134084_22029.png
subject-02,1,561,0.659971952438354,cat,cat,0.10,0561_nse_s02_0.10_cat_10_n02124075_15399.png
subject-02,1,562,0.831405162811279,elephant,bottle,0.60,0562_nse_s02_0.60_bottle_10_n02823428_9063.png
subject-02,1,563,0.731298923492432,airplane,airplane,0.20,0563_nse_s02_0.20_airplane_10_n02690373_4201.png
subject-02,1,564,0.711305141448975,bear,elephant,0.60,0564_nse_s02_0.60_elephant_10_n02504458_6835.png
subject-02,1,565,1.01915693283081,dog,dog,0.20,0565_nse_s02_0.20_dog_10_n02102318_7028.png
subject-02,1,566,0.645181179046631,bicycle,bicycle,0.10,0566_nse_s02_0.10_bicycle_10_n02835271_7594.png
subject-02,1,567,0.900660037994385,elephant,elephant,0.20,0567_nse_s02_0.20_elephant_10_n02504013_8522.png
subject-02,1,568,0.712365865707397,keyboard,keyboard,0.03,0568_nse_s02_0.03_keyboard_10_n03085013_20495.png
subject-02,1,569,0.872359037399292,boat,boat,0.05,0569_nse_s02_0.05_boat_10_n02951358_34116.png
subject-02,1,570,0.562196969985962,oven,oven,0.10,0570_nse_s02_0.10_oven_10_n04111531_8009.png
subject-02,1,571,0.977883100509644,elephant,keyboard,0.20,0571_nse_s02_0.20_keyboard_10_n03085013_20779.png
subject-02,1,572,0.624131917953491,truck,truck,0.10,0572_nse_s02_0.10_truck_10_n04467665_74008.png
subject-02,1,573,0.703552007675171,cat,cat,0.20,0573_nse_s02_0.20_cat_10_n02123045_7167.png
subject-02,1,574,0.981386184692383,bear,bear,0.35,0574_nse_s02_0.35_bear_10_n02134418_5073.png
subject-02,1,575,0.781559944152832,cat,bear,0.60,0575_nse_s02_0.60_bear_10_n02134418_3767.png
subject-02,1,576,0.823064804077148,truck,truck,0.35,0576_nse_s02_0.35_truck_10_n04467665_44715.png
subject-02,1,577,0.604974985122681,airplane,airplane,0.05,0577_nse_s02_0.05_airplane_10_n02690373_7072.png
subject-02,1,578,0.89672589302063,bear,knife,0.90,0578_nse_s02_0.90_knife_10_n03041632_4879.png
subject-02,1,579,0.798322200775146,car,car,0.60,0579_nse_s02_0.60_car_10_n04285008_5078.png
subject-02,1,580,0.818349838256836,truck,truck,0.35,0580_nse_s02_0.35_truck_10_n03796401_2551.png
subject-02,1,581,0.890299081802368,elephant,cat,0.60,0581_nse_s02_0.60_cat_10_n02124075_12176.png
subject-02,1,582,1.05018091201782,elephant,elephant,0.00,0582_nse_s02_0.00_elephant_10_n02504013_3602.png
subject-02,1,583,0.973707914352417,bear,bird,0.35,0583_nse_s02_0.35_bird_10_n01532829_8055.png
subject-02,1,584,0.899410009384155,bear,car,0.60,0584_nse_s02_0.60_car_10_n04285008_6951.png
subject-02,1,585,0.895249128341675,bear,bear,0.10,0585_nse_s02_0.10_bear_10_n02134084_11993.png
subject-02,1,586,0.623059988021851,elephant,dog,0.60,0586_nse_s02_0.60_dog_10_n02097658_1923.png
subject-02,1,587,0.774929046630859,bear,cat,0.20,0587_nse_s02_0.20_cat_10_n02123597_1750.png
subject-02,1,588,1.33260917663574,oven,boat,0.90,0588_nse_s02_0.90_boat_10_n02951358_30335.png
subject-02,1,589,0.630483865737915,bird,bird,0.05,0589_nse_s02_0.05_bird_10_n02025239_22440.png
subject-02,1,590,0.698331117630005,truck,truck,0.20,0590_nse_s02_0.20_truck_10_n03417042_17916.png
subject-02,1,591,0.748233079910278,keyboard,keyboard,0.03,0591_nse_s02_0.03_keyboard_10_n04505470_4983.png
subject-02,1,592,0.680100202560425,bird,bicycle,0.60,0592_nse_s02_0.60_bicycle_10_n02835271_4619.png
subject-02,1,593,0.699934005737305,keyboard,bottle,0.90,0593_nse_s02_0.90_bottle_10_n04557648_907.png
subject-02,1,594,0.773606061935425,bear,knife,0.35,0594_nse_s02_0.35_knife_10_n03041632_8563.png
subject-02,1,595,0.919354200363159,truck,chair,0.20,0595_nse_s02_0.20_chair_10_n04099969_14208.png
subject-02,1,596,0.781260013580322,car,bicycle,0.00,0596_nse_s02_0.00_bicycle_10_n03792782_2024.png
subject-02,1,597,0.909025192260742,truck,keyboard,0.60,0597_nse_s02_0.60_keyboard_10_n03085013_23790.png
subject-02,1,598,0.755160808563232,truck,truck,0.05,0598_nse_s02_0.05_truck_10_n03417042_7187.png
subject-02,1,599,1.1346800327301,cat,truck,0.90,0599_nse_s02_0.90_truck_10_n03417042_10788.png
subject-02,1,600,1.08482599258423,bear,dog,0.90,0600_nse_s02_0.90_dog_10_n02105056_15299.png
subject-02,1,601,1.0421929359436,clock,oven,0.60,0601_nse_s02_0.60_oven_10_n04111531_13391.png
subject-02,1,602,0.668024063110352,bird,bird,0.00,0602_nse_s02_0.00_bird_10_n02009229_4129.png
subject-02,1,603,0.945952892303467,airplane,bird,0.60,0603_nse_s02_0.60_bird_10_n01530575_10612.png
subject-02,1,604,0.737669944763184,bicycle,bicycle,0.10,0604_nse_s02_0.10_bicycle_10_n02835271_3619.png
subject-02,1,605,0.857707977294922,car,keyboard,0.35,0605_nse_s02_0.35_keyboard_10_n04505470_4565.png
subject-02,1,606,0.9234299659729,cat,bear,0.10,0606_nse_s02_0.10_bear_10_n02132136_7253.png
subject-02,1,607,0.715117931365967,cat,dog,0.60,0607_nse_s02_0.60_dog_10_n02099849_4819.png
subject-02,1,608,0.577303886413574,bicycle,bicycle,0.05,0608_nse_s02_0.05_bicycle_10_n02835271_10271.png
subject-02,1,609,0.776938915252686,knife,knife,0.03,0609_nse_s02_0.03_knife_10_n03041632_50996.png
subject-02,1,610,0.990568161010742,dog,truck,0.60,0610_nse_s02_0.60_truck_10_n03417042_8145.png
subject-02,1,611,0.774394035339355,bear,bear,0.03,0611_nse_s02_0.03_bear_10_n02132136_50.png
subject-02,1,612,0.792391061782837,bicycle,bottle,0.03,0612_nse_s02_0.03_bottle_10_n03983396_4627.png
subject-02,1,613,0.576143980026245,bottle,bottle,0.05,0613_nse_s02_0.05_bottle_10_n04560804_3651.png
subject-02,1,614,0.709884881973267,cat,bear,0.35,0614_nse_s02_0.35_bear_10_n02133161_14833.png
subject-02,1,615,0.75147819519043,truck,truck,0.05,0615_nse_s02_0.05_truck_10_n03417042_9478.png
subject-02,1,616,0.793309926986694,bicycle,bicycle,0.03,0616_nse_s02_0.03_bicycle_10_n03792782_3299.png
subject-02,1,617,0.695537805557251,bicycle,bicycle,0.05,0617_nse_s02_0.05_bicycle_10_n03792782_48457.png
subject-02,1,618,0.685184955596924,truck,truck,0.03,0618_nse_s02_0.03_truck_10_n04467665_74235.png
subject-02,1,619,0.571403980255127,bicycle,chair,0.35,0619_nse_s02_0.35_chair_10_n04099969_8801.png
subject-02,1,620,0.717198848724365,bear,bear,0.00,0620_nse_s02_0.00_bear_10_n02133161_396.png
subject-02,1,621,0.66441798210144,bicycle,bicycle,0.05,0621_nse_s02_0.05_bicycle_10_n03792782_122.png
subject-02,1,622,0.834447145462036,truck,truck,0.35,0622_nse_s02_0.35_truck_10_n04467665_20923.png
subject-02,1,623,1.43631911277771,chair,chair,0.00,0623_nse_s02_0.00_chair_10_n04429376_14995.png
subject-02,1,624,1.14805507659912,elephant,keyboard,0.60,0624_nse_s02_0.60_keyboard_10_n03085013_19374.png
subject-02,1,625,1.36966490745544,dog,dog,0.35,0625_nse_s02_0.35_dog_10_n02107574_3352.png
subject-02,1,626,0.821609973907471,chair,chair,0.03,0626_nse_s02_0.03_chair_10_n04429376_26765.png
subject-02,1,627,0.993470907211304,keyboard,oven,0.10,0627_nse_s02_0.10_oven_10_n04111531_12129.png
subject-02,1,628,1.05327296257019,bottle,oven,0.03,0628_nse_s02_0.03_oven_10_n04111531_9474.png
subject-02,1,629,0.797369003295898,truck,boat,0.20,0629_nse_s02_0.20_boat_10_n03344393_11590.png
subject-02,1,630,0.621124982833862,keyboard,keyboard,0.03,0630_nse_s02_0.03_keyboard_10_n04505470_4554.png
subject-02,1,631,0.776758193969727,bear,clock,0.60,0631_nse_s02_0.60_clock_10_n04548280_1438.png
subject-02,1,632,0.606484174728394,airplane,airplane,0.35,0632_nse_s02_0.35_airplane_10_n02690373_1733.png
subject-02,1,633,1.26629495620728,boat,airplane,0.90,0633_nse_s02_0.90_airplane_10_n02690373_1862.png
subject-02,1,634,1.14806699752808,cat,cat,0.90,0634_nse_s02_0.90_cat_10_n02124075_6024.png
subject-02,1,635,0.697865009307861,elephant,elephant,0.03,0635_nse_s02_0.03_elephant_10_n02504013_8028.png
subject-02,1,636,0.669734001159668,bear,boat,0.10,0636_nse_s02_0.10_boat_10_n04273569_11940.png
subject-02,1,637,0.995484828948975,bear,elephant,0.60,0637_nse_s02_0.60_elephant_10_n02504013_5996.png
subject-02,1,638,1.2072548866272,clock,clock,0.05,0638_nse_s02_0.05_clock_10_n02708093_6624.png
subject-02,1,639,0.827084064483643,bear,bear,0.00,0639_nse_s02_0.00_bear_10_n02133161_11816.png
subject-02,1,640,1.07492804527283,car,car,0.10,0640_nse_s02_0.10_car_10_n02814533_90798.png
subject-02,1,641,0.786484003067017,bear,bird,0.35,0641_nse_s02_0.35_bird_10_n01833805_6289.png
subject-02,1,642,0.764266014099121,bicycle,bicycle,0.10,0642_nse_s02_0.10_bicycle_10_n03792782_10146.png
subject-02,1,643,0.660107135772705,knife,knife,0.05,0643_nse_s02_0.05_knife_10_n03041632_38610.png
subject-02,1,644,0.615723133087158,clock,clock,0.05,0644_nse_s02_0.05_clock_10_n03196217_5972.png
subject-02,1,645,0.72773814201355,elephant,elephant,0.20,0645_nse_s02_0.20_elephant_10_n02504013_2464.png
subject-02,1,646,0.885417938232422,elephant,elephant,0.35,0646_nse_s02_0.35_elephant_10_n02504458_6694.png
subject-02,1,647,0.70316481590271,keyboard,keyboard,0.20,0647_nse_s02_0.20_keyboard_10_n03085013_7605.png
subject-02,1,648,0.67337703704834,airplane,airplane,0.00,0648_nse_s02_0.00_airplane_10_n02690373_8666.png
subject-02,1,649,0.712814092636108,bird,bottle,0.35,0649_nse_s02_0.35_bottle_10_n03937543_3289.png
subject-02,1,650,1.02872490882874,car,car,0.00,0650_nse_s02_0.00_car_10_n03100240_14667.png
subject-02,1,651,0.662467956542969,bicycle,bicycle,0.03,0651_nse_s02_0.03_bicycle_10_n03792782_17212.png
subject-02,1,652,0.774296045303345,bear,keyboard,0.90,0652_nse_s02_0.90_keyboard_10_n03085013_20152.png
subject-02,1,653,0.738295078277588,car,car,0.03,0653_nse_s02_0.03_car_10_n04285008_7155.png
subject-02,1,654,0.916146039962769,elephant,elephant,0.03,0654_nse_s02_0.03_elephant_10_n02504013_10909.png
subject-02,1,655,0.98173999786377,bear,dog,0.35,0655_nse_s02_0.35_dog_10_n02106166_2273.png
subject-02,1,656,0.891669988632202,bird,bear,0.90,0656_nse_s02_0.90_bear_10_n02133161_8835.png
subject-02,1,657,0.739455938339233,oven,oven,0.05,0657_nse_s02_0.05_oven_10_n04111531_16144.png
subject-02,1,658,0.777537107467651,bird,bird,0.20,0658_nse_s02_0.20_bird_10_n02007558_5877.png
subject-02,1,659,0.939255952835083,boat,boat,0.00,0659_nse_s02_0.00_boat_10_n03662601_8398.png
subject-02,1,660,0.604856014251709,airplane,airplane,0.00,0660_nse_s02_0.00_airplane_10_n02690373_17722.png
subject-02,1,661,0.624936819076538,oven,oven,0.10,0661_nse_s02_0.10_oven_10_n04111531_5218.png
subject-02,1,662,0.69854211807251,bird,dog,0.60,0662_nse_s02_0.60_dog_10_n02093428_6133.png
subject-02,1,663,1.16859984397888,cat,truck,0.60,0663_nse_s02_0.60_truck_10_n04467665_34932.png
subject-02,1,664,0.662128925323486,boat,boat,0.05,0664_nse_s02_0.05_boat_10_n04612504_15898.png
subject-02,1,665,0.744019985198975,boat,oven,0.10,0665_nse_s02_0.10_oven_10_n04111531_7600.png
subject-02,1,666,0.607704162597656,bicycle,bicycle,0.05,0666_nse_s02_0.05_bicycle_10_n03792782_11034.png
subject-02,1,667,1.03354501724243,keyboard,chair,0.20,0667_nse_s02_0.20_chair_10_n02791124_4969.png
subject-02,1,668,0.71546196937561,car,car,0.10,0668_nse_s02_0.10_car_10_n04285008_7776.png
subject-02,1,669,0.725113153457642,knife,knife,0.00,0669_nse_s02_0.00_knife_10_n03041632_38540.png
subject-02,1,670,0.65894889831543,keyboard,keyboard,0.03,0670_nse_s02_0.03_keyboard_10_n03085013_24309.png
subject-02,1,671,0.732919931411743,bird,dog,0.35,0671_nse_s02_0.35_dog_10_n02094258_1224.png
subject-02,1,672,0.614751100540161,keyboard,keyboard,0.10,0672_nse_s02_0.10_keyboard_10_n04505470_6876.png
subject-02,1,673,0.648477077484131,bird,bird,0.05,0673_nse_s02_0.05_bird_10_n01820546_3203.png
subject-02,1,674,0.590373039245605,keyboard,keyboard,0.10,0674_nse_s02_0.10_keyboard_10_n04505470_1286.png
subject-02,1,675,0.878552913665771,dog,dog,0.35,0675_nse_s02_0.35_dog_10_n02105505_5576.png
subject-02,1,676,1.15598797798157,elephant,bear,0.90,0676_nse_s02_0.90_bear_10_n02134418_5630.png
subject-02,1,677,1.20560789108276,clock,clock,0.03,0677_nse_s02_0.03_clock_10_n02708093_742.png
subject-02,1,678,0.701510906219482,car,car,0.60,0678_nse_s02_0.60_car_10_n02814533_92286.png
subject-02,1,679,0.87742805480957,bear,airplane,0.90,0679_nse_s02_0.90_airplane_10_n02690373_9012.png
subject-02,1,680,0.567037105560303,keyboard,keyboard,0.10,0680_nse_s02_0.10_keyboard_10_n04505470_4951.png
subject-02,1,681,1.34498691558838,knife,knife,0.20,0681_nse_s02_0.20_knife_10_n03041632_18995.png
subject-02,1,682,0.71274209022522,bicycle,bicycle,0.05,0682_nse_s02_0.05_bicycle_10_n02835271_20177.png
subject-02,1,683,0.552474021911621,bear,bear,0.03,0683_nse_s02_0.03_bear_10_n02134084_16632.png
subject-02,1,684,0.692352056503296,cat,boat,0.90,0684_nse_s02_0.90_boat_10_n03662601_20381.png
subject-02,1,685,0.70043683052063,elephant,bear,0.05,0685_nse_s02_0.05_bear_10_n02132136_17161.png
subject-02,1,686,0.822149991989136,bird,bird,0.05,0686_nse_s02_0.05_bird_10_n01514859_10633.png
subject-02,1,687,0.681704998016357,boat,boat,0.05,0687_nse_s02_0.05_boat_10_n03662601_25577.png
subject-02,1,688,0.653703927993774,keyboard,keyboard,0.05,0688_nse_s02_0.05_keyboard_10_n03085013_15646.png
subject-02,1,689,1.15741610527039,bicycle,bicycle,0.20,0689_nse_s02_0.20_bicycle_10_n03792782_50446.png
subject-02,1,690,0.773185014724731,chair,chair,0.10,0690_nse_s02_0.10_chair_10_n02791124_1217.png
subject-02,1,691,0.836930990219116,bear,bird,0.60,0691_nse_s02_0.60_bird_10_n01817953_12877.png
subject-02,1,692,0.842898845672607,knife,knife,0.03,0692_nse_s02_0.03_knife_10_n03041632_3781.png
subject-02,1,693,0.65259313583374,bear,bear,0.03,0693_nse_s02_0.03_bear_10_n02132136_6967.png
subject-02,1,694,0.64838719367981,car,car,0.03,0694_nse_s02_0.03_car_10_n04285008_6849.png
subject-02,1,695,1.02037692070007,elephant,cat,0.35,0695_nse_s02_0.35_cat_10_n02123159_3083.png
subject-02,1,696,0.984018087387085,elephant,chair,0.90,0696_nse_s02_0.90_chair_10_n03376595_4142.png
subject-02,1,697,0.774145126342773,truck,truck,0.05,0697_nse_s02_0.05_truck_10_n03417042_10150.png
subject-02,1,698,0.791882991790771,bear,boat,0.60,0698_nse_s02_0.60_boat_10_n03662601_16441.png
subject-02,1,699,1.03552007675171,bottle,bottle,0.00,0699_nse_s02_0.00_bottle_10_n04557648_10420.png
subject-02,1,700,0.897414922714233,cat,knife,0.90,0700_nse_s02_0.90_knife_10_n03041632_38535.png
subject-02,1,701,1.28313112258911,elephant,chair,0.35,0701_nse_s02_0.35_chair_10_n04429376_9589.png
subject-02,1,702,0.866994857788086,chair,chair,0.00,0702_nse_s02_0.00_chair_10_n03376595_16202.png
subject-02,1,703,0.744781970977783,airplane,airplane,0.10,0703_nse_s02_0.10_airplane_10_n02690373_5003.png
subject-02,1,704,1.14061689376831,bear,dog,0.10,0704_nse_s02_0.10_dog_10_n02108551_26509.png
subject-02,1,705,0.702717065811157,truck,truck,0.10,0705_nse_s02_0.10_truck_10_n03417042_2170.png
subject-02,1,706,1.00818014144897,bottle,knife,0.10,0706_nse_s02_0.10_knife_10_n03041632_11887.png
subject-02,1,707,0.622051954269409,bird,bird,0.00,0707_nse_s02_0.00_bird_10_n02051845_15350.png
subject-02,1,708,0.839931011199951,chair,chair,0.10,0708_nse_s02_0.10_chair_10_n04099969_1690.png
subject-02,1,709,0.729810953140259,bottle,bottle,0.05,0709_nse_s02_0.05_bottle_10_n04557648_9277.png
subject-02,1,710,0.631779193878174,airplane,boat,0.20,0710_nse_s02_0.20_boat_10_n03344393_9106.png
subject-02,1,711,1.08929991722107,keyboard,boat,0.35,0711_nse_s02_0.35_boat_10_n02951358_16285.png
subject-02,1,712,0.889049053192139,bird,elephant,0.35,0712_nse_s02_0.35_elephant_10_n02504013_945.png
subject-02,1,713,0.800803899765015,elephant,oven,0.20,0713_nse_s02_0.20_oven_10_n04111531_1330.png
subject-02,1,714,0.6546630859375,chair,chair,0.10,0714_nse_s02_0.10_chair_10_n04099969_6266.png
subject-02,1,715,1.20658612251282,cat,oven,0.03,0715_nse_s02_0.03_oven_10_n04111531_164.png
subject-02,1,716,1.1084771156311,dog,oven,0.60,0716_nse_s02_0.60_oven_10_n04111531_10216.png
subject-02,1,717,0.702274799346924,elephant,elephant,0.05,0717_nse_s02_0.05_elephant_10_n02504013_5501.png
subject-02,1,718,0.635956048965454,boat,boat,0.00,0718_nse_s02_0.00_boat_10_n04273569_1141.png
subject-02,1,719,0.773663997650146,elephant,elephant,0.20,0719_nse_s02_0.20_elephant_10_n02504458_975.png
subject-02,1,720,1.13386416435242,elephant,elephant,0.00,0720_nse_s02_0.00_elephant_10_n02504458_6424.png
subject-02,1,721,0.701298952102661,cat,knife,0.90,0721_nse_s02_0.90_knife_10_n03041632_20595.png
subject-02,1,722,0.696722984313965,bicycle,bicycle,0.35,0722_nse_s02_0.35_bicycle_10_n03792782_51156.png
subject-02,1,723,0.478548049926758,bottle,bottle,0.03,0723_nse_s02_0.03_bottle_10_n02823428_901.png
subject-02,1,724,0.754376173019409,elephant,cat,0.60,0724_nse_s02_0.60_cat_10_n02123159_2256.png
subject-02,1,725,0.688115119934082,bear,airplane,0.90,0725_nse_s02_0.90_airplane_10_n02690373_8813.png
subject-02,1,726,0.624031066894531,clock,clock,0.60,0726_nse_s02_0.60_clock_10_n02708093_6672.png
subject-02,1,727,0.645658016204834,oven,oven,0.05,0727_nse_s02_0.05_oven_10_n04111531_16583.png
subject-02,1,728,0.5536949634552,boat,boat,0.00,0728_nse_s02_0.00_boat_10_n03662601_31508.png
subject-02,1,729,0.829617977142334,chair,oven,0.00,0729_nse_s02_0.00_oven_10_n04111531_14758.png
subject-02,1,730,0.777630090713501,car,car,0.10,0730_nse_s02_0.10_car_10_n03100240_4071.png
subject-02,1,731,0.622963905334473,oven,oven,0.10,0731_nse_s02_0.10_oven_10_n04111531_8081.png
subject-02,1,732,1.00483393669128,bear,dog,0.00,0732_nse_s02_0.00_dog_10_n02099601_8686.png
subject-02,1,733,0.828660011291504,elephant,bicycle,0.60,0733_nse_s02_0.60_bicycle_10_n02835271_358.png
subject-02,1,734,1.464350938797,boat,knife,0.35,0734_nse_s02_0.35_knife_10_n03041632_18959.png
subject-02,1,735,0.7481529712677,bird,bird,0.10,0735_nse_s02_0.10_bird_10_n02037110_3949.png
subject-02,1,736,0.782124996185303,elephant,truck,0.90,0736_nse_s02_0.90_truck_10_n03417042_27988.png
subject-02,1,737,0.726142883300781,bear,car,0.60,0737_nse_s02_0.60_car_10_n03100240_9875.png
subject-02,1,738,0.901713132858276,keyboard,oven,0.00,0738_nse_s02_0.00_oven_10_n04111531_3555.png
subject-02,1,739,0.785497903823853,car,car,0.03,0739_nse_s02_0.03_car_10_n03100240_2425.png
subject-02,1,740,0.78137993812561,chair,chair,0.00,0740_nse_s02_0.00_chair_10_n03376595_6012.png
subject-02,1,741,0.887351036071777,cat,clock,0.60,0741_nse_s02_0.60_clock_10_n04548280_2404.png
subject-02,1,742,0.967041015625,dog,oven,0.60,0742_nse_s02_0.60_oven_10_n04111531_9370.png
subject-02,1,743,0.978829860687256,bear,bottle,0.60,0743_nse_s02_0.60_bottle_10_n02823428_3478.png
subject-02,1,744,0.658586025238037,cat,cat,0.05,0744_nse_s02_0.05_cat_10_n02125311_6393.png
subject-02,1,745,0.932533979415894,airplane,chair,0.20,0745_nse_s02_0.20_chair_10_n02791124_1140.png
subject-02,1,746,0.74040699005127,bear,bear,0.03,0746_nse_s02_0.03_bear_10_n02132136_6459.png
subject-02,1,747,0.759983062744141,car,clock,0.20,0747_nse_s02_0.20_clock_10_n03196217_6741.png
subject-02,1,748,0.887784957885742,bear,bear,0.05,0748_nse_s02_0.05_bear_10_n02134084_15016.png
subject-02,1,749,1.30386996269226,oven,oven,0.00,0749_nse_s02_0.00_oven_10_n04111531_7283.png
subject-02,1,750,0.641484022140503,car,car,0.10,0750_nse_s02_0.10_car_10_n04285008_810.png
subject-02,1,751,0.583554029464722,keyboard,keyboard,0.05,0751_nse_s02_0.05_keyboard_10_n03085013_19504.png
subject-02,1,752,0.661032915115356,bottle,bottle,0.05,0752_nse_s02_0.05_bottle_10_n03983396_3185.png
subject-02,1,753,0.914792776107788,elephant,elephant,0.03,0753_nse_s02_0.03_elephant_10_n02504013_2385.png
subject-02,1,754,0.848810195922852,elephant,cat,0.20,0754_nse_s02_0.20_cat_10_n02123597_11564.png
subject-02,1,755,0.870681047439575,car,clock,0.90,0755_nse_s02_0.90_clock_10_n02708093_6572.png
subject-02,1,756,1.40037393569946,bird,elephant,0.35,0756_nse_s02_0.35_elephant_10_n02504013_4762.png
subject-02,1,757,0.950141191482544,bear,keyboard,0.60,0757_nse_s02_0.60_keyboard_10_n03085013_25066.png
subject-02,1,758,0.647909879684448,bottle,knife,0.05,0758_nse_s02_0.05_knife_10_n03041632_86118.png
subject-02,1,759,0.61978006362915,airplane,airplane,0.00,0759_nse_s02_0.00_airplane_10_n02690373_8446.png
subject-02,1,760,0.655664920806885,bird,bird,0.10,0760_nse_s02_0.10_bird_10_n02002556_5468.png
subject-02,1,761,0.919481992721558,bear,clock,0.90,0761_nse_s02_0.90_clock_10_n04548280_2827.png
subject-02,1,762,1.17719388008118,keyboard,truck,0.10,0762_nse_s02_0.10_truck_10_n04467665_68821.png
subject-02,1,763,0.523061990737915,bird,bird,0.10,0763_nse_s02_0.10_bird_10_n02051845_6333.png
subject-02,1,764,0.534859895706177,clock,clock,0.35,0764_nse_s02_0.35_clock_10_n02708093_4415.png
subject-02,1,765,0.599041938781738,dog,dog,0.00,0765_nse_s02_0.00_dog_10_n02098105_5905.png
subject-02,1,766,0.618565082550049,cat,cat,0.05,0766_nse_s02_0.05_cat_10_n02125311_34464.png
subject-02,1,767,0.808221817016602,airplane,airplane,0.35,0767_nse_s02_0.35_airplane_10_n02690373_2185.png
subject-02,1,768,1.21244716644287,cat,dog,0.90,0768_nse_s02_0.90_dog_10_n02093754_5736.png
subject-02,1,769,0.815896034240723,bear,airplane,0.90,0769_nse_s02_0.90_airplane_10_n02690373_2026.png
subject-02,1,770,0.662007093429565,bird,bird,0.10,0770_nse_s02_0.10_bird_10_n02051845_3479.png
subject-02,1,771,0.627439022064209,elephant,elephant,0.05,0771_nse_s02_0.05_elephant_10_n02504458_7634.png
subject-02,1,772,0.745568037033081,bicycle,bicycle,0.05,0772_nse_s02_0.05_bicycle_10_n03792782_17198.png
subject-02,1,773,0.917015075683594,car,oven,0.60,0773_nse_s02_0.60_oven_10_n04111531_6695.png
subject-02,1,774,0.978900909423828,bicycle,bicycle,0.35,0774_nse_s02_0.35_bicycle_10_n02835271_845.png
subject-02,1,775,0.5311439037323,car,car,0.35,0775_nse_s02_0.35_car_10_n02814533_8881.png
subject-02,1,776,0.672654151916504,bicycle,bicycle,0.03,0776_nse_s02_0.03_bicycle_10_n03792782_12354.png
subject-02,1,777,0.874547004699707,truck,car,0.90,0777_nse_s02_0.90_car_10_n03100240_1065.png
subject-02,1,778,0.626322031021118,bird,bird,0.00,0778_nse_s02_0.00_bird_10_n01820546_4535.png
subject-02,1,779,0.864051103591919,bottle,airplane,0.10,0779_nse_s02_0.10_airplane_10_n02690373_10285.png
subject-02,1,780,1.08972811698914,cat,cat,0.03,0780_nse_s02_0.03_cat_10_n02123159_8257.png
subject-02,1,781,0.883615016937256,dog,dog,0.05,0781_nse_s02_0.05_dog_10_n02087394_6330.png
subject-02,1,782,0.775835037231445,elephant,clock,0.35,0782_nse_s02_0.35_clock_10_n04548280_4747.png
subject-02,1,783,0.801257133483887,truck,keyboard,0.20,0783_nse_s02_0.20_keyboard_10_n04505470_7946.png
subject-02,1,784,0.647014141082764,airplane,airplane,0.05,0784_nse_s02_0.05_airplane_10_n02690373_9535.png
subject-02,1,785,1.36479496955872,chair,chair,0.10,0785_nse_s02_0.10_chair_10_n03376595_15723.png
subject-02,1,786,0.710969924926758,oven,oven,0.20,0786_nse_s02_0.20_oven_10_n04111531_5727.png
subject-02,1,787,1.50005197525024,knife,knife,0.00,0787_nse_s02_0.00_knife_10_n03041632_22330.png
subject-02,1,788,0.670647144317627,bicycle,bicycle,0.35,0788_nse_s02_0.35_bicycle_10_n03792782_20387.png
subject-02,1,789,0.744221925735474,dog,dog,0.03,0789_nse_s02_0.03_dog_10_n02107312_3262.png
subject-02,1,790,0.824090957641602,bicycle,airplane,0.60,0790_nse_s02_0.60_airplane_10_n02690373_5197.png
subject-02,1,791,1.04194903373718,bottle,knife,0.20,0791_nse_s02_0.20_knife_10_n03041632_44269.png
subject-02,1,792,0.715487003326416,bicycle,cat,0.90,0792_nse_s02_0.90_cat_10_n02124075_7020.png
subject-02,1,793,1.1014199256897,keyboard,keyboard,0.10,0793_nse_s02_0.10_keyboard_10_n03085013_2073.png
subject-02,1,794,0.863113880157471,bicycle,bear,0.60,0794_nse_s02_0.60_bear_10_n02132136_2900.png
subject-02,1,795,0.621092796325684,cat,cat,0.00,0795_nse_s02_0.00_cat_10_n02125311_25104.png
subject-02,1,796,1.31282305717468,bird,chair,0.60,0796_nse_s02_0.60_chair_10_n03376595_12341.png
subject-02,1,797,0.862576007843018,cat,oven,0.35,0797_nse_s02_0.35_oven_10_n04111531_13625.png
subject-02,1,798,0.708567142486572,car,car,0.60,0798_nse_s02_0.60_car_10_n02814533_8232.png
subject-02,1,799,0.732775926589966,bird,bird,0.00,0799_nse_s02_0.00_bird_10_n02027492_597.png
subject-02,1,800,0.692147970199585,dog,dog,0.03,0800_nse_s02_0.03_dog_10_n02105056_5636.png
subject-02,1,801,0.686882019042969,car,car,0.10,0801_nse_s02_0.10_car_10_n04285008_7249.png
subject-02,1,802,0.702615022659302,cat,knife,0.90,0802_nse_s02_0.90_knife_10_n03041632_7116.png
subject-02,1,803,0.686513900756836,bird,cat,0.03,0803_nse_s02_0.03_cat_10_n02123597_9664.png
subject-02,1,804,0.700186014175415,bicycle,car,0.20,0804_nse_s02_0.20_car_10_n03100240_4294.png
subject-02,1,805,0.641986846923828,keyboard,keyboard,0.35,0805_nse_s02_0.35_keyboard_10_n03085013_24467.png
subject-02,1,806,0.793779134750366,cat,cat,0.35,0806_nse_s02_0.35_cat_10_n02123394_6376.png
subject-02,1,807,0.607630014419556,car,car,0.20,0807_nse_s02_0.20_car_10_n03100240_16803.png
subject-02,1,808,1.17160892486572,elephant,elephant,0.35,0808_nse_s02_0.35_elephant_10_n02504458_4811.png
subject-02,1,809,0.791373014450073,knife,knife,0.03,0809_nse_s02_0.03_knife_10_n03041632_18141.png
subject-02,1,810,0.637464046478271,chair,chair,0.05,0810_nse_s02_0.05_chair_10_n03376595_2351.png
subject-02,1,811,0.718916177749634,bird,bird,0.03,0811_nse_s02_0.03_bird_10_n01843065_654.png
subject-02,1,812,0.929114103317261,bottle,truck,0.10,0812_nse_s02_0.10_truck_10_n03796401_407.png
subject-02,1,813,0.818608045578003,elephant,elephant,0.10,0813_nse_s02_0.10_elephant_10_n02504013_2394.png
subject-02,1,814,0.710260152816772,keyboard,keyboard,0.20,0814_nse_s02_0.20_keyboard_10_n04505470_578.png
subject-02,1,815,1.31448101997375,chair,oven,0.20,0815_nse_s02_0.20_oven_10_n04111531_2163.png
subject-02,1,816,0.84809398651123,dog,oven,0.05,0816_nse_s02_0.05_oven_10_n04111531_8852.png
subject-02,1,817,0.801737070083618,bird,bird,0.00,0817_nse_s02_0.00_bird_10_n01795545_11076.png
subject-02,1,818,0.652034997940063,bottle,bottle,0.10,0818_nse_s02_0.10_bottle_10_n03983396_9662.png
subject-02,1,819,1.00938415527344,bear,bear,0.35,0819_nse_s02_0.35_bear_10_n02133161_5927.png
subject-02,1,820,1.0712559223175,car,truck,0.60,0820_nse_s02_0.60_truck_10_n04467665_20933.png
subject-02,1,821,0.653025150299072,cat,cat,0.10,0821_nse_s02_0.10_cat_10_n02123394_3611.png
subject-02,1,822,0.698832035064697,dog,dog,0.10,0822_nse_s02_0.10_dog_10_n02105251_5570.png
subject-02,1,823,0.62456488609314,chair,chair,0.00,0823_nse_s02_0.00_chair_10_n04429376_5770.png
subject-02,1,824,1.11041498184204,dog,dog,0.05,0824_nse_s02_0.05_dog_10_n02101388_2968.png
subject-02,1,825,0.844650030136108,car,oven,0.35,0825_nse_s02_0.35_oven_10_n04111531_10583.png
subject-02,1,826,0.99006199836731,car,airplane,0.60,0826_nse_s02_0.60_airplane_10_n02690373_8233.png
subject-02,1,827,1.28800415992737,airplane,truck,0.05,0827_nse_s02_0.05_truck_10_n04467665_62524.png
subject-02,1,828,0.633760929107666,bottle,bottle,0.00,0828_nse_s02_0.00_bottle_10_n02823428_4073.png
subject-02,1,829,0.899698972702026,chair,keyboard,0.05,0829_nse_s02_0.05_keyboard_10_n04505470_4628.png
subject-02,1,830,1.03536486625671,dog,dog,0.90,0830_nse_s02_0.90_dog_10_n02105505_6715.png
subject-02,1,831,0.933037996292114,dog,dog,0.20,0831_nse_s02_0.20_dog_10_n02086079_17983.png
subject-02,1,832,0.866938829421997,keyboard,oven,0.00,0832_nse_s02_0.00_oven_10_n04111531_3270.png
subject-02,1,833,0.732718944549561,bear,bear,0.35,0833_nse_s02_0.35_bear_10_n02132136_2760.png
subject-02,1,834,0.872699022293091,bird,boat,0.10,0834_nse_s02_0.10_boat_10_n02951358_15413.png
subject-02,1,835,0.694401025772095,boat,oven,0.35,0835_nse_s02_0.35_oven_10_n04111531_4148.png
subject-02,1,836,0.772541046142578,bottle,bottle,0.10,0836_nse_s02_0.10_bottle_10_n03983396_4780.png
subject-02,1,837,0.588236093521118,boat,boat,0.00,0837_nse_s02_0.00_boat_10_n03662601_11972.png
subject-02,1,838,0.805996894836426,cat,cat,0.05,0838_nse_s02_0.05_cat_10_n02124075_8799.png
subject-02,1,839,0.845867156982422,dog,dog,0.00,0839_nse_s02_0.00_dog_10_n02087394_2723.png
subject-02,1,840,0.971529006958008,bear,bear,0.90,0840_nse_s02_0.90_bear_10_n02133161_16103.png
subject-02,1,841,0.82526683807373,bear,keyboard,0.90,0841_nse_s02_0.90_keyboard_10_n03085013_20590.png
subject-02,1,842,0.805119037628174,bird,airplane,0.90,0842_nse_s02_0.90_airplane_10_n02690373_4982.png
subject-02,1,843,0.77501106262207,dog,cat,0.05,0843_nse_s02_0.05_cat_10_n02125311_13652.png
subject-02,1,844,1.08084511756897,bird,chair,0.35,0844_nse_s02_0.35_chair_10_n04429376_8124.png
subject-02,1,845,0.770514965057373,chair,keyboard,0.00,0845_nse_s02_0.00_keyboard_10_n04505470_6847.png
subject-02,1,846,0.650235891342163,truck,truck,0.00,0846_nse_s02_0.00_truck_10_n03417042_13151.png
subject-02,1,847,0.85015606880188,clock,clock,0.00,0847_nse_s02_0.00_clock_10_n03196217_9231.png
subject-02,1,848,0.763955116271973,bird,knife,0.60,0848_nse_s02_0.60_knife_10_n03041632_2468.png
subject-02,1,849,0.665800809860229,elephant,elephant,0.20,0849_nse_s02_0.20_elephant_10_n02504013_7210.png
subject-02,1,850,1.11966609954834,bear,bear,0.90,0850_nse_s02_0.90_bear_10_n02132136_4636.png
subject-02,1,851,0.649494171142578,bicycle,bicycle,0.03,0851_nse_s02_0.03_bicycle_10_n02835271_3135.png
subject-02,1,852,0.553423166275024,cat,dog,0.03,0852_nse_s02_0.03_dog_10_n02112350_1654.png
subject-02,1,853,0.88299298286438,airplane,elephant,0.90,0853_nse_s02_0.90_elephant_10_n02504458_2419.png
subject-02,1,854,0.908779859542847,bear,bird,0.90,0854_nse_s02_0.90_bird_10_n01514859_1951.png
subject-02,1,855,0.686619997024536,bicycle,bicycle,0.10,0855_nse_s02_0.10_bicycle_10_n02835271_8324.png
subject-02,1,856,0.678537845611572,truck,truck,0.00,0856_nse_s02_0.00_truck_10_n04467665_242.png
subject-02,1,857,0.820271968841553,cat,bear,0.05,0857_nse_s02_0.05_bear_10_n02133161_2396.png
subject-02,1,858,0.612094163894653,car,car,0.03,0858_nse_s02_0.03_car_10_n02814533_31532.png
subject-02,1,859,0.761932849884033,bird,bird,0.20,0859_nse_s02_0.20_bird_10_n02056570_3286.png
subject-02,1,860,1.47177600860596,clock,bottle,0.05,0860_nse_s02_0.05_bottle_10_n04591713_7010.png
subject-02,1,861,1.27355408668518,airplane,bird,0.90,0861_nse_s02_0.90_bird_10_n01534433_14677.png
subject-02,1,862,1.06570506095886,airplane,knife,0.35,0862_nse_s02_0.35_knife_10_n03041632_45270.png
subject-02,1,863,1.22522282600403,dog,bicycle,0.60,0863_nse_s02_0.60_bicycle_10_n03792782_1099.png
subject-02,1,864,1.1850209236145,clock,bottle,0.90,0864_nse_s02_0.90_bottle_10_n03937543_7493.png
subject-02,1,865,0.685309171676636,bicycle,bicycle,0.20,0865_nse_s02_0.20_bicycle_10_n03792782_11417.png
subject-02,1,866,0.798952102661133,elephant,dog,0.10,0866_nse_s02_0.10_dog_10_n02089867_4717.png
subject-02,1,867,0.674313068389893,bird,bird,0.35,0867_nse_s02_0.35_bird_10_n01819313_358.png
subject-02,1,868,0.808580875396729,truck,truck,0.05,0868_nse_s02_0.05_truck_10_n03796401_30000.png
subject-02,1,869,0.716114044189453,bottle,bottle,0.03,0869_nse_s02_0.03_bottle_10_n04557648_12671.png
subject-02,1,870,0.807898998260498,dog,dog,0.03,0870_nse_s02_0.03_dog_10_n02110806_27169.png
subject-02,1,871,1.17158985137939,clock,oven,0.03,0871_nse_s02_0.03_oven_10_n04111531_10681.png
subject-02,1,872,1.03951001167297,airplane,airplane,0.05,0872_nse_s02_0.05_airplane_10_n02690373_1075.png
subject-02,1,873,1.07936978340149,dog,dog,0.00,0873_nse_s02_0.00_dog_10_n02086240_8303.png
subject-02,1,874,1.08313488960266,bird,boat,0.00,0874_nse_s02_0.00_boat_10_n04273569_11427.png
subject-02,1,875,0.897214889526367,cat,cat,0.20,0875_nse_s02_0.20_cat_10_n02124075_951.png
subject-02,1,876,0.832778930664062,dog,bear,0.05,0876_nse_s02_0.05_bear_10_n02134084_473.png
subject-02,1,877,0.716920137405396,car,car,0.05,0877_nse_s02_0.05_car_10_n02814533_59264.png
subject-02,1,878,0.980240821838379,cat,cat,0.90,0878_nse_s02_0.90_cat_10_n02125311_5259.png
subject-02,1,879,1.40611696243286,elephant,cat,0.60,0879_nse_s02_0.60_cat_10_n02123159_6162.png
subject-02,1,880,0.703942060470581,dog,dog,0.10,0880_nse_s02_0.10_dog_10_n02109525_32744.png
subject-02,1,881,0.793432950973511,airplane,airplane,0.20,0881_nse_s02_0.20_airplane_10_n02690373_9423.png
subject-02,1,882,1.44735312461853,keyboard,keyboard,0.90,0882_nse_s02_0.90_keyboard_10_n04505470_4824.png
subject-02,1,883,1.02514791488647,dog,keyboard,0.90,0883_nse_s02_0.90_keyboard_10_n03085013_18769.png
subject-02,1,884,1.01690793037415,airplane,boat,0.35,0884_nse_s02_0.35_boat_10_n02951358_33559.png
subject-02,1,885,0.762837171554565,airplane,airplane,0.10,0885_nse_s02_0.10_airplane_10_n02690373_6096.png
subject-02,1,886,0.748610019683838,cat,cat,0.10,0886_nse_s02_0.10_cat_10_n02125311_33778.png
subject-02,1,887,0.698474884033203,truck,truck,0.10,0887_nse_s02_0.10_truck_10_n03417042_18348.png
subject-02,1,888,0.780140161514282,elephant,bottle,0.60,0888_nse_s02_0.60_bottle_10_n04560804_4624.png
subject-02,1,889,0.837997913360596,airplane,airplane,0.05,0889_nse_s02_0.05_airplane_10_n02690373_4706.png
subject-02,1,890,0.965676069259644,dog,dog,0.35,0890_nse_s02_0.35_dog_10_n02107312_5759.png
subject-02,1,891,1.23961496353149,chair,keyboard,0.05,0891_nse_s02_0.05_keyboard_10_n03085013_23865.png
subject-02,1,892,0.913512945175171,airplane,airplane,0.35,0892_nse_s02_0.35_airplane_10_n02690373_10079.png
subject-02,1,893,0.781241893768311,clock,clock,0.00,0893_nse_s02_0.00_clock_10_n02708093_1038.png
subject-02,1,894,0.681257963180542,chair,chair,0.10,0894_nse_s02_0.10_chair_10_n04099969_3393.png
subject-02,1,895,0.816930055618286,airplane,boat,0.10,0895_nse_s02_0.10_boat_10_n04612504_6308.png
subject-02,1,896,0.666821002960205,bottle,bottle,0.20,0896_nse_s02_0.20_bottle_10_n02823428_4165.png
subject-02,1,897,0.844543933868408,elephant,elephant,0.90,0897_nse_s02_0.90_elephant_10_n02504458_4139.png
subject-02,1,898,0.800388097763062,elephant,oven,0.05,0898_nse_s02_0.05_oven_10_n04111531_24096.png
subject-02,1,899,0.840085983276367,elephant,elephant,0.20,0899_nse_s02_0.20_elephant_10_n02504458_2799.png
subject-02,1,900,0.829796075820923,bear,truck,0.90,0900_nse_s02_0.90_truck_10_n03796401_1446.png
subject-02,1,901,1.27984094619751,dog,truck,0.35,0901_nse_s02_0.35_truck_10_n04467665_450.png
subject-02,1,902,1.25746297836304,elephant,knife,0.90,0902_nse_s02_0.90_knife_10_n03041632_27960.png
subject-02,1,903,0.643440008163452,bear,bear,0.10,0903_nse_s02_0.10_bear_10_n02134084_9127.png
subject-02,1,904,1.07319903373718,dog,dog,0.10,0904_nse_s02_0.10_dog_10_n02092339_401.png
subject-02,1,905,1.00713205337524,dog,truck,0.35,0905_nse_s02_0.35_truck_10_n03417042_10751.png
subject-02,1,906,0.976851940155029,bear,cat,0.35,0906_nse_s02_0.35_cat_10_n02123394_3885.png
subject-02,1,907,0.840754985809326,airplane,bird,0.35,0907_nse_s02_0.35_bird_10_n02025239_18436.png
subject-02,1,908,0.906550884246826,elephant,elephant,0.05,0908_nse_s02_0.05_elephant_10_n02504013_19753.png
subject-02,1,909,0.814342021942139,dog,clock,0.90,0909_nse_s02_0.90_clock_10_n04548280_942.png
subject-02,1,910,0.618345022201538,car,car,0.10,0910_nse_s02_0.10_car_10_n03100240_4594.png
subject-02,1,911,0.703827857971191,car,car,0.05,0911_nse_s02_0.05_car_10_n03100240_4173.png
subject-02,1,912,0.677597999572754,boat,boat,0.00,0912_nse_s02_0.00_boat_10_n04612504_7446.png
subject-02,1,913,0.569522857666016,clock,clock,0.05,0913_nse_s02_0.05_clock_10_n02708093_1313.png
subject-02,1,914,0.7552330493927,car,car,0.35,0914_nse_s02_0.35_car_10_n03100240_16653.png
subject-02,1,915,1.23117899894714,cat,bird,0.20,0915_nse_s02_0.20_bird_10_n01797886_551.png
subject-02,1,916,0.802925825119019,dog,dog,0.05,0916_nse_s02_0.05_dog_10_n02086646_4881.png
subject-02,1,917,0.796777963638306,elephant,dog,0.20,0917_nse_s02_0.20_dog_10_n02093256_8061.png
subject-02,1,918,1.15650296211243,bottle,bottle,0.00,0918_nse_s02_0.00_bottle_10_n03983396_5548.png
subject-02,1,919,1.28426814079285,oven,oven,0.00,0919_nse_s02_0.00_oven_10_n04111531_9611.png
subject-02,1,920,0.642203092575073,airplane,airplane,0.03,0920_nse_s02_0.03_airplane_10_n02690373_1983.png
subject-02,1,921,0.974047899246216,airplane,truck,0.60,0921_nse_s02_0.60_truck_10_n04467665_37833.png
subject-02,1,922,0.711675882339478,chair,bottle,0.20,0922_nse_s02_0.20_bottle_10_n04557648_954.png
subject-02,1,923,0.725619792938232,bear,dog,0.35,0923_nse_s02_0.35_dog_10_n02110958_6868.png
subject-02,1,924,0.829360961914062,dog,bottle,0.60,0924_nse_s02_0.60_bottle_10_n04557648_4356.png
subject-02,1,925,0.929161071777344,dog,cat,0.00,0925_nse_s02_0.00_cat_10_n02123159_5799.png
subject-02,1,926,0.884997844696045,bottle,bottle,0.05,0926_nse_s02_0.05_bottle_10_n04560804_14729.png
subject-02,1,927,1.23287510871887,knife,knife,0.05,0927_nse_s02_0.05_knife_10_n03041632_19098.png
subject-02,1,928,1.25083708763123,bird,car,0.90,0928_nse_s02_0.90_car_10_n04285008_17052.png
subject-02,1,929,0.862686157226562,chair,truck,0.05,0929_nse_s02_0.05_truck_10_n03417042_94.png
subject-02,1,930,0.826326847076416,bottle,bottle,0.35,0930_nse_s02_0.35_bottle_10_n04591713_7121.png
subject-02,1,931,0.92821478843689,airplane,airplane,0.10,0931_nse_s02_0.10_airplane_10_n02690373_3818.png
subject-02,1,932,0.789874076843262,bear,bear,0.03,0932_nse_s02_0.03_bear_10_n02132136_23078.png
subject-02,1,933,0.815780878067017,cat,cat,0.20,0933_nse_s02_0.20_cat_10_n02124075_12622.png
subject-02,1,934,0.943617105484009,clock,clock,0.20,0934_nse_s02_0.20_clock_10_n04548280_8649.png
subject-02,1,935,0.729357957839966,airplane,airplane,0.03,0935_nse_s02_0.03_airplane_10_n02690373_6755.png
subject-02,1,936,0.893106937408447,elephant,dog,0.35,0936_nse_s02_0.35_dog_10_n02105855_9326.png
subject-02,1,937,0.762868881225586,elephant,elephant,0.03,0937_nse_s02_0.03_elephant_10_n02504458_2135.png
subject-02,1,938,0.620850086212158,clock,clock,0.10,0938_nse_s02_0.10_clock_10_n04548280_1114.png
subject-02,1,939,0.848681926727295,knife,knife,0.10,0939_nse_s02_0.10_knife_10_n03041632_29862.png
subject-02,1,940,0.920457124710083,elephant,oven,0.90,0940_nse_s02_0.90_oven_10_n04111531_22916.png
subject-02,1,941,0.994211912155151,bird,bicycle,0.60,0941_nse_s02_0.60_bicycle_10_n02835271_9237.png
subject-02,1,942,0.732041120529175,elephant,bird,0.35,0942_nse_s02_0.35_bird_10_n01828970_11221.png
subject-02,1,943,0.952110052108765,bottle,truck,0.10,0943_nse_s02_0.10_truck_10_n03417042_7335.png
subject-02,1,944,1.37767004966736,bird,bottle,0.20,0944_nse_s02_0.20_bottle_10_n04557648_11992.png
subject-02,1,945,0.803553819656372,knife,oven,0.35,0945_nse_s02_0.35_oven_10_n04111531_21404.png
subject-02,1,946,1.11322712898254,knife,clock,0.20,0946_nse_s02_0.20_clock_10_n03196217_445.png
subject-02,1,947,1.34701180458069,truck,truck,0.10,0947_nse_s02_0.10_truck_10_n03417042_8139.png
subject-02,1,948,0.765185117721558,boat,boat,0.35,0948_nse_s02_0.35_boat_10_n03344393_4143.png
subject-02,1,949,0.880792856216431,truck,keyboard,0.60,0949_nse_s02_0.60_keyboard_10_n03085013_20363.png
subject-02,1,950,0.85859489440918,bird,oven,0.20,0950_nse_s02_0.20_oven_10_n04111531_4250.png
subject-02,1,951,0.594233989715576,airplane,boat,0.10,0951_nse_s02_0.10_boat_10_n04273569_1012.png
subject-02,1,952,0.936225175857544,bird,bear,0.35,0952_nse_s02_0.35_bear_10_n02133161_19418.png
subject-02,1,953,0.930107116699219,truck,truck,0.03,0953_nse_s02_0.03_truck_10_n03417042_11704.png
subject-02,1,954,0.767786026000977,bird,bird,0.05,0954_nse_s02_0.05_bird_10_n01828970_11339.png
subject-02,1,955,0.617923974990845,cat,cat,0.03,0955_nse_s02_0.03_cat_10_n02123045_2719.png
subject-02,1,956,0.907550096511841,dog,dog,0.20,0956_nse_s02_0.20_dog_10_n02101556_4066.png
subject-02,1,957,0.941200017929077,bottle,bottle,0.05,0957_nse_s02_0.05_bottle_10_n04579145_5289.png
subject-02,1,958,1.21937084197998,bird,elephant,0.90,0958_nse_s02_0.90_elephant_10_n02504013_1125.png
subject-02,1,959,0.776739120483398,knife,knife,0.00,0959_nse_s02_0.00_knife_10_n03041632_45636.png
subject-02,1,960,0.65474009513855,bird,bird,0.03,0960_nse_s02_0.03_bird_10_n01558993_34885.png
subject-02,1,961,0.673971176147461,airplane,airplane,0.03,0961_nse_s02_0.03_airplane_10_n02690373_3860.png
subject-02,1,962,0.761877059936523,elephant,elephant,0.05,0962_nse_s02_0.05_elephant_10_n02504013_5918.png
subject-02,1,963,0.635701894760132,cat,keyboard,0.90,0963_nse_s02_0.90_keyboard_10_n03085013_20727.png
subject-02,1,964,0.615706920623779,airplane,boat,0.20,0964_nse_s02_0.20_boat_10_n03344393_9560.png
subject-02,1,965,0.969148874282837,dog,airplane,0.90,0965_nse_s02_0.90_airplane_10_n02690373_18234.png
subject-02,1,966,0.873112201690674,dog,knife,0.35,0966_nse_s02_0.35_knife_10_n03041632_54732.png
subject-02,1,967,0.798822164535522,cat,bottle,0.60,0967_nse_s02_0.60_bottle_10_n04591713_765.png
subject-02,1,968,0.746629953384399,elephant,bird,0.90,0968_nse_s02_0.90_bird_10_n01833805_5088.png
subject-02,1,969,0.682431936264038,bottle,bottle,0.10,0969_nse_s02_0.10_bottle_10_n03983396_10251.png
subject-02,1,970,0.71812891960144,chair,chair,0.00,0970_nse_s02_0.00_chair_10_n04099969_14288.png
subject-02,1,971,0.990132808685303,chair,oven,0.20,0971_nse_s02_0.20_oven_10_n04111531_8330.png
subject-02,1,972,0.707990169525146,elephant,clock,0.60,0972_nse_s02_0.60_clock_10_n02708093_1418.png
subject-02,1,973,0.620151042938232,bird,bird,0.10,0973_nse_s02_0.10_bird_10_n02018795_14312.png
subject-02,1,974,0.589637994766235,airplane,boat,0.10,0974_nse_s02_0.10_boat_10_n03662601_3471.png
subject-02,1,975,0.803772211074829,bear,bear,0.05,0975_nse_s02_0.05_bear_10_n02132136_3224.png
subject-02,1,976,1.13511204719543,bear,boat,0.90,0976_nse_s02_0.90_boat_10_n04612504_4250.png
subject-02,1,977,1.05901598930359,dog,dog,0.10,0977_nse_s02_0.10_dog_10_n02097130_7349.png
subject-02,1,978,0.674731016159058,keyboard,keyboard,0.03,0978_nse_s02_0.03_keyboard_10_n03085013_23697.png
subject-02,1,979,1.02487683296204,car,airplane,0.60,0979_nse_s02_0.60_airplane_10_n02690373_6285.png
subject-02,1,980,1.16242814064026,car,car,0.00,0980_nse_s02_0.00_car_10_n04285008_8700.png
subject-02,1,981,1.00837993621826,keyboard,keyboard,0.05,0981_nse_s02_0.05_keyboard_10_n03085013_6857.png
subject-02,1,982,0.846050024032593,keyboard,keyboard,0.10,0982_nse_s02_0.10_keyboard_10_n03085013_25476.png
subject-02,1,983,0.775803089141846,bear,bear,0.00,0983_nse_s02_0.00_bear_10_n02134084_12389.png
subject-02,1,984,1.05408716201782,bear,dog,0.90,0984_nse_s02_0.90_dog_10_n02105162_10475.png
subject-02,1,985,0.743565082550049,chair,chair,0.05,0985_nse_s02_0.05_chair_10_n04429376_30921.png
subject-02,1,986,0.693197011947632,car,car,0.20,0986_nse_s02_0.20_car_10_n04285008_5788.png
subject-02,1,987,1.35712099075317,bear,knife,0.90,0987_nse_s02_0.90_knife_10_n03041632_41493.png
subject-02,1,988,0.605374813079834,elephant,elephant,0.03,0988_nse_s02_0.03_elephant_10_n02504458_7822.png
subject-02,1,989,0.890787124633789,keyboard,keyboard,0.20,0989_nse_s02_0.20_keyboard_10_n04505470_4679.png
subject-02,1,990,0.878596782684326,bear,boat,0.60,0990_nse_s02_0.60_boat_10_n04273569_7296.png
subject-02,1,991,0.73471999168396,truck,truck,0.00,0991_nse_s02_0.00_truck_10_n03796401_27811.png
subject-02,1,992,0.862220048904419,boat,boat,0.03,0992_nse_s02_0.03_boat_10_n04273569_4348.png
subject-02,1,993,0.872100114822388,bear,bicycle,0.35,0993_nse_s02_0.35_bicycle_10_n03792782_10367.png
subject-02,1,994,0.984015941619873,dog,bear,0.35,0994_nse_s02_0.35_bear_10_n02134418_2502.png
subject-02,1,995,0.735763072967529,bottle,bottle,0.05,0995_nse_s02_0.05_bottle_10_n03983396_3109.png
subject-02,1,996,0.781358957290649,elephant,bottle,0.60,0996_nse_s02_0.60_bottle_10_n04560804_30885.png
subject-02,1,997,1.18125200271606,airplane,airplane,0.20,0997_nse_s02_0.20_airplane_10_n02690373_15097.png
subject-02,1,998,0.7569739818573,bear,cat,0.60,0998_nse_s02_0.60_cat_10_n02123045_5913.png
subject-02,1,999,0.718852043151855,airplane,airplane,0.05,0999_nse_s02_0.05_airplane_10_n02690373_932.png
subject-02,1,1000,0.760532140731812,boat,boat,0.20,1000_nse_s02_0.20_boat_10_n02951358_28889.png
subject-02,1,1001,0.8125,elephant,cat,0.35,1001_nse_s02_0.35_cat_10_n02123159_6439.png
subject-02,1,1002,0.52629017829895,car,car,0.00,1002_nse_s02_0.00_car_10_n04285008_10905.png
subject-02,1,1003,0.562501907348633,keyboard,keyboard,0.10,1003_nse_s02_0.10_keyboard_10_n04505470_4507.png
subject-02,1,1004,0.767884969711304,airplane,airplane,0.35,1004_nse_s02_0.35_airplane_10_n02690373_3212.png
subject-02,1,1005,0.791876792907715,keyboard,keyboard,0.20,1005_nse_s02_0.20_keyboard_10_n04505470_9570.png
subject-02,1,1006,0.659575939178467,car,car,0.20,1006_nse_s02_0.20_car_10_n04285008_13629.png
subject-02,1,1007,0.575446844100952,keyboard,keyboard,0.03,1007_nse_s02_0.03_keyboard_10_n03085013_23119.png
subject-02,1,1008,0.821095943450928,bear,bicycle,0.90,1008_nse_s02_0.90_bicycle_10_n02835271_542.png
subject-02,1,1009,1.21494102478027,chair,oven,0.00,1009_nse_s02_0.00_oven_10_n04111531_6313.png
subject-02,1,1010,0.627218008041382,airplane,airplane,0.00,1010_nse_s02_0.00_airplane_10_n02690373_563.png
subject-02,1,1011,1.00281190872192,chair,chair,0.03,1011_nse_s02_0.03_chair_10_n02791124_7483.png
subject-02,1,1012,0.668368101119995,dog,dog,0.03,1012_nse_s02_0.03_dog_10_n02092002_15319.png
subject-02,1,1013,0.984318971633911,cat,clock,0.90,1013_nse_s02_0.90_clock_10_n04548280_6287.png
subject-02,1,1014,0.634299993515015,keyboard,keyboard,0.00,1014_nse_s02_0.00_keyboard_10_n04505470_4379.png
subject-02,1,1015,0.971847057342529,airplane,car,0.60,1015_nse_s02_0.60_car_10_n02814533_41478.png
subject-02,1,1016,1.1137490272522,dog,truck,0.60,1016_nse_s02_0.60_truck_10_n04467665_33099.png
subject-02,1,1017,1.30349397659302,clock,chair,0.20,1017_nse_s02_0.20_chair_10_n04429376_19459.png
