subj,Session,trial,rt,object_response,category,condition,imagename
subject-02,1,1,0.944271087646484,keyboard,clock,1.5,0001_hp_s02_1.5_clock_10_n03196217_8943.png
subject-02,1,2,0.810165882110596,keyboard,keyboard,1,0002_hp_s02_1_keyboard_10_n03085013_24099.png
subject-02,1,3,0.739845037460327,clock,airplane,0.4,0003_hp_s02_0.4_airplane_10_n02690373_4964.png
subject-02,1,4,0.909528017044067,boat,bear,0.55,0004_hp_s02_0.55_bear_10_n02132136_9311.png
subject-02,1,5,0.571558952331543,oven,oven,inf,0005_hp_s02_inf_oven_10_n04111531_6454.png
subject-02,1,6,0.957391023635864,boat,airplane,0.55,0006_hp_s02_0.55_airplane_10_n02690373_1663.png
subject-02,1,7,0.712958097457886,boat,boat,1,0007_hp_s02_1_boat_10_n04612504_31680.png
subject-02,1,8,0.964737176895142,airplane,bear,0.4,0008_hp_s02_0.4_bear_10_n02134084_7805.png
subject-02,1,9,0.782567977905273,cat,truck,0.4,0009_hp_s02_0.4_truck_10_n04467665_42126.png
subject-02,1,10,0.756536960601807,keyboard,keyboard,3,0010_hp_s02_3_keyboard_10_n03085013_22949.png
subject-02,1,11,1.02641916275024,car,truck,1,0011_hp_s02_1_truck_10_n03417042_22709.png
subject-02,1,12,0.710288047790527,airplane,airplane,3,0012_hp_s02_3_airplane_10_n02690373_3153.png
subject-02,1,13,1.0239520072937,dog,dog,inf,0013_hp_s02_inf_dog_10_n02086646_5897.png
subject-02,1,14,1.29158210754395,bicycle,bottle,0.55,0014_hp_s02_0.55_bottle_10_n04560804_13142.png
subject-02,1,15,0.851460933685303,car,car,inf,0015_hp_s02_inf_car_10_n02814533_3560.png
subject-02,1,16,0.81351900100708,bottle,bottle,1,0016_hp_s02_1_bottle_10_n04591713_17676.png
subject-02,1,17,1.02156496047974,chair,truck,0.4,0017_hp_s02_0.4_truck_10_n03417042_22297.png
subject-02,1,18,0.922941923141479,elephant,elephant,3,0018_hp_s02_3_elephant_10_n02504458_6762.png
subject-02,1,19,0.624826908111572,boat,boat,1.5,0019_hp_s02_1.5_boat_10_n04273569_10149.png
subject-02,1,20,0.744951009750366,boat,boat,inf,0020_hp_s02_inf_boat_10_n04612504_31305.png
subject-02,1,21,1.02448391914368,bear,airplane,0.45,0021_hp_s02_0.45_airplane_10_n02690373_863.png
subject-02,1,22,1.26432585716248,bear,dog,0.55,0022_hp_s02_0.55_dog_10_n02097298_6933.png
subject-02,1,23,1.20234513282776,chair,oven,0.55,0023_hp_s02_0.55_oven_10_n04111531_9867.png
subject-02,1,24,1.31774091720581,bird,bird,3,0024_hp_s02_3_bird_10_n01530575_3831.png
subject-02,1,25,NaN,na,bicycle,0.4,0025_hp_s02_0.4_bicycle_10_n03792782_2327.png
subject-02,1,26,1.42135000228882,knife,knife,3,0026_hp_s02_3_knife_10_n03041632_31363.png
subject-02,1,27,1.26327896118164,bear,bird,0.7,0027_hp_s02_0.7_bird_10_n01798484_18666.png
subject-02,1,28,1.14117288589478,bear,oven,0.45,0028_hp_s02_0.45_oven_10_n04111531_4148.png
subject-02,1,29,1.189129114151,chair,clock,0.45,0029_hp_s02_0.45_clock_10_n02708093_2926.png
subject-02,1,30,0.934720039367676,elephant,airplane,0.4,0030_hp_s02_0.4_airplane_10_n02690373_17718.png
subject-02,1,31,0.642569065093994,clock,clock,0.55,0031_hp_s02_0.55_clock_10_n02708093_5236.png
subject-02,1,32,1.07245397567749,oven,oven,1.5,0032_hp_s02_1.5_oven_10_n04111531_14959.png
subject-02,1,33,0.8420569896698,elephant,bear,3,0033_hp_s02_3_bear_10_n02134418_3723.png
subject-02,1,34,1.01013588905334,airplane,elephant,0.4,0034_hp_s02_0.4_elephant_10_n02504458_3163.png
subject-02,1,35,0.899975061416626,keyboard,keyboard,0.7,0035_hp_s02_0.7_keyboard_10_n04505470_4966.png
subject-02,1,36,1.01380109786987,car,oven,0.45,0036_hp_s02_0.45_oven_10_n04111531_4955.png
subject-02,1,37,0.627830028533936,bird,dog,0.45,0037_hp_s02_0.45_dog_10_n02111129_6881.png
subject-02,1,38,0.709287881851196,dog,elephant,0.4,0038_hp_s02_0.4_elephant_10_n02504458_2041.png
subject-02,1,39,0.60522985458374,bottle,truck,0.4,0039_hp_s02_0.4_truck_10_n04467665_70880.png
subject-02,1,40,1.06298613548279,truck,bird,0.4,0040_hp_s02_0.4_bird_10_n01828970_8669.png
subject-02,1,41,1.25699591636658,truck,airplane,0.55,0041_hp_s02_0.55_airplane_10_n02690373_7685.png
subject-02,1,42,0.878468990325928,bird,dog,3,0042_hp_s02_3_dog_10_n02096294_1275.png
subject-02,1,43,1.136234998703,knife,bottle,0.4,0043_hp_s02_0.4_bottle_10_n02823428_11.png
subject-02,1,44,0.77406907081604,bear,bear,0.4,0044_hp_s02_0.4_bear_10_n02132136_5612.png
subject-02,1,45,0.65401291847229,clock,clock,3,0045_hp_s02_3_clock_10_n02708093_3043.png
subject-02,1,46,0.631733894348145,oven,oven,inf,0046_hp_s02_inf_oven_10_n04111531_2447.png
subject-02,1,47,0.919927835464478,oven,knife,inf,0047_hp_s02_inf_knife_10_n03041632_23968.png
subject-02,1,48,NaN,na,dog,1.5,0048_hp_s02_1.5_dog_10_n02110063_11495.png
subject-02,1,49,1.1951379776001,dog,clock,0.45,0049_hp_s02_0.45_clock_10_n04548280_2399.png
subject-02,1,50,0.715023994445801,boat,boat,1,0050_hp_s02_1_boat_10_n02951358_7320.png
subject-02,1,51,0.901098966598511,bird,bird,inf,0051_hp_s02_inf_bird_10_n02056570_11311.png
subject-02,1,52,1.19888186454773,cat,bear,0.7,0052_hp_s02_0.7_bear_10_n02134084_5794.png
subject-02,1,53,0.804496049880981,bear,elephant,0.45,0053_hp_s02_0.45_elephant_10_n02504013_4392.png
subject-02,1,54,1.02031898498535,airplane,bottle,0.55,0054_hp_s02_0.55_bottle_10_n02823428_1078.png
subject-02,1,55,1.50007891654968,cat,cat,1,0055_hp_s02_1_cat_10_n02123597_647.png
subject-02,1,56,1.25985097885132,oven,oven,1,0056_hp_s02_1_oven_10_n04111531_891.png
subject-02,1,57,0.763693809509277,car,elephant,0.4,0057_hp_s02_0.4_elephant_10_n02504458_63.png
subject-02,1,58,0.86746883392334,knife,dog,0.4,0058_hp_s02_0.4_dog_10_n02091032_4179.png
subject-02,1,59,0.777518033981323,keyboard,keyboard,3,0059_hp_s02_3_keyboard_10_n03085013_18741.png
subject-02,1,60,1.00119614601135,keyboard,keyboard,0.7,0060_hp_s02_0.7_keyboard_10_n04505470_4569.png
subject-02,1,61,1.38142085075378,bear,bear,1,0061_hp_s02_1_bear_10_n02134418_971.png
subject-02,1,62,0.838948011398315,cat,cat,1.5,0062_hp_s02_1.5_cat_10_n02125311_4034.png
subject-02,1,63,1.32492804527283,bicycle,bicycle,0.7,0063_hp_s02_0.7_bicycle_10_n02835271_4656.png
subject-02,1,64,0.664330959320068,keyboard,keyboard,1,0064_hp_s02_1_keyboard_10_n03085013_22928.png
subject-02,1,65,0.802273988723755,boat,car,0.45,0065_hp_s02_0.45_car_10_n03100240_1856.png
subject-02,1,66,1.01620006561279,airplane,clock,0.55,0066_hp_s02_0.55_clock_10_n04548280_3248.png
subject-02,1,67,0.865978002548218,cat,bear,1,0067_hp_s02_1_bear_10_n02134084_3795.png
subject-02,1,68,1.00407791137695,bird,bird,1,0068_hp_s02_1_bird_10_n02027492_4897.png
subject-02,1,69,0.6476149559021,dog,knife,0.4,0069_hp_s02_0.4_knife_10_n03041632_32197.png
subject-02,1,70,1.01733303070068,car,car,0.7,0070_hp_s02_0.7_car_10_n02814533_39933.png
subject-02,1,71,0.977066993713379,elephant,elephant,1,0071_hp_s02_1_elephant_10_n02504458_6301.png
subject-02,1,72,0.852792024612427,knife,knife,inf,0072_hp_s02_inf_knife_10_n03041632_40450.png
subject-02,1,73,1.20079898834229,bear,bear,0.7,0073_hp_s02_0.7_bear_10_n02134084_5004.png
subject-02,1,74,0.796591997146606,bird,bird,1,0074_hp_s02_1_bird_10_n01558993_12930.png
subject-02,1,75,0.708323955535889,car,airplane,0.45,0075_hp_s02_0.45_airplane_10_n02690373_5177.png
subject-02,1,76,0.812484979629517,airplane,airplane,1,0076_hp_s02_1_airplane_10_n02690373_2468.png
subject-02,1,77,0.778292894363403,keyboard,elephant,0.45,0077_hp_s02_0.45_elephant_10_n02504458_9094.png
subject-02,1,78,1.43981599807739,cat,knife,0.55,0078_hp_s02_0.55_knife_10_n03041632_17338.png
subject-02,1,79,0.953577995300293,oven,oven,1,0079_hp_s02_1_oven_10_n04111531_2116.png
subject-02,1,80,0.967257022857666,bird,bicycle,0.55,0080_hp_s02_0.55_bicycle_10_n03792782_10876.png
subject-02,1,81,0.970041990280151,keyboard,boat,1,0081_hp_s02_1_boat_10_n03662601_34676.png
subject-02,1,82,1.05373311042786,boat,boat,0.45,0082_hp_s02_0.45_boat_10_n03344393_381.png
subject-02,1,83,0.661842107772827,boat,boat,1.5,0083_hp_s02_1.5_boat_10_n04273569_1233.png
subject-02,1,84,0.901607036590576,bicycle,bicycle,1.5,0084_hp_s02_1.5_bicycle_10_n03792782_1983.png
subject-02,1,85,0.939097166061401,car,bicycle,0.45,0085_hp_s02_0.45_bicycle_10_n02835271_3570.png
subject-02,1,86,1.09686088562012,dog,oven,0.4,0086_hp_s02_0.4_oven_10_n04111531_15569.png
subject-02,1,87,0.71875,bear,elephant,0.7,0087_hp_s02_0.7_elephant_10_n02504013_10331.png
subject-02,1,88,0.569070100784302,cat,cat,inf,0088_hp_s02_inf_cat_10_n02123394_2765.png
subject-02,1,89,0.87469482421875,bottle,bottle,1.5,0089_hp_s02_1.5_bottle_10_n04579145_1174.png
subject-02,1,90,0.59028697013855,chair,chair,inf,0090_hp_s02_inf_chair_10_n03376595_9926.png
subject-02,1,91,0.804305076599121,oven,bear,inf,0091_hp_s02_inf_bear_10_n02134084_14888.png
subject-02,1,92,0.675937175750732,truck,truck,inf,0092_hp_s02_inf_truck_10_n03417042_5257.png
subject-02,1,93,1.11979293823242,dog,dog,1.5,0093_hp_s02_1.5_dog_10_n02099601_2805.png
subject-02,1,94,0.945948839187622,truck,truck,1.5,0094_hp_s02_1.5_truck_10_n03417042_1770.png
subject-02,1,95,1.06739211082458,boat,oven,0.45,0095_hp_s02_0.45_oven_10_n04111531_9314.png
subject-02,1,96,1.29752397537231,chair,oven,inf,0096_hp_s02_inf_oven_10_n04111531_7741.png
subject-02,1,97,0.983258008956909,oven,chair,0.55,0097_hp_s02_0.55_chair_10_n04099969_34144.png
subject-02,1,98,1.44081401824951,bird,knife,1.5,0098_hp_s02_1.5_knife_10_n03041632_23667.png
subject-02,1,99,NaN,na,truck,1.5,0099_hp_s02_1.5_truck_10_n03417042_5249.png
subject-02,1,100,1.01277589797974,bear,oven,0.45,0100_hp_s02_0.45_oven_10_n04111531_14435.png
subject-02,1,101,0.790347814559937,keyboard,keyboard,0.7,0101_hp_s02_0.7_keyboard_10_n03085013_22067.png
subject-02,1,102,1.05833578109741,elephant,dog,0.45,0102_hp_s02_0.45_dog_10_n02091244_1455.png
subject-02,1,103,1.43172001838684,oven,truck,0.45,0103_hp_s02_0.45_truck_10_n04467665_46192.png
subject-02,1,104,1.27172207832336,dog,dog,1,0104_hp_s02_1_dog_10_n02099267_14149.png
subject-02,1,105,1.26737904548645,chair,clock,0.55,0105_hp_s02_0.55_clock_10_n03196217_8072.png
subject-02,1,106,0.749520063400269,bear,bear,1.5,0106_hp_s02_1.5_bear_10_n02133161_1970.png
subject-02,1,107,1.43535709381104,bear,dog,0.4,0107_hp_s02_0.4_dog_10_n02085936_4391.png
subject-02,1,108,NaN,na,knife,3,0108_hp_s02_3_knife_10_n03041632_24646.png
subject-02,1,109,NaN,na,oven,0.45,0109_hp_s02_0.45_oven_10_n04111531_3671.png
subject-02,1,110,0.820617198944092,truck,truck,1.5,0110_hp_s02_1.5_truck_10_n04467665_40361.png
subject-02,1,111,0.896317958831787,dog,bottle,0.45,0111_hp_s02_0.45_bottle_10_n04591713_475.png
subject-02,1,112,0.406197071075439,cat,bicycle,0.45,0112_hp_s02_0.45_bicycle_10_n03792782_44296.png
subject-02,1,113,0.830012083053589,car,car,0.7,0113_hp_s02_0.7_car_10_n04285008_6320.png
subject-02,1,114,0.779924869537354,bird,bird,0.55,0114_hp_s02_0.55_bird_10_n01833805_6395.png
subject-02,1,115,0.941622018814087,boat,elephant,0.55,0115_hp_s02_0.55_elephant_10_n02504013_2369.png
subject-02,1,116,0.617326974868774,oven,bottle,0.4,0116_hp_s02_0.4_bottle_10_n04591713_7528.png
subject-02,1,117,0.661562919616699,boat,boat,1.5,0117_hp_s02_1.5_boat_10_n03344393_7659.png
subject-02,1,118,0.911080121994019,boat,truck,0.45,0118_hp_s02_0.45_truck_10_n03417042_2315.png
subject-02,1,119,0.817135095596313,oven,oven,3,0119_hp_s02_3_oven_10_n04111531_4421.png
subject-02,1,120,0.666745901107788,bear,boat,0.55,0120_hp_s02_0.55_boat_10_n04273569_18089.png
subject-02,1,121,0.694533824920654,car,car,1.5,0121_hp_s02_1.5_car_10_n02814533_70322.png
subject-02,1,122,0.726415872573853,bicycle,bicycle,inf,0122_hp_s02_inf_bicycle_10_n02835271_13793.png
subject-02,1,123,0.678024053573608,boat,boat,1,0123_hp_s02_1_boat_10_n03662601_18924.png
subject-02,1,124,0.773916959762573,chair,bird,0.45,0124_hp_s02_0.45_bird_10_n01855032_4295.png
subject-02,1,125,1.12208986282349,clock,knife,3,0125_hp_s02_3_knife_10_n03041632_18468.png
subject-02,1,126,1.04972887039185,bicycle,bird,0.7,0126_hp_s02_0.7_bird_10_n01855032_1096.png
subject-02,1,127,0.985313892364502,elephant,elephant,0.55,0127_hp_s02_0.55_elephant_10_n02504458_3092.png
subject-02,1,128,0.629086971282959,boat,truck,0.7,0128_hp_s02_0.7_truck_10_n03417042_10958.png
subject-02,1,129,0.783114910125732,bear,bear,inf,0129_hp_s02_inf_bear_10_n02132136_13370.png
subject-02,1,130,1.12072992324829,oven,oven,inf,0130_hp_s02_inf_oven_10_n04111531_5802.png
subject-02,1,131,0.790657997131348,airplane,airplane,1,0131_hp_s02_1_airplane_10_n02690373_10210.png
subject-02,1,132,0.576836824417114,oven,oven,3,0132_hp_s02_3_oven_10_n04111531_7298.png
subject-02,1,133,0.840147018432617,dog,bear,0.4,0133_hp_s02_0.4_bear_10_n02133161_24490.png
subject-02,1,134,0.872366905212402,bird,bird,0.7,0134_hp_s02_0.7_bird_10_n02009229_6029.png
subject-02,1,135,0.58777904510498,bear,bicycle,0.4,0135_hp_s02_0.4_bicycle_10_n03792782_19709.png
subject-02,1,136,0.696008920669556,bear,bear,0.55,0136_hp_s02_0.55_bear_10_n02132136_20826.png
subject-02,1,137,0.743438959121704,boat,car,1,0137_hp_s02_1_car_10_n04285008_6200.png
subject-02,1,138,0.819519996643066,truck,dog,0.45,0138_hp_s02_0.45_dog_10_n02094258_4142.png
subject-02,1,139,0.781101942062378,keyboard,keyboard,inf,0139_hp_s02_inf_keyboard_10_n03085013_23877.png
subject-02,1,140,0.786752939224243,elephant,elephant,inf,0140_hp_s02_inf_elephant_10_n02504458_1271.png
subject-02,1,141,0.932997941970825,airplane,airplane,inf,0141_hp_s02_inf_airplane_10_n02690373_734.png
subject-02,1,142,1.15680003166199,airplane,airplane,0.7,0142_hp_s02_0.7_airplane_10_n02690373_6328.png
subject-02,1,143,0.78228497505188,chair,chair,inf,0143_hp_s02_inf_chair_10_n03376595_10769.png
subject-02,1,144,0.818207979202271,oven,bicycle,0.45,0144_hp_s02_0.45_bicycle_10_n03792782_67327.png
subject-02,1,145,0.959837913513184,bird,cat,1,0145_hp_s02_1_cat_10_n02123159_3454.png
subject-02,1,146,0.617712020874023,keyboard,keyboard,3,0146_hp_s02_3_keyboard_10_n03085013_5738.png
subject-02,1,147,0.640000104904175,cat,boat,0.4,0147_hp_s02_0.4_boat_10_n03662601_21543.png
subject-02,1,148,0.811465978622437,cat,cat,1,0148_hp_s02_1_cat_10_n02123159_5424.png
subject-02,1,149,1.32908082008362,bear,bicycle,3,0149_hp_s02_3_bicycle_10_n03792782_19985.png
subject-02,1,150,0.840933084487915,chair,chair,1,0150_hp_s02_1_chair_10_n02791124_2689.png
subject-02,1,151,0.702853918075562,bottle,bottle,inf,0151_hp_s02_inf_bottle_10_n03983396_11948.png
subject-02,1,152,0.744770050048828,truck,knife,0.4,0152_hp_s02_0.4_knife_10_n03041632_30602.png
subject-02,1,153,0.680459022521973,chair,chair,inf,0153_hp_s02_inf_chair_10_n02791124_8099.png
subject-02,1,154,1.05245184898376,keyboard,keyboard,1.5,0154_hp_s02_1.5_keyboard_10_n04505470_2620.png
subject-02,1,155,0.538386106491089,boat,boat,0.55,0155_hp_s02_0.55_boat_10_n04612504_654.png
subject-02,1,156,0.662284135818481,boat,airplane,0.55,0156_hp_s02_0.55_airplane_10_n02690373_817.png
subject-02,1,157,0.827840089797974,bicycle,bicycle,1,0157_hp_s02_1_bicycle_10_n02835271_1525.png
subject-02,1,158,1.29757404327393,knife,knife,inf,0158_hp_s02_inf_knife_10_n03041632_23736.png
subject-02,1,159,0.631193876266479,keyboard,keyboard,1,0159_hp_s02_1_keyboard_10_n04505470_4228.png
subject-02,1,160,0.557093143463135,cat,cat,1,0160_hp_s02_1_cat_10_n02123159_4376.png
subject-02,1,161,0.934567928314209,bird,dog,1,0161_hp_s02_1_dog_10_n02088238_2234.png
subject-02,1,162,0.602246999740601,keyboard,keyboard,inf,0162_hp_s02_inf_keyboard_10_n03085013_20460.png
subject-02,1,163,0.880053043365479,oven,oven,0.7,0163_hp_s02_0.7_oven_10_n04111531_9041.png
subject-02,1,164,0.821942090988159,bear,truck,0.4,0164_hp_s02_0.4_truck_10_n03417042_10150.png
subject-02,1,165,0.583811044692993,bear,cat,0.45,0165_hp_s02_0.45_cat_10_n02124075_5453.png
subject-02,1,166,0.66355299949646,cat,keyboard,0.4,0166_hp_s02_0.4_keyboard_10_n03085013_19407.png
subject-02,1,167,0.719328880310059,keyboard,keyboard,1,0167_hp_s02_1_keyboard_10_n03085013_24115.png
subject-02,1,168,1.14706587791443,car,car,1.5,0168_hp_s02_1.5_car_10_n02814533_14627.png
subject-02,1,169,0.71488881111145,knife,knife,inf,0169_hp_s02_inf_knife_10_n03041632_22286.png
subject-02,1,170,1.47088003158569,elephant,elephant,inf,0170_hp_s02_inf_elephant_10_n02504013_816.png
subject-02,1,171,0.536915063858032,bear,dog,0.4,0171_hp_s02_0.4_dog_10_n02090721_5305.png
subject-02,1,172,0.952233076095581,dog,dog,3,0172_hp_s02_3_dog_10_n02111500_7593.png
subject-02,1,173,0.614197969436646,bottle,bottle,3,0173_hp_s02_3_bottle_10_n04591713_7090.png
subject-02,1,174,0.560358047485352,clock,clock,3,0174_hp_s02_3_clock_10_n02708093_4737.png
subject-02,1,175,0.569828033447266,cat,cat,3,0175_hp_s02_3_cat_10_n02123394_2274.png
subject-02,1,176,0.777646064758301,car,chair,0.7,0176_hp_s02_0.7_chair_10_n03376595_3566.png
subject-02,1,177,0.947412014007568,truck,airplane,0.45,0177_hp_s02_0.45_airplane_10_n02690373_18111.png
subject-02,1,178,1.06520795822144,airplane,airplane,1,0178_hp_s02_1_airplane_10_n02690373_3289.png
subject-02,1,179,1.08527898788452,oven,bird,0.4,0179_hp_s02_0.4_bird_10_n01797886_16808.png
subject-02,1,180,1.00282287597656,car,chair,0.4,0180_hp_s02_0.4_chair_10_n03376595_17747.png
subject-02,1,181,1.07070708274841,dog,dog,0.45,0181_hp_s02_0.45_dog_10_n02106382_9188.png
subject-02,1,182,0.61683201789856,keyboard,keyboard,inf,0182_hp_s02_inf_keyboard_10_n04505470_4685.png
subject-02,1,183,1.09844088554382,car,truck,3,0183_hp_s02_3_truck_10_n04467665_25059.png
subject-02,1,184,0.692095994949341,chair,chair,1.5,0184_hp_s02_1.5_chair_10_n03376595_99.png
subject-02,1,185,0.703685998916626,boat,boat,1,0185_hp_s02_1_boat_10_n03344393_5177.png
subject-02,1,186,0.933735132217407,keyboard,keyboard,1,0186_hp_s02_1_keyboard_10_n04505470_142.png
subject-02,1,187,0.735461950302124,bear,bear,0.4,0187_hp_s02_0.4_bear_10_n02133161_1506.png
subject-02,1,188,0.841222047805786,bird,bird,1.5,0188_hp_s02_1.5_bird_10_n01828970_9006.png
subject-02,1,189,0.751137971878052,car,bear,0.55,0189_hp_s02_0.55_bear_10_n02132136_3563.png
subject-02,1,190,0.898898839950562,boat,truck,3,0190_hp_s02_3_truck_10_n03417042_411.png
subject-02,1,191,0.99291205406189,boat,boat,3,0191_hp_s02_3_boat_10_n04273569_16949.png
subject-02,1,192,1.26500201225281,car,chair,0.7,0192_hp_s02_0.7_chair_10_n02791124_5759.png
subject-02,1,193,0.878375053405762,bicycle,bicycle,0.55,0193_hp_s02_0.55_bicycle_10_n03792782_9412.png
subject-02,1,194,0.968201160430908,dog,bottle,0.45,0194_hp_s02_0.45_bottle_10_n03937543_438.png
subject-02,1,195,0.566188097000122,boat,boat,1.5,0195_hp_s02_1.5_boat_10_n04273569_8774.png
subject-02,1,196,0.892056941986084,bottle,bottle,3,0196_hp_s02_3_bottle_10_n02823428_5115.png
subject-02,1,197,0.823590993881226,airplane,airplane,1,0197_hp_s02_1_airplane_10_n02690373_9618.png
subject-02,1,198,0.665391206741333,airplane,airplane,inf,0198_hp_s02_inf_airplane_10_n02690373_5779.png
subject-02,1,199,0.533298015594482,oven,oven,inf,0199_hp_s02_inf_oven_10_n04111531_2201.png
subject-02,1,200,1.06350994110107,bird,dog,1,0200_hp_s02_1_dog_10_n02088364_13814.png
subject-02,1,201,0.870939016342163,bear,car,0.4,0201_hp_s02_0.4_car_10_n04285008_4551.png
subject-02,1,202,0.716639041900635,airplane,airplane,0.7,0202_hp_s02_0.7_airplane_10_n02690373_8611.png
subject-02,1,203,0.746465921401978,airplane,truck,inf,0203_hp_s02_inf_truck_10_n04467665_83611.png
subject-02,1,204,0.750477075576782,airplane,airplane,0.7,0204_hp_s02_0.7_airplane_10_n02690373_6739.png
subject-02,1,205,1.15205812454224,dog,dog,1,0205_hp_s02_1_dog_10_n02105505_7816.png
subject-02,1,206,0.557912826538086,oven,oven,inf,0206_hp_s02_inf_oven_10_n04111531_1723.png
subject-02,1,207,0.80977201461792,truck,truck,3,0207_hp_s02_3_truck_10_n03796401_7296.png
subject-02,1,208,0.885538101196289,bear,clock,0.4,0208_hp_s02_0.4_clock_10_n04548280_1126.png
subject-02,1,209,1.10934996604919,airplane,keyboard,0.55,0209_hp_s02_0.55_keyboard_10_n03085013_8325.png
subject-02,1,210,1.50002503395081,bicycle,bird,0.7,0210_hp_s02_0.7_bird_10_n02007558_4566.png
subject-02,1,211,1.36317706108093,bicycle,cat,0.7,0211_hp_s02_0.7_cat_10_n02124075_7680.png
subject-02,1,212,1.22681903839111,oven,knife,1,0212_hp_s02_1_knife_10_n03041632_105080.png
subject-02,1,213,0.688848972320557,car,car,3,0213_hp_s02_3_car_10_n04285008_6030.png
subject-02,1,214,0.866485118865967,knife,knife,1,0214_hp_s02_1_knife_10_n03041632_27575.png
subject-02,1,215,0.784185886383057,car,car,0.55,0215_hp_s02_0.55_car_10_n02814533_81092.png
subject-02,1,216,0.780161142349243,bird,bottle,0.45,0216_hp_s02_0.45_bottle_10_n03937543_11897.png
subject-02,1,217,1.1439380645752,airplane,boat,0.7,0217_hp_s02_0.7_boat_10_n03662601_12531.png
subject-02,1,218,0.743814945220947,boat,elephant,0.55,0218_hp_s02_0.55_elephant_10_n02504458_7221.png
subject-02,1,219,1.23156499862671,car,truck,0.7,0219_hp_s02_0.7_truck_10_n04467665_22974.png
subject-02,1,220,0.91370701789856,bird,bird,3,0220_hp_s02_3_bird_10_n01828970_15425.png
subject-02,1,221,1.01130104064941,bottle,elephant,0.4,0221_hp_s02_0.4_elephant_10_n02504458_6714.png
subject-02,1,222,1.1811408996582,elephant,cat,0.55,0222_hp_s02_0.55_cat_10_n02123597_1016.png
subject-02,1,223,0.934798002243042,bear,bear,1.5,0223_hp_s02_1.5_bear_10_n02134084_17849.png
subject-02,1,224,1.12672400474548,bird,clock,0.7,0224_hp_s02_0.7_clock_10_n04548280_8646.png
subject-02,1,225,1.49038600921631,elephant,bird,0.7,0225_hp_s02_0.7_bird_10_n02009229_851.png
subject-02,1,226,0.772512912750244,keyboard,oven,0.7,0226_hp_s02_0.7_oven_10_n04111531_9838.png
subject-02,1,227,1.21401619911194,cat,dog,0.7,0227_hp_s02_0.7_dog_10_n02098286_2699.png
subject-02,1,228,1.06388688087463,dog,keyboard,0.4,0228_hp_s02_0.4_keyboard_10_n03085013_20462.png
subject-02,1,229,0.6978600025177,bear,bicycle,0.45,0229_hp_s02_0.45_bicycle_10_n02835271_672.png
subject-02,1,230,0.655495882034302,bicycle,boat,0.4,0230_hp_s02_0.4_boat_10_n02951358_343.png
subject-02,1,231,0.809323072433472,bicycle,bicycle,0.7,0231_hp_s02_0.7_bicycle_10_n02835271_4677.png
subject-02,1,232,0.849201917648315,car,chair,0.45,0232_hp_s02_0.45_chair_10_n03376595_9851.png
subject-02,1,233,0.581179141998291,cat,cat,0.45,0233_hp_s02_0.45_cat_10_n02123394_7335.png
subject-02,1,234,0.718645095825195,keyboard,keyboard,3,0234_hp_s02_3_keyboard_10_n04505470_7721.png
subject-02,1,235,1.15685486793518,dog,elephant,0.55,0235_hp_s02_0.55_elephant_10_n02504013_933.png
subject-02,1,236,1.20676898956299,oven,knife,0.55,0236_hp_s02_0.55_knife_10_n03041632_20217.png
subject-02,1,237,0.616075992584229,cat,cat,3,0237_hp_s02_3_cat_10_n02124075_4413.png
subject-02,1,238,0.590017080307007,bear,dog,0.4,0238_hp_s02_0.4_dog_10_n02107908_10107.png
subject-02,1,239,0.774179935455322,airplane,airplane,1,0239_hp_s02_1_airplane_10_n02690373_220.png
subject-02,1,240,1.06770396232605,oven,chair,1,0240_hp_s02_1_chair_10_n04429376_7732.png
subject-02,1,241,0.851053953170776,car,truck,0.55,0241_hp_s02_0.55_truck_10_n03417042_7310.png
subject-02,1,242,0.606860876083374,cat,cat,1.5,0242_hp_s02_1.5_cat_10_n02125311_37036.png
subject-02,1,243,1.12063789367676,truck,truck,1,0243_hp_s02_1_truck_10_n04467665_7069.png
subject-02,1,244,1.05445694923401,car,elephant,0.55,0244_hp_s02_0.55_elephant_10_n02504458_11214.png
subject-02,1,245,0.642351865768433,cat,bird,inf,0245_hp_s02_inf_bird_10_n01798484_518.png
subject-02,1,246,1.12221693992615,dog,cat,3,0246_hp_s02_3_cat_10_n02124075_9613.png
subject-02,1,247,0.750048160552979,bear,clock,1,0247_hp_s02_1_clock_10_n03196217_711.png
subject-02,1,248,0.654062032699585,chair,chair,0.7,0248_hp_s02_0.7_chair_10_n03376595_11839.png
subject-02,1,249,0.867422103881836,airplane,bicycle,0.7,0249_hp_s02_0.7_bicycle_10_n03792782_10655.png
subject-02,1,250,1.12935185432434,cat,dog,0.45,0250_hp_s02_0.45_dog_10_n02111500_2111.png
subject-02,1,251,0.703055143356323,bear,chair,0.4,0251_hp_s02_0.4_chair_10_n03376595_4121.png
subject-02,1,252,1.06685185432434,dog,car,0.4,0252_hp_s02_0.4_car_10_n02814533_87793.png
subject-02,1,253,0.610672950744629,boat,boat,inf,0253_hp_s02_inf_boat_10_n04273569_3409.png
subject-02,1,254,0.677027940750122,airplane,airplane,inf,0254_hp_s02_inf_airplane_10_n02690373_2024.png
subject-02,1,255,0.8663489818573,clock,bicycle,0.45,0255_hp_s02_0.45_bicycle_10_n03792782_19295.png
subject-02,1,256,0.942206859588623,car,cat,0.45,0256_hp_s02_0.45_cat_10_n02124075_1460.png
subject-02,1,257,0.80192494392395,keyboard,bottle,0.7,0257_hp_s02_0.7_bottle_10_n04579145_3660.png
subject-02,1,258,0.837966918945312,truck,truck,3,0258_hp_s02_3_truck_10_n03796401_7487.png
subject-02,1,259,0.705826997756958,bird,bird,3,0259_hp_s02_3_bird_10_n01534433_5046.png
subject-02,1,260,0.661420822143555,dog,bicycle,0.45,0260_hp_s02_0.45_bicycle_10_n03792782_7787.png
subject-02,1,261,1.26943683624268,keyboard,truck,1.5,0261_hp_s02_1.5_truck_10_n04467665_58762.png
subject-02,1,262,0.733259916305542,clock,clock,inf,0262_hp_s02_inf_clock_10_n03196217_2853.png
subject-02,1,263,0.655300140380859,clock,clock,inf,0263_hp_s02_inf_clock_10_n04548280_7930.png
subject-02,1,264,0.882677793502808,bear,bear,inf,0264_hp_s02_inf_bear_10_n02134084_6910.png
subject-02,1,265,0.97074294090271,bird,bear,0.7,0265_hp_s02_0.7_bear_10_n02133161_4161.png
subject-02,1,266,0.992357969284058,bird,dog,1,0266_hp_s02_1_dog_10_n02091032_8024.png
subject-02,1,267,0.636260986328125,cat,elephant,0.45,0267_hp_s02_0.45_elephant_10_n02504458_4137.png
subject-02,1,268,0.45229697227478,clock,clock,inf,0268_hp_s02_inf_clock_10_n02708093_6635.png
subject-02,1,269,0.827755928039551,airplane,airplane,3,0269_hp_s02_3_airplane_10_n02690373_7496.png
subject-02,1,270,1.1836359500885,clock,boat,1.5,0270_hp_s02_1.5_boat_10_n02951358_30635.png
subject-02,1,271,0.865386962890625,bird,cat,0.7,0271_hp_s02_0.7_cat_10_n02123597_3822.png
subject-02,1,272,1.1511390209198,elephant,elephant,inf,0272_hp_s02_inf_elephant_10_n02504013_5839.png
subject-02,1,273,0.77292799949646,bear,boat,0.45,0273_hp_s02_0.45_boat_10_n03344393_11788.png
subject-02,1,274,1.47317385673523,keyboard,elephant,1.5,0274_hp_s02_1.5_elephant_10_n02504013_2739.png
subject-02,1,275,0.812664031982422,knife,cat,0.4,0275_hp_s02_0.4_cat_10_n02123045_4812.png
subject-02,1,276,1.10633397102356,bear,cat,inf,0276_hp_s02_inf_cat_10_n02125311_8369.png
subject-02,1,277,0.82626485824585,cat,dog,0.7,0277_hp_s02_0.7_dog_10_n02113978_8008.png
subject-02,1,278,1.14205884933472,oven,dog,0.55,0278_hp_s02_0.55_dog_10_n02089867_6424.png
subject-02,1,279,0.90197491645813,dog,airplane,0.4,0279_hp_s02_0.4_airplane_10_n02690373_4784.png
subject-02,1,280,1.031818151474,keyboard,boat,0.55,0280_hp_s02_0.55_boat_10_n04612504_2853.png
subject-02,1,281,0.92969012260437,bear,bear,1,0281_hp_s02_1_bear_10_n02132136_9184.png
subject-02,1,282,1.15322494506836,bird,bird,3,0282_hp_s02_3_bird_10_n01819313_3440.png
subject-02,1,283,0.821089029312134,truck,truck,0.55,0283_hp_s02_0.55_truck_10_n03796401_21954.png
subject-02,1,284,0.715167045593262,car,bottle,0.55,0284_hp_s02_0.55_bottle_10_n03937543_2874.png
subject-02,1,285,0.922779083251953,elephant,elephant,3,0285_hp_s02_3_elephant_10_n02504013_6742.png
subject-02,1,286,1.17472004890442,bicycle,bottle,0.55,0286_hp_s02_0.55_bottle_10_n02823428_11140.png
subject-02,1,287,1.28647398948669,cat,bird,1,0287_hp_s02_1_bird_10_n01820546_3605.png
subject-02,1,288,1.35816693305969,elephant,bear,0.55,0288_hp_s02_0.55_bear_10_n02132136_7253.png
subject-02,1,289,0.751875162124634,bicycle,bicycle,0.55,0289_hp_s02_0.55_bicycle_10_n02835271_12123.png
subject-02,1,290,0.625859975814819,bear,bear,inf,0290_hp_s02_inf_bear_10_n02134084_24136.png
subject-02,1,291,1.36352300643921,bird,knife,0.4,0291_hp_s02_0.4_knife_10_n03041632_40508.png
subject-02,1,292,0.797394990921021,cat,clock,0.4,0292_hp_s02_0.4_clock_10_n02708093_2025.png
subject-02,1,293,0.715540885925293,truck,cat,0.45,0293_hp_s02_0.45_cat_10_n02123597_12232.png
subject-02,1,294,0.579127073287964,car,chair,0.4,0294_hp_s02_0.4_chair_10_n04429376_20837.png
subject-02,1,295,0.78500509262085,bicycle,keyboard,0.55,0295_hp_s02_0.55_keyboard_10_n03085013_24156.png
subject-02,1,296,0.820765972137451,cat,bird,0.55,0296_hp_s02_0.55_bird_10_n01824575_8564.png
subject-02,1,297,1.23041701316833,elephant,elephant,0.7,0297_hp_s02_0.7_elephant_10_n02504013_18005.png
subject-02,1,298,1.03049778938293,elephant,keyboard,0.45,0298_hp_s02_0.45_keyboard_10_n03085013_5622.png
subject-02,1,299,0.53410005569458,bear,bear,0.45,0299_hp_s02_0.45_bear_10_n02134418_7067.png
subject-02,1,300,0.600377082824707,clock,clock,0.45,0300_hp_s02_0.45_clock_10_n04548280_4713.png
subject-02,1,301,0.783884048461914,bird,knife,0.45,0301_hp_s02_0.45_knife_10_n03041632_40652.png
subject-02,1,302,1.48573803901672,dog,dog,1.5,0302_hp_s02_1.5_dog_10_n02099712_1825.png
subject-02,1,303,0.731398105621338,bird,bird,3,0303_hp_s02_3_bird_10_n01560419_1738.png
subject-02,1,304,1.12543797492981,elephant,oven,1,0304_hp_s02_1_oven_10_n04111531_10711.png
subject-02,1,305,0.596941947937012,car,car,3,0305_hp_s02_3_car_10_n04285008_5467.png
subject-02,1,306,0.83466100692749,car,car,inf,0306_hp_s02_inf_car_10_n02814533_40315.png
subject-02,1,307,0.706701993942261,truck,chair,0.45,0307_hp_s02_0.45_chair_10_n03376595_8196.png
subject-02,1,308,0.840487003326416,chair,chair,1.5,0308_hp_s02_1.5_chair_10_n02791124_3484.png
subject-02,1,309,1.0804750919342,airplane,airplane,0.55,0309_hp_s02_0.55_airplane_10_n02690373_7600.png
subject-02,1,310,0.676252841949463,oven,boat,0.55,0310_hp_s02_0.55_boat_10_n03344393_4502.png
subject-02,1,311,0.531926155090332,cat,cat,1.5,0311_hp_s02_1.5_cat_10_n02124075_14965.png
subject-02,1,312,0.68364405632019,bicycle,bicycle,1,0312_hp_s02_1_bicycle_10_n03792782_4559.png
subject-02,1,313,0.67176079750061,clock,bottle,0.55,0313_hp_s02_0.55_bottle_10_n03937543_4098.png
subject-02,1,314,1.11366820335388,boat,boat,0.55,0314_hp_s02_0.55_boat_10_n03344393_4349.png
subject-02,1,315,0.957297086715698,chair,knife,1.5,0315_hp_s02_1.5_knife_10_n03041632_91967.png
subject-02,1,316,0.959051132202148,clock,oven,3,0316_hp_s02_3_oven_10_n04111531_2066.png
subject-02,1,317,0.900749921798706,oven,truck,0.7,0317_hp_s02_0.7_truck_10_n03417042_6467.png
subject-02,1,318,0.850488901138306,knife,cat,0.4,0318_hp_s02_0.4_cat_10_n02124075_16814.png
subject-02,1,319,1.2845299243927,chair,truck,3,0319_hp_s02_3_truck_10_n03417042_3748.png
subject-02,1,320,1.03817892074585,car,keyboard,0.4,0320_hp_s02_0.4_keyboard_10_n03085013_23519.png
subject-02,1,321,0.738706111907959,bear,bear,1,0321_hp_s02_1_bear_10_n02134418_4515.png
subject-02,1,322,0.928536891937256,oven,chair,3,0322_hp_s02_3_chair_10_n02791124_6654.png
subject-02,1,323,0.610322952270508,cat,cat,1.5,0323_hp_s02_1.5_cat_10_n02123045_7154.png
subject-02,1,324,0.724434852600098,car,car,0.4,0324_hp_s02_0.4_car_10_n02814533_85296.png
subject-02,1,325,0.656240940093994,bear,bird,0.45,0325_hp_s02_0.45_bird_10_n01797886_3046.png
subject-02,1,326,0.672228097915649,bird,bird,inf,0326_hp_s02_inf_bird_10_n02007558_37147.png
subject-02,1,327,1.3858368396759,airplane,airplane,inf,0327_hp_s02_inf_airplane_10_n02690373_10278.png
subject-02,1,328,0.951390027999878,bird,bottle,1,0328_hp_s02_1_bottle_10_n02823428_8034.png
subject-02,1,329,0.741557121276855,cat,bicycle,1.5,0329_hp_s02_1.5_bicycle_10_n03792782_14557.png
subject-02,1,330,0.589232921600342,keyboard,bear,0.55,0330_hp_s02_0.55_bear_10_n02133161_4049.png
subject-02,1,331,0.968938827514648,car,car,3,0331_hp_s02_3_car_10_n02814533_10135.png
subject-02,1,332,0.661234140396118,cat,bottle,0.55,0332_hp_s02_0.55_bottle_10_n04560804_14395.png
subject-02,1,333,0.906553983688354,oven,boat,0.45,0333_hp_s02_0.45_boat_10_n02951358_11567.png
subject-02,1,334,1.35034608840942,truck,truck,inf,0334_hp_s02_inf_truck_10_n03796401_1330.png
subject-02,1,335,0.982374906539917,dog,keyboard,0.4,0335_hp_s02_0.4_keyboard_10_n03085013_23005.png
subject-02,1,336,1.02600407600403,boat,boat,1,0336_hp_s02_1_boat_10_n04273569_3770.png
subject-02,1,337,0.999868869781494,clock,clock,0.7,0337_hp_s02_0.7_clock_10_n02708093_3688.png
subject-02,1,338,0.875813961029053,car,clock,1,0338_hp_s02_1_clock_10_n03196217_5079.png
subject-02,1,339,0.543614864349365,oven,oven,1.5,0339_hp_s02_1.5_oven_10_n04111531_6810.png
subject-02,1,340,1.01557493209839,cat,bicycle,0.45,0340_hp_s02_0.45_bicycle_10_n03792782_16034.png
subject-02,1,341,0.613132953643799,bicycle,keyboard,0.55,0341_hp_s02_0.55_keyboard_10_n03085013_10035.png
subject-02,1,342,0.858827829360962,knife,cat,0.45,0342_hp_s02_0.45_cat_10_n02125311_43276.png
subject-02,1,343,1.17479991912842,cat,bear,1.5,0343_hp_s02_1.5_bear_10_n02134418_2666.png
subject-02,1,344,1.21888589859009,clock,bottle,1,0344_hp_s02_1_bottle_10_n04591713_4892.png
subject-02,1,345,0.896339178085327,elephant,boat,0.45,0345_hp_s02_0.45_boat_10_n04273569_15859.png
subject-02,1,346,1.26818919181824,keyboard,keyboard,1.5,0346_hp_s02_1.5_keyboard_10_n03085013_4157.png
subject-02,1,347,1.11174702644348,bicycle,knife,0.7,0347_hp_s02_0.7_knife_10_n03041632_91582.png
subject-02,1,348,1.07783985137939,cat,knife,0.7,0348_hp_s02_0.7_knife_10_n03041632_24181.png
subject-02,1,349,0.903858184814453,chair,bird,0.55,0349_hp_s02_0.55_bird_10_n02018207_10814.png
subject-02,1,350,0.97527003288269,bear,bear,0.7,0350_hp_s02_0.7_bear_10_n02132136_3441.png
subject-02,1,351,0.859078168869019,keyboard,keyboard,1.5,0351_hp_s02_1.5_keyboard_10_n03085013_2272.png
subject-02,1,352,1.02712392807007,clock,cat,0.55,0352_hp_s02_0.55_cat_10_n02123159_8240.png
subject-02,1,353,1.05481791496277,oven,truck,0.45,0353_hp_s02_0.45_truck_10_n04467665_36855.png
subject-02,1,354,1.05280804634094,keyboard,knife,0.7,0354_hp_s02_0.7_knife_10_n03041632_4044.png
subject-02,1,355,1.06048178672791,car,bicycle,0.7,0355_hp_s02_0.7_bicycle_10_n03792782_41173.png
subject-02,1,356,1.18227601051331,cat,bear,1.5,0356_hp_s02_1.5_bear_10_n02134418_875.png
subject-02,1,357,0.966519832611084,bear,cat,0.4,0357_hp_s02_0.4_cat_10_n02123394_4662.png
subject-02,1,358,0.884027004241943,clock,clock,1.5,0358_hp_s02_1.5_clock_10_n02708093_6591.png
subject-02,1,359,1.1398389339447,boat,truck,3,0359_hp_s02_3_truck_10_n03417042_3821.png
subject-02,1,360,0.785297870635986,car,airplane,0.45,0360_hp_s02_0.45_airplane_10_n02690373_8204.png
subject-02,1,361,0.673624992370605,oven,oven,inf,0361_hp_s02_inf_oven_10_n04111531_16251.png
subject-02,1,362,0.849532127380371,car,car,0.55,0362_hp_s02_0.55_car_10_n03100240_1794.png
subject-02,1,363,0.819016933441162,bottle,bottle,1.5,0363_hp_s02_1.5_bottle_10_n04591713_7158.png
subject-02,1,364,1.15280389785767,truck,dog,0.55,0364_hp_s02_0.55_dog_10_n02109525_13146.png
subject-02,1,365,1.10245203971863,airplane,airplane,0.7,0365_hp_s02_0.7_airplane_10_n02690373_18295.png
subject-02,1,366,0.800313949584961,cat,cat,inf,0366_hp_s02_inf_cat_10_n02124075_15171.png
subject-02,1,367,1.05219602584839,truck,truck,0.7,0367_hp_s02_0.7_truck_10_n03796401_7199.png
subject-02,1,368,1.08029103279114,bear,elephant,0.7,0368_hp_s02_0.7_elephant_10_n02504458_1327.png
subject-02,1,369,0.811712980270386,cat,clock,0.55,0369_hp_s02_0.55_clock_10_n04548280_3605.png
subject-02,1,370,0.78163480758667,bird,bird,inf,0370_hp_s02_inf_bird_10_n01798484_4076.png
subject-02,1,371,0.889446973800659,oven,oven,0.45,0371_hp_s02_0.45_oven_10_n04111531_9498.png
subject-02,1,372,1.01120090484619,car,cat,0.4,0372_hp_s02_0.4_cat_10_n02123045_12748.png
subject-02,1,373,1.03510093688965,cat,bird,1,0373_hp_s02_1_bird_10_n02056570_9458.png
subject-02,1,374,1.19696307182312,truck,truck,1,0374_hp_s02_1_truck_10_n04467665_5053.png
subject-02,1,375,0.934731960296631,cat,cat,1,0375_hp_s02_1_cat_10_n02125311_8496.png
subject-02,1,376,1.19449400901794,cat,dog,3,0376_hp_s02_3_dog_10_n02100735_8835.png
subject-02,1,377,0.838440895080566,airplane,airplane,0.7,0377_hp_s02_0.7_airplane_10_n02690373_18506.png
subject-02,1,378,0.696287870407104,cat,cat,1,0378_hp_s02_1_cat_10_n02124075_11528.png
subject-02,1,379,1.21382308006287,cat,bird,0.55,0379_hp_s02_0.55_bird_10_n01843065_1699.png
subject-02,1,380,1.08588790893555,truck,truck,inf,0380_hp_s02_inf_truck_10_n04467665_33086.png
subject-02,1,381,1.10150694847107,keyboard,knife,0.7,0381_hp_s02_0.7_knife_10_n03041632_28710.png
subject-02,1,382,1.50013613700867,bird,bird,1.5,0382_hp_s02_1.5_bird_10_n02013706_848.png
subject-02,1,383,1.07312798500061,bicycle,clock,0.7,0383_hp_s02_0.7_clock_10_n02708093_7821.png
subject-02,1,384,0.851316928863525,knife,bird,0.4,0384_hp_s02_0.4_bird_10_n01820546_6431.png
subject-02,1,385,0.894824981689453,cat,dog,0.55,0385_hp_s02_0.55_dog_10_n02090721_4433.png
subject-02,1,386,1.02457308769226,keyboard,chair,1,0386_hp_s02_1_chair_10_n04429376_24578.png
subject-02,1,387,0.928313970565796,car,car,0.55,0387_hp_s02_0.55_car_10_n03100240_15228.png
subject-02,1,388,0.902370929718018,keyboard,keyboard,1,0388_hp_s02_1_keyboard_10_n04505470_4741.png
subject-02,1,389,0.820394039154053,bicycle,bicycle,1.5,0389_hp_s02_1.5_bicycle_10_n02835271_6953.png
subject-02,1,390,1.23988699913025,bird,bottle,0.7,0390_hp_s02_0.7_bottle_10_n04591713_7074.png
subject-02,1,391,0.969694137573242,bottle,bottle,inf,0391_hp_s02_inf_bottle_10_n04557648_4250.png
subject-02,1,392,0.82750391960144,chair,truck,0.45,0392_hp_s02_0.45_truck_10_n03417042_5809.png
subject-02,1,393,0.991396903991699,boat,airplane,0.45,0393_hp_s02_0.45_airplane_10_n02690373_2692.png
subject-02,1,394,0.931067228317261,cat,oven,3,0394_hp_s02_3_oven_10_n04111531_9342.png
subject-02,1,395,0.968955039978027,chair,chair,0.55,0395_hp_s02_0.55_chair_10_n04099969_20421.png
subject-02,1,396,1.07869386672974,truck,truck,inf,0396_hp_s02_inf_truck_10_n03796401_1458.png
subject-02,1,397,0.730615854263306,bicycle,bicycle,3,0397_hp_s02_3_bicycle_10_n03792782_4472.png
subject-02,1,398,1.13421607017517,car,oven,0.55,0398_hp_s02_0.55_oven_10_n04111531_21973.png
subject-02,1,399,1.05204892158508,bear,bird,0.7,0399_hp_s02_0.7_bird_10_n01796340_5262.png
subject-02,1,400,0.843935012817383,dog,bear,0.45,0400_hp_s02_0.45_bear_10_n02134084_3177.png
subject-02,1,401,1.15730595588684,airplane,chair,0.45,0401_hp_s02_0.45_chair_10_n04099969_1219.png
subject-02,1,402,0.831317901611328,airplane,airplane,1.5,0402_hp_s02_1.5_airplane_10_n02690373_787.png
subject-02,1,403,0.909024000167847,knife,knife,0.45,0403_hp_s02_0.45_knife_10_n03041632_26933.png
subject-02,1,404,0.664929151535034,bicycle,dog,0.7,0404_hp_s02_0.7_dog_10_n02101006_16129.png
subject-02,1,405,0.77060604095459,bear,chair,0.4,0405_hp_s02_0.4_chair_10_n02791124_1814.png
subject-02,1,406,1.01454091072083,keyboard,clock,0.55,0406_hp_s02_0.55_clock_10_n03196217_1454.png
subject-02,1,407,1.12236499786377,car,chair,0.7,0407_hp_s02_0.7_chair_10_n03376595_10507.png
subject-02,1,408,1.00004100799561,keyboard,chair,0.55,0408_hp_s02_0.55_chair_10_n04429376_8710.png
subject-02,1,409,1.0822160243988,truck,cat,0.45,0409_hp_s02_0.45_cat_10_n02125311_20316.png
subject-02,1,410,0.953866004943848,car,bicycle,0.4,0410_hp_s02_0.4_bicycle_10_n03792782_8329.png
subject-02,1,411,1.14358711242676,bicycle,dog,0.7,0411_hp_s02_0.7_dog_10_n02100236_619.png
subject-02,1,412,0.781460046768188,keyboard,keyboard,inf,0412_hp_s02_inf_keyboard_10_n04505470_4138.png
subject-02,1,413,0.715210914611816,oven,clock,0.4,0413_hp_s02_0.4_clock_10_n02708093_6717.png
subject-02,1,414,0.884982109069824,keyboard,bottle,0.45,0414_hp_s02_0.45_bottle_10_n03937543_2327.png
subject-02,1,415,1.03874516487122,oven,bottle,3,0415_hp_s02_3_bottle_10_n04560804_33214.png
subject-02,1,416,0.648886919021606,boat,boat,3,0416_hp_s02_3_boat_10_n03344393_408.png
subject-02,1,417,1.08422088623047,bird,boat,0.45,0417_hp_s02_0.45_boat_10_n03344393_4827.png
subject-02,1,418,1.1120879650116,elephant,elephant,0.7,0418_hp_s02_0.7_elephant_10_n02504458_1233.png
subject-02,1,419,1.30991697311401,keyboard,keyboard,3,0419_hp_s02_3_keyboard_10_n03085013_21914.png
subject-02,1,420,0.8697829246521,oven,bicycle,0.4,0420_hp_s02_0.4_bicycle_10_n03792782_26834.png
subject-02,1,421,0.613572120666504,boat,boat,3,0421_hp_s02_3_boat_10_n04612504_4773.png
subject-02,1,422,1.10340118408203,dog,bear,3,0422_hp_s02_3_bear_10_n02134418_47.png
subject-02,1,423,0.959259033203125,clock,clock,3,0423_hp_s02_3_clock_10_n03196217_7353.png
subject-02,1,424,0.971056938171387,car,car,3,0424_hp_s02_3_car_10_n04285008_12767.png
subject-02,1,425,0.889071941375732,bottle,bottle,1.5,0425_hp_s02_1.5_bottle_10_n04591713_14895.png
subject-02,1,426,1.116623878479,knife,knife,inf,0426_hp_s02_inf_knife_10_n03041632_26989.png
subject-02,1,427,1.09845900535583,oven,oven,inf,0427_hp_s02_inf_oven_10_n04111531_3076.png
subject-02,1,428,1.00826096534729,clock,clock,1.5,0428_hp_s02_1.5_clock_10_n03196217_71.png
subject-02,1,429,1.16803812980652,bear,elephant,0.45,0429_hp_s02_0.45_elephant_10_n02504458_582.png
subject-02,1,430,1.26823687553406,boat,oven,0.4,0430_hp_s02_0.4_oven_10_n04111531_9224.png
subject-02,1,431,0.825686931610107,keyboard,keyboard,inf,0431_hp_s02_inf_keyboard_10_n04505470_4668.png
subject-02,1,432,0.733519077301025,cat,cat,3,0432_hp_s02_3_cat_10_n02125311_16544.png
subject-02,1,433,1.05929183959961,bird,bird,1.5,0433_hp_s02_1.5_bird_10_n01616318_1214.png
subject-02,1,434,1.01703500747681,cat,chair,1,0434_hp_s02_1_chair_10_n04099969_4275.png
subject-02,1,435,0.876877784729004,bottle,bear,0.45,0435_hp_s02_0.45_bear_10_n02134418_2157.png
subject-02,1,436,1.01481294631958,dog,dog,1.5,0436_hp_s02_1.5_dog_10_n02093256_11232.png
subject-02,1,437,1.14477014541626,knife,knife,1.5,0437_hp_s02_1.5_knife_10_n03041632_379.png
subject-02,1,438,1.00846195220947,keyboard,clock,0.45,0438_hp_s02_0.45_clock_10_n04548280_4345.png
subject-02,1,439,0.986093044281006,bicycle,bicycle,3,0439_hp_s02_3_bicycle_10_n02835271_7311.png
subject-02,1,440,1.32005095481873,bicycle,chair,0.55,0440_hp_s02_0.55_chair_10_n04099969_18220.png
subject-02,1,441,1.06571316719055,boat,knife,0.55,0441_hp_s02_0.55_knife_10_n03041632_13478.png
subject-02,1,442,0.847627878189087,oven,dog,0.55,0442_hp_s02_0.55_dog_10_n02091831_3628.png
subject-02,1,443,1.33744406700134,bicycle,bicycle,0.7,0443_hp_s02_0.7_bicycle_10_n03792782_15932.png
subject-02,1,444,0.963340044021606,chair,bird,0.4,0444_hp_s02_0.4_bird_10_n01829413_5849.png
subject-02,1,445,1.34296989440918,elephant,elephant,0.7,0445_hp_s02_0.7_elephant_10_n02504458_6135.png
subject-02,1,446,0.852798223495483,bear,oven,0.45,0446_hp_s02_0.45_oven_10_n04111531_4346.png
subject-02,1,447,1.17062211036682,elephant,elephant,3,0447_hp_s02_3_elephant_10_n02504458_13406.png
subject-02,1,448,1.11246395111084,keyboard,keyboard,1.5,0448_hp_s02_1.5_keyboard_10_n03085013_24026.png
subject-02,1,449,1.02043890953064,bear,bear,3,0449_hp_s02_3_bear_10_n02132136_7647.png
subject-02,1,450,0.920172929763794,truck,keyboard,0.55,0450_hp_s02_0.55_keyboard_10_n03085013_21301.png
subject-02,1,451,0.845935106277466,clock,clock,inf,0451_hp_s02_inf_clock_10_n03196217_4844.png
subject-02,1,452,1.17213916778564,oven,elephant,1,0452_hp_s02_1_elephant_10_n02504458_3535.png
subject-02,1,453,0.875408887863159,bottle,bottle,inf,0453_hp_s02_inf_bottle_10_n02823428_4245.png
subject-02,1,454,0.761612892150879,bottle,bottle,inf,0454_hp_s02_inf_bottle_10_n04591713_5563.png
subject-02,1,455,1.18130421638489,knife,knife,1.5,0455_hp_s02_1.5_knife_10_n03041632_55083.png
subject-02,1,456,0.817023038864136,clock,clock,3,0456_hp_s02_3_clock_10_n04548280_57.png
subject-02,1,457,1.31468605995178,keyboard,keyboard,1,0457_hp_s02_1_keyboard_10_n04505470_7421.png
subject-02,1,458,0.986674785614014,chair,bear,0.4,0458_hp_s02_0.4_bear_10_n02133161_463.png
subject-02,1,459,1.33482003211975,keyboard,airplane,0.45,0459_hp_s02_0.45_airplane_10_n02690373_1547.png
subject-02,1,460,0.844548940658569,clock,chair,1,0460_hp_s02_1_chair_10_n04429376_2349.png
subject-02,1,461,0.9740149974823,car,car,1,0461_hp_s02_1_car_10_n03100240_6059.png
subject-02,1,462,1.15781688690186,chair,chair,3,0462_hp_s02_3_chair_10_n03376595_17859.png
subject-02,1,463,1.07577180862427,bird,bird,3,0463_hp_s02_3_bird_10_n02037110_11362.png
subject-02,1,464,0.853557825088501,clock,clock,1,0464_hp_s02_1_clock_10_n04548280_3342.png
subject-02,1,465,1.14324617385864,bear,cat,0.45,0465_hp_s02_0.45_cat_10_n02124075_2138.png
subject-02,1,466,1.12145400047302,elephant,elephant,inf,0466_hp_s02_inf_elephant_10_n02504013_4523.png
subject-02,1,467,0.954957962036133,bicycle,keyboard,0.55,0467_hp_s02_0.55_keyboard_10_n03085013_23791.png
subject-02,1,468,0.921144008636475,truck,bottle,0.4,0468_hp_s02_0.4_bottle_10_n03983396_1151.png
subject-02,1,469,1.01070404052734,bird,bird,1.5,0469_hp_s02_1.5_bird_10_n01537544_1126.png
subject-02,1,470,1.17651581764221,car,truck,0.55,0470_hp_s02_0.55_truck_10_n03417042_5600.png
subject-02,1,471,1.00818204879761,truck,truck,1,0471_hp_s02_1_truck_10_n03417042_19481.png
subject-02,1,472,0.700098037719727,chair,chair,1.5,0472_hp_s02_1.5_chair_10_n03376595_2646.png
subject-02,1,473,1.37577509880066,car,cat,0.7,0473_hp_s02_0.7_cat_10_n02123045_114.png
subject-02,1,474,1.19576382637024,keyboard,clock,0.55,0474_hp_s02_0.55_clock_10_n02708093_5311.png
subject-02,1,475,1.35756301879883,bear,bird,0.4,0475_hp_s02_0.4_bird_10_n01828970_454.png
subject-02,1,476,0.945388078689575,knife,knife,3,0476_hp_s02_3_knife_10_n03041632_24998.png
subject-02,1,477,0.965104103088379,car,car,0.4,0477_hp_s02_0.4_car_10_n04285008_771.png
subject-02,1,478,0.640870094299316,chair,airplane,0.4,0478_hp_s02_0.4_airplane_10_n02690373_7300.png
subject-02,1,479,0.868753910064697,cat,cat,inf,0479_hp_s02_inf_cat_10_n02123045_12659.png
subject-02,1,480,0.888405084609985,oven,truck,0.45,0480_hp_s02_0.45_truck_10_n03417042_4188.png
subject-02,1,481,0.986009836196899,oven,chair,0.55,0481_hp_s02_0.55_chair_10_n03376595_10460.png
subject-02,1,482,0.731844186782837,boat,knife,0.45,0482_hp_s02_0.45_knife_10_n03041632_89912.png
subject-02,1,483,0.697631120681763,oven,oven,1.5,0483_hp_s02_1.5_oven_10_n04111531_8046.png
subject-02,1,484,1.05369210243225,boat,bird,0.55,0484_hp_s02_0.55_bird_10_n02033041_2082.png
subject-02,1,485,1.10568189620972,airplane,clock,0.4,0485_hp_s02_0.4_clock_10_n04548280_9867.png
subject-02,1,486,0.967112064361572,chair,chair,1,0486_hp_s02_1_chair_10_n04099969_14028.png
subject-02,1,487,1.18288087844849,bottle,dog,0.45,0487_hp_s02_0.45_dog_10_n02106166_22138.png
subject-02,1,488,0.882768869400024,oven,chair,3,0488_hp_s02_3_chair_10_n04429376_7279.png
subject-02,1,489,0.928670883178711,truck,airplane,0.4,0489_hp_s02_0.4_airplane_10_n02690373_6978.png
subject-02,1,490,0.798571109771729,bear,oven,0.4,0490_hp_s02_0.4_oven_10_n04111531_10521.png
subject-02,1,491,0.834349870681763,chair,chair,1,0491_hp_s02_1_chair_10_n02791124_6786.png
subject-02,1,492,0.838022947311401,car,car,0.7,0492_hp_s02_0.7_car_10_n02814533_90798.png
subject-02,1,493,0.734205961227417,bottle,bottle,1.5,0493_hp_s02_1.5_bottle_10_n04591713_6958.png
subject-02,1,494,1.33559799194336,knife,knife,3,0494_hp_s02_3_knife_10_n03041632_11603.png
subject-02,1,495,1.00167894363403,boat,boat,inf,0495_hp_s02_inf_boat_10_n03662601_5968.png
subject-02,1,496,0.85745096206665,keyboard,oven,0.7,0496_hp_s02_0.7_oven_10_n04111531_537.png
subject-02,1,497,0.939083099365234,chair,knife,0.4,0497_hp_s02_0.4_knife_10_n03041632_45270.png
subject-02,1,498,0.885020017623901,elephant,dog,0.45,0498_hp_s02_0.45_dog_10_n02099712_1184.png
subject-02,1,499,1.20307207107544,chair,bicycle,0.55,0499_hp_s02_0.55_bicycle_10_n02835271_14732.png
subject-02,1,500,0.736637115478516,bear,clock,0.45,0500_hp_s02_0.45_clock_10_n03196217_2003.png
subject-02,1,501,0.668321847915649,oven,oven,1.5,0501_hp_s02_1.5_oven_10_n04111531_605.png
subject-02,1,502,0.938508033752441,bear,dog,0.55,0502_hp_s02_0.55_dog_10_n02107574_1533.png
subject-02,1,503,0.881909847259521,bottle,bottle,inf,0503_hp_s02_inf_bottle_10_n03983396_4996.png
subject-02,1,504,1.1038031578064,oven,chair,0.7,0504_hp_s02_0.7_chair_10_n04429376_52822.png
subject-02,1,505,1.13753485679626,chair,cat,0.45,0505_hp_s02_0.45_cat_10_n02124075_12467.png
subject-02,1,506,0.757544040679932,keyboard,keyboard,1.5,0506_hp_s02_1.5_keyboard_10_n03085013_4823.png
subject-02,1,507,0.74539589881897,bicycle,bicycle,inf,0507_hp_s02_inf_bicycle_10_n03792782_16179.png
subject-02,1,508,0.797384977340698,bear,cat,0.4,0508_hp_s02_0.4_cat_10_n02123045_5189.png
subject-02,1,509,0.652695894241333,cat,cat,1,0509_hp_s02_1_cat_10_n02124075_10085.png
subject-02,1,510,0.904666900634766,airplane,airplane,3,0510_hp_s02_3_airplane_10_n02690373_18848.png
subject-02,1,511,0.792448043823242,car,car,3,0511_hp_s02_3_car_10_n02814533_3375.png
subject-02,1,512,0.842160940170288,car,car,1.5,0512_hp_s02_1.5_car_10_n04285008_15271.png
subject-02,1,513,0.712033033370972,boat,car,0.45,0513_hp_s02_0.45_car_10_n03100240_21833.png
subject-02,1,514,0.614060163497925,clock,clock,inf,0514_hp_s02_inf_clock_10_n02708093_2043.png
subject-02,1,515,0.965740919113159,bottle,truck,inf,0515_hp_s02_inf_truck_10_n03796401_7699.png
subject-02,1,516,0.915541887283325,bird,bear,1.5,0516_hp_s02_1.5_bear_10_n02133161_13077.png
subject-02,1,517,1.30928707122803,dog,dog,inf,0517_hp_s02_inf_dog_10_n02102040_1100.png
subject-02,1,518,0.74123215675354,bottle,bottle,0.7,0518_hp_s02_0.7_bottle_10_n02823428_6201.png
subject-02,1,519,1.0088849067688,bicycle,bicycle,0.4,0519_hp_s02_0.4_bicycle_10_n02835271_12599.png
subject-02,1,520,0.778668880462646,bicycle,bicycle,inf,0520_hp_s02_inf_bicycle_10_n03792782_6512.png
subject-02,1,521,0.976534128189087,airplane,airplane,inf,0521_hp_s02_inf_airplane_10_n02690373_5564.png
subject-02,1,522,1.00858616828918,keyboard,car,0.55,0522_hp_s02_0.55_car_10_n03100240_3241.png
subject-02,1,523,0.676143884658813,elephant,elephant,3,0523_hp_s02_3_elephant_10_n02504458_2685.png
subject-02,1,524,0.594067811965942,clock,clock,1,0524_hp_s02_1_clock_10_n02708093_3173.png
subject-02,1,525,0.907769918441772,truck,dog,0.45,0525_hp_s02_0.45_dog_10_n02096585_391.png
subject-02,1,526,1.33357095718384,oven,oven,0.45,0526_hp_s02_0.45_oven_10_n04111531_3348.png
subject-02,1,527,0.815342903137207,keyboard,keyboard,inf,0527_hp_s02_inf_keyboard_10_n03085013_7962.png
subject-02,1,528,1.23140096664429,chair,truck,0.7,0528_hp_s02_0.7_truck_10_n04467665_30189.png
subject-02,1,529,1.48712301254272,bicycle,bicycle,inf,0529_hp_s02_inf_bicycle_10_n02835271_9067.png
subject-02,1,530,0.842813014984131,bird,bird,3,0530_hp_s02_3_bird_10_n01820546_228.png
subject-02,1,531,1.04298090934753,truck,truck,1.5,0531_hp_s02_1.5_truck_10_n03796401_1326.png
subject-02,1,532,0.976448059082031,bear,bear,inf,0532_hp_s02_inf_bear_10_n02134418_3886.png
subject-02,1,533,1.1003749370575,car,car,1,0533_hp_s02_1_car_10_n02814533_5183.png
subject-02,1,534,1.0482120513916,chair,chair,1,0534_hp_s02_1_chair_10_n04429376_1791.png
subject-02,1,535,0.82980489730835,bicycle,bicycle,inf,0535_hp_s02_inf_bicycle_10_n02835271_9191.png
subject-02,1,536,0.797688961029053,oven,truck,0.7,0536_hp_s02_0.7_truck_10_n03417042_4292.png
subject-02,1,537,1.13962197303772,knife,knife,3,0537_hp_s02_3_knife_10_n03041632_41493.png
subject-02,1,538,0.873471021652222,bird,bird,1.5,0538_hp_s02_1.5_bird_10_n01616318_9819.png
subject-02,1,539,1.09111785888672,elephant,bear,1.5,0539_hp_s02_1.5_bear_10_n02134084_1484.png
subject-02,1,540,1.07692193984985,boat,boat,1.5,0540_hp_s02_1.5_boat_10_n02951358_2813.png
subject-02,1,541,1.44915509223938,bird,knife,0.45,0541_hp_s02_0.45_knife_10_n03041632_17349.png
subject-02,1,542,1.17499494552612,knife,bird,inf,0542_hp_s02_inf_bird_10_n01833805_3578.png
subject-02,1,543,1.46689796447754,knife,airplane,0.55,0543_hp_s02_0.55_airplane_10_n02690373_7401.png
subject-02,1,544,NaN,na,airplane,0.55,0544_hp_s02_0.55_airplane_10_n02690373_20996.png
subject-02,1,545,0.584262847900391,boat,boat,0.7,0545_hp_s02_0.7_boat_10_n04273569_7355.png
subject-02,1,546,0.62595796585083,cat,dog,3,0546_hp_s02_3_dog_10_n02098286_4467.png
subject-02,1,547,0.89767599105835,dog,bicycle,0.45,0547_hp_s02_0.45_bicycle_10_n02835271_4682.png
subject-02,1,548,0.819823980331421,truck,truck,1.5,0548_hp_s02_1.5_truck_10_n04467665_38886.png
subject-02,1,549,1.3714280128479,clock,bird,0.45,0549_hp_s02_0.45_bird_10_n02018207_4151.png
subject-02,1,550,0.843165874481201,bicycle,bicycle,inf,0550_hp_s02_inf_bicycle_10_n02835271_1299.png
subject-02,1,551,1.39505815505981,airplane,chair,1.5,0551_hp_s02_1.5_chair_10_n03376595_6173.png
subject-02,1,552,1.21078896522522,boat,bottle,0.45,0552_hp_s02_0.45_bottle_10_n04591713_807.png
subject-02,1,553,1.40247392654419,bird,bear,0.4,0553_hp_s02_0.4_bear_10_n02134418_5735.png
subject-02,1,554,1.44444704055786,bird,bicycle,1.5,0554_hp_s02_1.5_bicycle_10_n03792782_66837.png
subject-02,1,555,1.44817590713501,cat,clock,1.5,0555_hp_s02_1.5_clock_10_n04548280_6122.png
subject-02,1,556,1.04217600822449,dog,dog,inf,0556_hp_s02_inf_dog_10_n02111500_4280.png
subject-02,1,557,0.781848907470703,bicycle,oven,0.55,0557_hp_s02_0.55_oven_10_n04111531_3977.png
subject-02,1,558,0.939703941345215,truck,truck,inf,0558_hp_s02_inf_truck_10_n04467665_4088.png
subject-02,1,559,1.16552090644836,airplane,boat,1,0559_hp_s02_1_boat_10_n04612504_1869.png
subject-02,1,560,0.697527885437012,boat,airplane,0.55,0560_hp_s02_0.55_airplane_10_n02690373_16986.png
subject-02,1,561,0.57940411567688,cat,cat,3,0561_hp_s02_3_cat_10_n02124075_5631.png
subject-02,1,562,0.744890928268433,keyboard,keyboard,0.55,0562_hp_s02_0.55_keyboard_10_n04505470_7686.png
subject-02,1,563,0.788748025894165,dog,cat,0.55,0563_hp_s02_0.55_cat_10_n02124075_853.png
subject-02,1,564,0.80890417098999,bear,bicycle,0.4,0564_hp_s02_0.4_bicycle_10_n02835271_1261.png
subject-02,1,565,0.754741907119751,oven,clock,0.7,0565_hp_s02_0.7_clock_10_n03196217_3361.png
subject-02,1,566,0.774258136749268,car,clock,0.4,0566_hp_s02_0.4_clock_10_n03196217_2628.png
subject-02,1,567,0.802164077758789,keyboard,oven,0.7,0567_hp_s02_0.7_oven_10_n04111531_14559.png
subject-02,1,568,0.763910055160522,chair,chair,3,0568_hp_s02_3_chair_10_n03376595_10873.png
subject-02,1,569,1.2435929775238,oven,clock,3,0569_hp_s02_3_clock_10_n04548280_8083.png
subject-02,1,570,1.10948896408081,bear,bear,1,0570_hp_s02_1_bear_10_n02132136_11125.png
subject-02,1,571,0.971206903457642,car,car,0.55,0571_hp_s02_0.55_car_10_n02814533_12532.png
subject-02,1,572,0.69494891166687,boat,boat,3,0572_hp_s02_3_boat_10_n03662601_3938.png
subject-02,1,573,0.772775173187256,clock,elephant,0.45,0573_hp_s02_0.45_elephant_10_n02504458_1473.png
subject-02,1,574,1.1026349067688,car,car,0.55,0574_hp_s02_0.55_car_10_n03100240_10384.png
subject-02,1,575,0.904811143875122,dog,bird,0.45,0575_hp_s02_0.45_bird_10_n01796340_6191.png
subject-02,1,576,0.674315929412842,airplane,airplane,3,0576_hp_s02_3_airplane_10_n02690373_21922.png
subject-02,1,577,0.624056100845337,bottle,bottle,3,0577_hp_s02_3_bottle_10_n04591713_7374.png
subject-02,1,578,0.697728157043457,cat,dog,3,0578_hp_s02_3_dog_10_n02091244_8497.png
subject-02,1,579,0.77776312828064,bear,bear,0.7,0579_hp_s02_0.7_bear_10_n02134084_1867.png
subject-02,1,580,0.841794967651367,truck,airplane,0.45,0580_hp_s02_0.45_airplane_10_n02690373_111.png
subject-02,1,581,0.923257112503052,bear,oven,0.55,0581_hp_s02_0.55_oven_10_n04111531_2371.png
subject-02,1,582,0.817286014556885,car,keyboard,0.4,0582_hp_s02_0.4_keyboard_10_n04505470_9762.png
subject-02,1,583,0.945167064666748,bicycle,bicycle,1.5,0583_hp_s02_1.5_bicycle_10_n03792782_11945.png
subject-02,1,584,1.13487720489502,dog,dog,3,0584_hp_s02_3_dog_10_n02091244_3193.png
subject-02,1,585,0.802555084228516,bear,bear,3,0585_hp_s02_3_bear_10_n02132136_17524.png
subject-02,1,586,1.17458200454712,airplane,airplane,1,0586_hp_s02_1_airplane_10_n02690373_3435.png
subject-02,1,587,0.994250059127808,airplane,airplane,3,0587_hp_s02_3_airplane_10_n02690373_4429.png
subject-02,1,588,0.668073177337646,bottle,bottle,3,0588_hp_s02_3_bottle_10_n04591713_4585.png
subject-02,1,589,1.00217700004578,boat,boat,1.5,0589_hp_s02_1.5_boat_10_n04273569_9803.png
subject-02,1,590,0.957898139953613,oven,oven,0.7,0590_hp_s02_0.7_oven_10_n04111531_4749.png
subject-02,1,591,0.845627069473267,bird,bird,1,0591_hp_s02_1_bird_10_n02025239_1443.png
subject-02,1,592,0.783182144165039,car,dog,0.4,0592_hp_s02_0.4_dog_10_n02112350_279.png
subject-02,1,593,0.863140821456909,bottle,bottle,1.5,0593_hp_s02_1.5_bottle_10_n03983396_11898.png
subject-02,1,594,0.568938970565796,bear,car,0.4,0594_hp_s02_0.4_car_10_n03100240_6836.png
subject-02,1,595,1.01096701622009,bear,bear,0.7,0595_hp_s02_0.7_bear_10_n02132136_2279.png
subject-02,1,596,0.726623058319092,elephant,oven,0.4,0596_hp_s02_0.4_oven_10_n04111531_1815.png
subject-02,1,597,0.980454921722412,bird,cat,0.55,0597_hp_s02_0.55_cat_10_n02123045_5080.png
subject-02,1,598,0.840067863464355,dog,dog,inf,0598_hp_s02_inf_dog_10_n02108915_11897.png
subject-02,1,599,0.655747890472412,airplane,airplane,inf,0599_hp_s02_inf_airplane_10_n02690373_15411.png
subject-02,1,600,1.41574287414551,elephant,elephant,1.5,0600_hp_s02_1.5_elephant_10_n02504458_7144.png
subject-02,1,601,1.41747498512268,knife,bear,0.45,0601_hp_s02_0.45_bear_10_n02132136_2875.png
subject-02,1,602,0.699409008026123,car,bird,0.7,0602_hp_s02_0.7_bird_10_n01855032_3713.png
subject-02,1,603,0.735124826431274,keyboard,keyboard,0.55,0603_hp_s02_0.55_keyboard_10_n03085013_23201.png
subject-02,1,604,1.20685911178589,dog,dog,3,0604_hp_s02_3_dog_10_n02093754_5823.png
subject-02,1,605,0.918931007385254,truck,truck,3,0605_hp_s02_3_truck_10_n03417042_212.png
subject-02,1,606,0.880754947662354,boat,boat,inf,0606_hp_s02_inf_boat_10_n03662601_4295.png
subject-02,1,607,0.844512939453125,car,car,1.5,0607_hp_s02_1.5_car_10_n02814533_5085.png
subject-02,1,608,1.04226899147034,elephant,elephant,1.5,0608_hp_s02_1.5_elephant_10_n02504458_5369.png
subject-02,1,609,1.49201393127441,bear,cat,0.45,0609_hp_s02_0.45_cat_10_n02125311_25104.png
subject-02,1,610,1.48822617530823,bird,bird,0.55,0610_hp_s02_0.55_bird_10_n02006656_11566.png
subject-02,1,611,0.889627933502197,keyboard,chair,0.7,0611_hp_s02_0.7_chair_10_n04429376_22819.png
subject-02,1,612,1.50002408027649,bicycle,elephant,0.45,0612_hp_s02_0.45_elephant_10_n02504458_6472.png
subject-02,1,613,0.591480016708374,car,car,1.5,0613_hp_s02_1.5_car_10_n02814533_4501.png
subject-02,1,614,0.857279062271118,bicycle,bicycle,3,0614_hp_s02_3_bicycle_10_n03792782_6152.png
subject-02,1,615,0.668966054916382,car,car,0.45,0615_hp_s02_0.45_car_10_n02814533_70922.png
subject-02,1,616,1.50006484985352,cat,bicycle,0.4,0616_hp_s02_0.4_bicycle_10_n02835271_8098.png
subject-02,1,617,0.648437976837158,bear,bear,1,0617_hp_s02_1_bear_10_n02132136_10559.png
subject-02,1,618,0.902230024337769,dog,bottle,0.7,0618_hp_s02_0.7_bottle_10_n04560804_15225.png
subject-02,1,619,1.04621315002441,elephant,elephant,3,0619_hp_s02_3_elephant_10_n02504013_2269.png
subject-02,1,620,0.82999587059021,car,car,0.7,0620_hp_s02_0.7_car_10_n04285008_12138.png
subject-02,1,621,1.20784592628479,airplane,knife,1,0621_hp_s02_1_knife_10_n03041632_14442.png
subject-02,1,622,0.48953914642334,cat,truck,0.4,0622_hp_s02_0.4_truck_10_n03796401_3651.png
subject-02,1,623,0.821460008621216,bottle,bottle,1.5,0623_hp_s02_1.5_bottle_10_n04560804_12099.png
subject-02,1,624,0.777312040328979,keyboard,keyboard,inf,0624_hp_s02_inf_keyboard_10_n04505470_4565.png
subject-02,1,625,0.560865163803101,boat,boat,inf,0625_hp_s02_inf_boat_10_n02951358_31813.png
subject-02,1,626,1.2608790397644,elephant,elephant,1.5,0626_hp_s02_1.5_elephant_10_n02504013_701.png
subject-02,1,627,0.810677051544189,cat,cat,3,0627_hp_s02_3_cat_10_n02124075_14326.png
subject-02,1,628,1.28848600387573,elephant,oven,1.5,0628_hp_s02_1.5_oven_10_n04111531_49.png
subject-02,1,629,1.00035119056702,knife,knife,1,0629_hp_s02_1_knife_10_n03041632_12707.png
subject-02,1,630,1.02198505401611,cat,dog,1.5,0630_hp_s02_1.5_dog_10_n02092339_2197.png
subject-02,1,631,1.07986688613892,keyboard,keyboard,inf,0631_hp_s02_inf_keyboard_10_n03085013_23213.png
subject-02,1,632,0.955755949020386,dog,truck,0.55,0632_hp_s02_0.55_truck_10_n03417042_6517.png
subject-02,1,633,0.989721059799194,bear,bicycle,0.55,0633_hp_s02_0.55_bicycle_10_n02835271_6167.png
subject-02,1,634,1.30553412437439,boat,bird,0.55,0634_hp_s02_0.55_bird_10_n01824575_328.png
subject-02,1,635,0.775316953659058,knife,knife,inf,0635_hp_s02_inf_knife_10_n03041632_33584.png
subject-02,1,636,1.01489305496216,elephant,bear,0.7,0636_hp_s02_0.7_bear_10_n02134418_962.png
subject-02,1,637,1.18104481697083,keyboard,keyboard,0.7,0637_hp_s02_0.7_keyboard_10_n03085013_24257.png
subject-02,1,638,0.868823051452637,dog,dog,inf,0638_hp_s02_inf_dog_10_n02086646_7064.png
subject-02,1,639,0.956387042999268,car,bear,0.4,0639_hp_s02_0.4_bear_10_n02133161_10325.png
subject-02,1,640,0.898643970489502,bird,bird,1.5,0640_hp_s02_1.5_bird_10_n01558993_14305.png
subject-02,1,641,0.847509145736694,knife,knife,3,0641_hp_s02_3_knife_10_n03041632_33739.png
subject-02,1,642,1.02932500839233,boat,bicycle,1,0642_hp_s02_1_bicycle_10_n03792782_15174.png
subject-02,1,643,1.15727710723877,bicycle,bicycle,1.5,0643_hp_s02_1.5_bicycle_10_n02835271_1874.png
subject-02,1,644,0.753230810165405,truck,truck,1,0644_hp_s02_1_truck_10_n03417042_3398.png
subject-02,1,645,0.997031927108765,airplane,boat,0.55,0645_hp_s02_0.55_boat_10_n04273569_1086.png
subject-02,1,646,0.622653007507324,cat,cat,1.5,0646_hp_s02_1.5_cat_10_n02123394_3813.png
subject-02,1,647,0.702320098876953,car,elephant,0.4,0647_hp_s02_0.4_elephant_10_n02504013_295.png
subject-02,1,648,0.784404993057251,keyboard,bear,0.45,0648_hp_s02_0.45_bear_10_n02134418_13618.png
subject-02,1,649,0.730226993560791,bear,bottle,0.4,0649_hp_s02_0.4_bottle_10_n03983396_3047.png
subject-02,1,650,0.913878917694092,boat,boat,0.7,0650_hp_s02_0.7_boat_10_n03344393_9459.png
subject-02,1,651,0.995580911636353,cat,dog,1,0651_hp_s02_1_dog_10_n02097658_3693.png
subject-02,1,652,0.939613103866577,bird,elephant,0.45,0652_hp_s02_0.45_elephant_10_n02504458_4767.png
subject-02,1,653,0.607257127761841,keyboard,keyboard,0.7,0653_hp_s02_0.7_keyboard_10_n03085013_21973.png
subject-02,1,654,1.00910186767578,bear,dog,0.7,0654_hp_s02_0.7_dog_10_n02096294_7536.png
subject-02,1,655,0.776975870132446,clock,clock,0.7,0655_hp_s02_0.7_clock_10_n03196217_219.png
subject-02,1,656,0.696639060974121,car,car,inf,0656_hp_s02_inf_car_10_n03100240_2477.png
subject-02,1,657,0.900424003601074,bear,bear,inf,0657_hp_s02_inf_bear_10_n02133161_4580.png
subject-02,1,658,0.760493993759155,clock,clock,3,0658_hp_s02_3_clock_10_n03196217_5877.png
subject-02,1,659,0.548259973526001,cat,cat,3,0659_hp_s02_3_cat_10_n02123597_13865.png
subject-02,1,660,0.722225189208984,car,car,0.45,0660_hp_s02_0.45_car_10_n04285008_12457.png
subject-02,1,661,1.14582705497742,bird,bird,inf,0661_hp_s02_inf_bird_10_n01820546_6625.png
subject-02,1,662,0.803640127182007,airplane,boat,0.4,0662_hp_s02_0.4_boat_10_n04612504_29813.png
subject-02,1,663,0.797363996505737,car,car,inf,0663_hp_s02_inf_car_10_n04285008_5838.png
subject-02,1,664,1.04535508155823,dog,bird,0.4,0664_hp_s02_0.4_bird_10_n01843065_2176.png
subject-02,1,665,0.837232112884521,bicycle,bear,0.45,0665_hp_s02_0.45_bear_10_n02132136_2108.png
subject-02,1,666,1.35085797309875,bird,bear,3,0666_hp_s02_3_bear_10_n02133161_2800.png
subject-02,1,667,1.05652594566345,car,airplane,0.4,0667_hp_s02_0.4_airplane_10_n02690373_7055.png
subject-02,1,668,1.09445405006409,bicycle,bicycle,3,0668_hp_s02_3_bicycle_10_n02835271_781.png
subject-02,1,669,0.572464942932129,oven,bottle,0.55,0669_hp_s02_0.55_bottle_10_n04557648_3350.png
subject-02,1,670,1.01440382003784,chair,chair,1,0670_hp_s02_1_chair_10_n02791124_5268.png
subject-02,1,671,1.40618300437927,bicycle,bicycle,1,0671_hp_s02_1_bicycle_10_n02835271_24230.png
subject-02,1,672,1.12363386154175,airplane,boat,inf,0672_hp_s02_inf_boat_10_n03662601_3145.png
subject-02,1,673,0.689738035202026,boat,boat,3,0673_hp_s02_3_boat_10_n03662601_34042.png
subject-02,1,674,1.30931186676025,bird,bottle,0.55,0674_hp_s02_0.55_bottle_10_n03983396_1904.png
subject-02,1,675,0.781312942504883,car,keyboard,0.55,0675_hp_s02_0.55_keyboard_10_n03085013_24510.png
subject-02,1,676,0.953161954879761,elephant,elephant,1,0676_hp_s02_1_elephant_10_n02504458_2928.png
subject-02,1,677,0.84082818031311,bird,bird,1.5,0677_hp_s02_1.5_bird_10_n01843065_6365.png
subject-02,1,678,0.662546873092651,keyboard,cat,0.55,0678_hp_s02_0.55_cat_10_n02123394_3607.png
subject-02,1,679,0.920464038848877,chair,oven,3,0679_hp_s02_3_oven_10_n04111531_2042.png
subject-02,1,680,1.18205404281616,bear,boat,0.7,0680_hp_s02_0.7_boat_10_n03344393_7179.png
subject-02,1,681,0.821942090988159,boat,airplane,0.7,0681_hp_s02_0.7_airplane_10_n02690373_10397.png
subject-02,1,682,0.90772008895874,bicycle,bottle,1,0682_hp_s02_1_bottle_10_n03983396_4716.png
subject-02,1,683,0.793766975402832,dog,dog,3,0683_hp_s02_3_dog_10_n02093428_17625.png
subject-02,1,684,0.649503231048584,clock,dog,0.4,0684_hp_s02_0.4_dog_10_n02106662_37555.png
subject-02,1,685,1.38513088226318,car,airplane,0.7,0685_hp_s02_0.7_airplane_10_n02690373_9712.png
subject-02,1,686,1.18485593795776,cat,cat,0.55,0686_hp_s02_0.55_cat_10_n02123159_5429.png
subject-02,1,687,1.13875317573547,car,car,0.7,0687_hp_s02_0.7_car_10_n02814533_62413.png
subject-02,1,688,1.02884316444397,elephant,elephant,inf,0688_hp_s02_inf_elephant_10_n02504458_1506.png
subject-02,1,689,1.12683320045471,keyboard,keyboard,3,0689_hp_s02_3_keyboard_10_n04505470_10076.png
subject-02,1,690,1.10223793983459,bear,bear,1.5,0690_hp_s02_1.5_bear_10_n02133161_334.png
subject-02,1,691,0.838201999664307,oven,cat,0.7,0691_hp_s02_0.7_cat_10_n02123159_5993.png
subject-02,1,692,1.10792994499207,car,bird,0.7,0692_hp_s02_0.7_bird_10_n02006656_1412.png
subject-02,1,693,1.3419508934021,dog,dog,1.5,0693_hp_s02_1.5_dog_10_n02086910_730.png
subject-02,1,694,1.45342493057251,dog,dog,3,0694_hp_s02_3_dog_10_n02102973_7028.png
subject-02,1,695,NaN,na,knife,1,0695_hp_s02_1_knife_10_n03041632_39836.png
subject-02,1,696,0.925060033798218,car,car,1.5,0696_hp_s02_1.5_car_10_n02814533_31493.png
subject-02,1,697,0.875051975250244,keyboard,chair,3,0697_hp_s02_3_chair_10_n04429376_22344.png
subject-02,1,698,1.0267698764801,boat,truck,0.4,0698_hp_s02_0.4_truck_10_n03796401_4423.png
subject-02,1,699,1.04067897796631,keyboard,clock,1.5,0699_hp_s02_1.5_clock_10_n03196217_10190.png
subject-02,1,700,1.12047386169434,car,knife,0.45,0700_hp_s02_0.45_knife_10_n03041632_32004.png
subject-02,1,701,0.614253997802734,clock,clock,1.5,0701_hp_s02_1.5_clock_10_n02708093_3750.png
subject-02,1,702,0.912489891052246,cat,oven,0.55,0702_hp_s02_0.55_oven_10_n04111531_190.png
subject-02,1,703,0.713963031768799,chair,chair,inf,0703_hp_s02_inf_chair_10_n02791124_6999.png
subject-02,1,704,0.963985919952393,keyboard,boat,0.7,0704_hp_s02_0.7_boat_10_n03344393_2941.png
subject-02,1,705,0.545446157455444,boat,boat,inf,0705_hp_s02_inf_boat_10_n04612504_1692.png
subject-02,1,706,1.12347984313965,oven,chair,0.4,0706_hp_s02_0.4_chair_10_n03376595_7699.png
subject-02,1,707,0.837527990341187,bear,truck,0.55,0707_hp_s02_0.55_truck_10_n04467665_67853.png
subject-02,1,708,1.31717205047607,bear,bottle,1.5,0708_hp_s02_1.5_bottle_10_n03937543_146.png
subject-02,1,709,0.72676420211792,chair,chair,3,0709_hp_s02_3_chair_10_n04099969_1229.png
subject-02,1,710,0.598595857620239,bottle,bear,0.45,0710_hp_s02_0.45_bear_10_n02133161_2749.png
subject-02,1,711,0.758327960968018,clock,clock,3,0711_hp_s02_3_clock_10_n02708093_3484.png
subject-02,1,712,1.19624209403992,cat,bird,3,0712_hp_s02_3_bird_10_n01514859_8585.png
subject-02,1,713,1.3439838886261,clock,bottle,0.7,0713_hp_s02_0.7_bottle_10_n03937543_5166.png
subject-02,1,714,0.839885950088501,keyboard,clock,1.5,0714_hp_s02_1.5_clock_10_n03196217_10717.png
subject-02,1,715,0.79570484161377,cat,cat,inf,0715_hp_s02_inf_cat_10_n02125311_18354.png
subject-02,1,716,1.44766402244568,bear,elephant,1.5,0716_hp_s02_1.5_elephant_10_n02504013_7079.png
subject-02,1,717,0.993316173553467,car,boat,0.4,0717_hp_s02_0.4_boat_10_n02951358_11867.png
subject-02,1,718,0.649356126785278,clock,clock,0.7,0718_hp_s02_0.7_clock_10_n04548280_6493.png
subject-02,1,719,1.04928612709045,elephant,elephant,inf,0719_hp_s02_inf_elephant_10_n02504458_3068.png
subject-02,1,720,0.974702119827271,dog,oven,0.4,0720_hp_s02_0.4_oven_10_n04111531_5463.png
subject-02,1,721,0.952313899993896,car,oven,0.45,0721_hp_s02_0.45_oven_10_n04111531_7050.png
subject-02,1,722,0.614375114440918,airplane,clock,0.4,0722_hp_s02_0.4_clock_10_n02708093_2580.png
subject-02,1,723,0.908145189285278,bicycle,bicycle,1.5,0723_hp_s02_1.5_bicycle_10_n03792782_5106.png
subject-02,1,724,1.05943202972412,boat,chair,0.7,0724_hp_s02_0.7_chair_10_n03376595_12256.png
subject-02,1,725,1.26524090766907,truck,oven,0.4,0725_hp_s02_0.4_oven_10_n04111531_1794.png
subject-02,1,726,0.979180812835693,airplane,airplane,0.7,0726_hp_s02_0.7_airplane_10_n02690373_3313.png
subject-02,1,727,0.918812036514282,bottle,car,0.4,0727_hp_s02_0.4_car_10_n04285008_9765.png
subject-02,1,728,1.01489210128784,boat,boat,1,0728_hp_s02_1_boat_10_n04273569_16739.png
subject-02,1,729,0.726902961730957,cat,elephant,0.55,0729_hp_s02_0.55_elephant_10_n02504013_407.png
subject-02,1,730,0.730345964431763,bottle,bottle,inf,0730_hp_s02_inf_bottle_10_n04560804_16526.png
subject-02,1,731,0.984534025192261,bird,bird,0.4,0731_hp_s02_0.4_bird_10_n01537544_18123.png
subject-02,1,732,0.733983993530273,dog,cat,0.4,0732_hp_s02_0.4_cat_10_n02123597_1825.png
subject-02,1,733,0.799881935119629,clock,clock,0.7,0733_hp_s02_0.7_clock_10_n04548280_5038.png
subject-02,1,734,0.957521915435791,bear,bear,0.55,0734_hp_s02_0.55_bear_10_n02132136_23853.png
subject-02,1,735,1.08746385574341,truck,bear,0.55,0735_hp_s02_0.55_bear_10_n02134084_1949.png
subject-02,1,736,1.24534487724304,airplane,bottle,1,0736_hp_s02_1_bottle_10_n04591713_1649.png
subject-02,1,737,0.709064960479736,car,keyboard,0.45,0737_hp_s02_0.45_keyboard_10_n03085013_22016.png
subject-02,1,738,1.1087760925293,bicycle,bicycle,inf,0738_hp_s02_inf_bicycle_10_n02835271_8512.png
subject-02,1,739,1.49867296218872,elephant,elephant,3,0739_hp_s02_3_elephant_10_n02504458_1617.png
subject-02,1,740,1.08841800689697,chair,boat,0.55,0740_hp_s02_0.55_boat_10_n02951358_9884.png
subject-02,1,741,0.996522903442383,oven,knife,0.55,0741_hp_s02_0.55_knife_10_n03041632_5302.png
subject-02,1,742,1.47620987892151,oven,chair,0.4,0742_hp_s02_0.4_chair_10_n03376595_383.png
subject-02,1,743,0.534046173095703,cat,cat,inf,0743_hp_s02_inf_cat_10_n02123045_10395.png
subject-02,1,744,0.745729207992554,bear,bear,1.5,0744_hp_s02_1.5_bear_10_n02134418_3216.png
subject-02,1,745,0.715673923492432,chair,chair,1.5,0745_hp_s02_1.5_chair_10_n02791124_2825.png
subject-02,1,746,1.10925817489624,car,knife,0.4,0746_hp_s02_0.4_knife_10_n03041632_14774.png
subject-02,1,747,1.39504289627075,truck,bottle,0.4,0747_hp_s02_0.4_bottle_10_n04557648_2093.png
subject-02,1,748,0.810999870300293,knife,keyboard,0.45,0748_hp_s02_0.45_keyboard_10_n04505470_709.png
subject-02,1,749,0.879189014434814,car,car,1,0749_hp_s02_1_car_10_n04285008_5788.png
subject-02,1,750,1.1371328830719,knife,knife,3,0750_hp_s02_3_knife_10_n03041632_21034.png
subject-02,1,751,0.944304227828979,car,cat,0.4,0751_hp_s02_0.4_cat_10_n02125311_8522.png
subject-02,1,752,1.0643789768219,dog,dog,1,0752_hp_s02_1_dog_10_n02102177_5770.png
subject-02,1,753,0.768029928207397,knife,knife,1.5,0753_hp_s02_1.5_knife_10_n03041632_36907.png
subject-02,1,754,1.06803512573242,cat,bear,0.7,0754_hp_s02_0.7_bear_10_n02134418_5848.png
subject-02,1,755,0.723720073699951,knife,knife,inf,0755_hp_s02_inf_knife_10_n03041632_96714.png
subject-02,1,756,0.993399143218994,clock,clock,3,0756_hp_s02_3_clock_10_n04548280_5013.png
subject-02,1,757,0.971341133117676,airplane,airplane,1.5,0757_hp_s02_1.5_airplane_10_n02690373_3377.png
subject-02,1,758,1.35520911216736,boat,knife,1.5,0758_hp_s02_1.5_knife_10_n03041632_13518.png
subject-02,1,759,1.06323099136353,keyboard,keyboard,0.7,0759_hp_s02_0.7_keyboard_10_n03085013_1483.png
subject-02,1,760,0.860811948776245,chair,knife,0.45,0760_hp_s02_0.45_knife_10_n03041632_4443.png
subject-02,1,761,1.16868805885315,car,car,3,0761_hp_s02_3_car_10_n04285008_13104.png
subject-02,1,762,0.910295009613037,boat,chair,0.55,0762_hp_s02_0.55_chair_10_n04099969_4725.png
subject-02,1,763,0.578374147415161,clock,clock,1.5,0763_hp_s02_1.5_clock_10_n04548280_3198.png
subject-02,1,764,0.790122985839844,keyboard,oven,0.7,0764_hp_s02_0.7_oven_10_n04111531_8688.png
subject-02,1,765,0.687644958496094,bear,bird,0.45,0765_hp_s02_0.45_bird_10_n01795545_3992.png
subject-02,1,766,0.861620903015137,boat,truck,1.5,0766_hp_s02_1.5_truck_10_n04467665_45872.png
subject-02,1,767,0.847299098968506,dog,chair,0.4,0767_hp_s02_0.4_chair_10_n02791124_9414.png
subject-02,1,768,0.63745903968811,truck,bear,0.4,0768_hp_s02_0.4_bear_10_n02133161_2813.png
subject-02,1,769,0.796957015991211,airplane,bear,0.4,0769_hp_s02_0.4_bear_10_n02134418_2412.png
subject-02,1,770,0.98894190788269,elephant,chair,0.45,0770_hp_s02_0.45_chair_10_n04429376_694.png
subject-02,1,771,0.872612953186035,clock,clock,1,0771_hp_s02_1_clock_10_n02708093_1291.png
subject-02,1,772,1.50003695487976,keyboard,keyboard,0.7,0772_hp_s02_0.7_keyboard_10_n03085013_20805.png
subject-02,1,773,0.860169887542725,cat,cat,0.55,0773_hp_s02_0.55_cat_10_n02125311_22122.png
subject-02,1,774,0.821953058242798,oven,oven,3,0774_hp_s02_3_oven_10_n04111531_1313.png
subject-02,1,775,0.730005979537964,bird,cat,1.5,0775_hp_s02_1.5_cat_10_n02123597_7071.png
subject-02,1,776,0.717865943908691,dog,bottle,0.45,0776_hp_s02_0.45_bottle_10_n04557648_413.png
subject-02,1,777,0.781604051589966,bicycle,bicycle,1,0777_hp_s02_1_bicycle_10_n02835271_719.png
subject-02,1,778,0.959271192550659,truck,truck,3,0778_hp_s02_3_truck_10_n04467665_45796.png
subject-02,1,779,0.933166027069092,airplane,truck,0.4,0779_hp_s02_0.4_truck_10_n03417042_18124.png
subject-02,1,780,0.905040979385376,truck,truck,1,0780_hp_s02_1_truck_10_n03796401_430.png
subject-02,1,781,0.774901151657104,car,boat,0.7,0781_hp_s02_0.7_boat_10_n03662601_840.png
subject-02,1,782,0.780535936355591,boat,keyboard,0.45,0782_hp_s02_0.45_keyboard_10_n03085013_14810.png
subject-02,1,783,0.602534055709839,bottle,bottle,1,0783_hp_s02_1_bottle_10_n04579145_287.png
subject-02,1,784,0.752373933792114,airplane,airplane,3,0784_hp_s02_3_airplane_10_n02690373_4465.png
subject-02,1,785,0.966064929962158,bicycle,bicycle,1.5,0785_hp_s02_1.5_bicycle_10_n02835271_358.png
subject-02,1,786,0.733951807022095,car,bear,0.45,0786_hp_s02_0.45_bear_10_n02134418_1798.png
subject-02,1,787,1.01388120651245,car,bird,0.7,0787_hp_s02_0.7_bird_10_n02009229_4667.png
subject-02,1,788,0.517368078231812,cat,bottle,0.45,0788_hp_s02_0.45_bottle_10_n04560804_7509.png
subject-02,1,789,0.831258058547974,knife,knife,inf,0789_hp_s02_inf_knife_10_n03041632_48816.png
subject-02,1,790,1.20510315895081,bear,bear,0.45,0790_hp_s02_0.45_bear_10_n02134084_22801.png
subject-02,1,791,1.27319097518921,bird,elephant,0.7,0791_hp_s02_0.7_elephant_10_n02504458_5308.png
subject-02,1,792,0.826797008514404,cat,cat,0.7,0792_hp_s02_0.7_cat_10_n02123597_3634.png
subject-02,1,793,1.12687206268311,car,dog,0.45,0793_hp_s02_0.45_dog_10_n02097209_7557.png
subject-02,1,794,0.798344135284424,bear,bear,inf,0794_hp_s02_inf_bear_10_n02132136_22387.png
subject-02,1,795,0.648306846618652,boat,boat,3,0795_hp_s02_3_boat_10_n03662601_15713.png
subject-02,1,796,0.87785792350769,truck,truck,3,0796_hp_s02_3_truck_10_n03417042_4614.png
subject-02,1,797,0.965633869171143,boat,clock,0.55,0797_hp_s02_0.55_clock_10_n03196217_2983.png
subject-02,1,798,0.943461179733276,bicycle,bicycle,1,0798_hp_s02_1_bicycle_10_n03792782_8176.png
subject-02,1,799,0.813755989074707,boat,boat,1.5,0799_hp_s02_1.5_boat_10_n04273569_3401.png
subject-02,1,800,1.06529593467712,car,oven,0.55,0800_hp_s02_0.55_oven_10_n04111531_3082.png
subject-02,1,801,0.982678174972534,car,truck,0.45,0801_hp_s02_0.45_truck_10_n04467665_40002.png
subject-02,1,802,0.906475067138672,oven,boat,0.45,0802_hp_s02_0.45_boat_10_n03662601_14982.png
subject-02,1,803,0.698218107223511,bear,knife,0.7,0803_hp_s02_0.7_knife_10_n03041632_24461.png
subject-02,1,804,1.28199601173401,elephant,cat,0.7,0804_hp_s02_0.7_cat_10_n02124075_8732.png
subject-02,1,805,0.761989831924438,bottle,bottle,0.7,0805_hp_s02_0.7_bottle_10_n03983396_4990.png
subject-02,1,806,0.79597282409668,keyboard,keyboard,1.5,0806_hp_s02_1.5_keyboard_10_n04505470_5275.png
subject-02,1,807,0.931679964065552,oven,oven,0.7,0807_hp_s02_0.7_oven_10_n04111531_8117.png
subject-02,1,808,0.821228981018066,car,car,1,0808_hp_s02_1_car_10_n04285008_7751.png
subject-02,1,809,0.991163015365601,truck,airplane,0.55,0809_hp_s02_0.55_airplane_10_n02690373_3035.png
subject-02,1,810,0.864750146865845,bicycle,bicycle,inf,0810_hp_s02_inf_bicycle_10_n03792782_47694.png
subject-02,1,811,0.968692064285278,dog,keyboard,0.4,0811_hp_s02_0.4_keyboard_10_n03085013_2362.png
subject-02,1,812,0.950445175170898,boat,boat,1.5,0812_hp_s02_1.5_boat_10_n03344393_7631.png
subject-02,1,813,0.704282999038696,oven,bottle,0.45,0813_hp_s02_0.45_bottle_10_n04560804_19619.png
subject-02,1,814,0.988095998764038,chair,bottle,0.4,0814_hp_s02_0.4_bottle_10_n04591713_1762.png
subject-02,1,815,1.39404010772705,clock,clock,3,0815_hp_s02_3_clock_10_n04548280_6919.png
subject-02,1,816,1.40983986854553,elephant,elephant,1,0816_hp_s02_1_elephant_10_n02504458_4439.png
subject-02,1,817,0.6615149974823,cat,cat,1.5,0817_hp_s02_1.5_cat_10_n02123045_12040.png
subject-02,1,818,0.86150598526001,car,airplane,0.4,0818_hp_s02_0.4_airplane_10_n02690373_5475.png
subject-02,1,819,1.18761491775513,dog,dog,1,0819_hp_s02_1_dog_10_n02105162_1601.png
subject-02,1,820,0.728994131088257,cat,bicycle,0.7,0820_hp_s02_0.7_bicycle_10_n03792782_4067.png
subject-02,1,821,1.1207230091095,keyboard,keyboard,1.5,0821_hp_s02_1.5_keyboard_10_n03085013_26556.png
subject-02,1,822,0.854603052139282,oven,chair,0.45,0822_hp_s02_0.45_chair_10_n04099969_4053.png
subject-02,1,823,0.854472875595093,bird,bird,1,0823_hp_s02_1_bird_10_n01824575_12784.png
subject-02,1,824,1.09225106239319,oven,knife,0.7,0824_hp_s02_0.7_knife_10_n03041632_39739.png
subject-02,1,825,1.06611800193787,cat,bear,1,0825_hp_s02_1_bear_10_n02134084_16190.png
subject-02,1,826,0.820039033889771,bear,dog,0.55,0826_hp_s02_0.55_dog_10_n02094433_10343.png
subject-02,1,827,1.22003507614136,clock,clock,0.7,0827_hp_s02_0.7_clock_10_n03196217_6217.png
subject-02,1,828,0.729528903961182,cat,bottle,0.7,0828_hp_s02_0.7_bottle_10_n04591713_2501.png
subject-02,1,829,0.66521692276001,chair,cat,0.4,0829_hp_s02_0.4_cat_10_n02123159_6381.png
subject-02,1,830,1.12323713302612,truck,bottle,0.4,0830_hp_s02_0.4_bottle_10_n04557648_1107.png
subject-02,1,831,0.702862024307251,car,car,0.4,0831_hp_s02_0.4_car_10_n04285008_11133.png
subject-02,1,832,0.624657154083252,bicycle,bicycle,1,0832_hp_s02_1_bicycle_10_n02835271_11851.png
subject-02,1,833,1.07685303688049,bicycle,oven,1.5,0833_hp_s02_1.5_oven_10_n04111531_15616.png
subject-02,1,834,1.04281902313232,elephant,elephant,1,0834_hp_s02_1_elephant_10_n02504013_6904.png
subject-02,1,835,0.796365022659302,oven,knife,0.55,0835_hp_s02_0.55_knife_10_n03041632_36247.png
subject-02,1,836,0.683910131454468,bottle,bottle,3,0836_hp_s02_3_bottle_10_n02823428_10796.png
subject-02,1,837,0.935781002044678,bicycle,bicycle,0.55,0837_hp_s02_0.55_bicycle_10_n03792782_4251.png
subject-02,1,838,0.673725843429565,cat,dog,0.7,0838_hp_s02_0.7_dog_10_n02110185_9014.png
subject-02,1,839,0.827378988265991,keyboard,keyboard,1.5,0839_hp_s02_1.5_keyboard_10_n03085013_21615.png
subject-02,1,840,1.10142302513123,knife,knife,1.5,0840_hp_s02_1.5_knife_10_n03041632_50332.png
subject-02,1,841,0.779185056686401,oven,bird,0.45,0841_hp_s02_0.45_bird_10_n02006656_3891.png
subject-02,1,842,0.625348091125488,bottle,bottle,1.5,0842_hp_s02_1.5_bottle_10_n04560804_13232.png
subject-02,1,843,0.846710920333862,clock,bottle,1,0843_hp_s02_1_bottle_10_n04591713_4206.png
subject-02,1,844,0.566602945327759,cat,bird,0.55,0844_hp_s02_0.55_bird_10_n01616318_12459.png
subject-02,1,845,0.534374952316284,cat,cat,1,0845_hp_s02_1_cat_10_n02123159_2107.png
subject-02,1,846,0.858407974243164,keyboard,keyboard,1,0846_hp_s02_1_keyboard_10_n03085013_22494.png
subject-02,1,847,0.50380802154541,cat,cat,inf,0847_hp_s02_inf_cat_10_n02124075_8754.png
subject-02,1,848,0.715759038925171,boat,boat,inf,0848_hp_s02_inf_boat_10_n02951358_4189.png
subject-02,1,849,0.851603984832764,clock,oven,inf,0849_hp_s02_inf_oven_10_n04111531_8959.png
subject-02,1,850,0.89779806137085,airplane,airplane,1,0850_hp_s02_1_airplane_10_n02690373_4202.png
subject-02,1,851,0.585122108459473,cat,cat,0.7,0851_hp_s02_0.7_cat_10_n02123597_1684.png
subject-02,1,852,0.769551038742065,clock,clock,inf,0852_hp_s02_inf_clock_10_n03196217_1550.png
subject-02,1,853,0.802708148956299,boat,boat,3,0853_hp_s02_3_boat_10_n03662601_1834.png
subject-02,1,854,0.842558860778809,airplane,airplane,1.5,0854_hp_s02_1.5_airplane_10_n02690373_5015.png
subject-02,1,855,1.14644598960876,bear,boat,0.4,0855_hp_s02_0.4_boat_10_n03344393_4509.png
subject-02,1,856,0.772222995758057,boat,boat,3,0856_hp_s02_3_boat_10_n03662601_2197.png
subject-02,1,857,0.968261957168579,cat,dog,1.5,0857_hp_s02_1.5_dog_10_n02097047_1003.png
subject-02,1,858,1.18194508552551,keyboard,dog,0.7,0858_hp_s02_0.7_dog_10_n02096051_988.png
subject-02,1,859,1.50006198883057,elephant,elephant,3,0859_hp_s02_3_elephant_10_n02504458_3329.png
subject-02,1,860,0.72138500213623,knife,knife,3,0860_hp_s02_3_knife_10_n03041632_42196.png
subject-02,1,861,0.929350137710571,car,bicycle,0.45,0861_hp_s02_0.45_bicycle_10_n03792782_6133.png
subject-02,1,862,0.725138187408447,boat,airplane,0.55,0862_hp_s02_0.55_airplane_10_n02690373_19646.png
subject-02,1,863,0.749074935913086,bicycle,bicycle,inf,0863_hp_s02_inf_bicycle_10_n02835271_14914.png
subject-02,1,864,0.688635110855103,chair,chair,0.7,0864_hp_s02_0.7_chair_10_n04099969_16512.png
subject-02,1,865,1.1285240650177,dog,dog,3,0865_hp_s02_3_dog_10_n02093256_2633.png
subject-02,1,866,0.944298982620239,elephant,knife,0.55,0866_hp_s02_0.55_knife_10_n03041632_86554.png
subject-02,1,867,0.670088768005371,airplane,keyboard,0.45,0867_hp_s02_0.45_keyboard_10_n03085013_25559.png
subject-02,1,868,0.584007024765015,clock,clock,inf,0868_hp_s02_inf_clock_10_n02708093_8390.png
subject-02,1,869,1.41573715209961,bear,bear,3,0869_hp_s02_3_bear_10_n02134084_2970.png
subject-02,1,870,0.723592042922974,car,car,0.4,0870_hp_s02_0.4_car_10_n03100240_8885.png
subject-02,1,871,0.991377115249634,car,car,0.7,0871_hp_s02_0.7_car_10_n02814533_45704.png
subject-02,1,872,0.817253112792969,oven,elephant,0.45,0872_hp_s02_0.45_elephant_10_n02504013_2545.png
subject-02,1,873,0.681180953979492,oven,oven,1.5,0873_hp_s02_1.5_oven_10_n04111531_1830.png
subject-02,1,874,1.40876579284668,knife,car,0.45,0874_hp_s02_0.45_car_10_n02814533_30383.png
subject-02,1,875,0.656768083572388,car,car,1,0875_hp_s02_1_car_10_n03100240_17505.png
subject-02,1,876,1.06051707267761,car,boat,0.4,0876_hp_s02_0.4_boat_10_n03344393_7394.png
subject-02,1,877,0.920284986495972,truck,truck,inf,0877_hp_s02_inf_truck_10_n04467665_55193.png
subject-02,1,878,1.50000596046448,bird,bear,inf,0878_hp_s02_inf_bear_10_n02134084_3695.png
subject-02,1,879,0.690237998962402,truck,truck,0.55,0879_hp_s02_0.55_truck_10_n03417042_7061.png
subject-02,1,880,1.0498571395874,bicycle,truck,0.4,0880_hp_s02_0.4_truck_10_n03417042_8334.png
subject-02,1,881,0.929108858108521,bear,dog,1.5,0881_hp_s02_1.5_dog_10_n02105251_6599.png
subject-02,1,882,0.731118202209473,bicycle,bicycle,1,0882_hp_s02_1_bicycle_10_n03792782_18496.png
subject-02,1,883,1.11088109016418,airplane,oven,1,0883_hp_s02_1_oven_10_n04111531_21232.png
subject-02,1,884,1.12087297439575,bicycle,bicycle,0.7,0884_hp_s02_0.7_bicycle_10_n02835271_1035.png
subject-02,1,885,1.06661105155945,car,airplane,0.45,0885_hp_s02_0.45_airplane_10_n02690373_798.png
subject-02,1,886,1.03419995307922,keyboard,keyboard,0.55,0886_hp_s02_0.55_keyboard_10_n04505470_1043.png
subject-02,1,887,1.02412796020508,knife,knife,inf,0887_hp_s02_inf_knife_10_n03041632_20595.png
subject-02,1,888,0.934250831604004,dog,bear,0.7,0888_hp_s02_0.7_bear_10_n02132136_19995.png
subject-02,1,889,0.879698991775513,car,car,1,0889_hp_s02_1_car_10_n02814533_22693.png
subject-02,1,890,0.885509967803955,bicycle,bicycle,3,0890_hp_s02_3_bicycle_10_n02835271_4307.png
subject-02,1,891,1.2913920879364,oven,bird,1,0891_hp_s02_1_bird_10_n02017213_1150.png
subject-02,1,892,0.923184871673584,car,car,3,0892_hp_s02_3_car_10_n03100240_2420.png
subject-02,1,893,1.17492699623108,truck,boat,0.55,0893_hp_s02_0.55_boat_10_n04273569_29711.png
subject-02,1,894,0.844626188278198,clock,knife,0.55,0894_hp_s02_0.55_knife_10_n03041632_11887.png
subject-02,1,895,0.82256817817688,car,truck,0.45,0895_hp_s02_0.45_truck_10_n03417042_2603.png
subject-02,1,896,1.03650808334351,oven,bear,1,0896_hp_s02_1_bear_10_n02134418_3464.png
subject-02,1,897,0.916175127029419,chair,bird,0.4,0897_hp_s02_0.4_bird_10_n02011460_19684.png
subject-02,1,898,1.28191494941711,bicycle,truck,3,0898_hp_s02_3_truck_10_n04467665_77214.png
subject-02,1,899,1.20594906806946,truck,boat,0.4,0899_hp_s02_0.4_boat_10_n04273569_3978.png
subject-02,1,900,0.909815073013306,boat,knife,0.55,0900_hp_s02_0.55_knife_10_n03041632_18304.png
subject-02,1,901,1.38547110557556,bear,bear,0.7,0901_hp_s02_0.7_bear_10_n02132136_10944.png
subject-02,1,902,0.927631855010986,car,car,inf,0902_hp_s02_inf_car_10_n03100240_8907.png
subject-02,1,903,1.1290500164032,boat,boat,3,0903_hp_s02_3_boat_10_n03344393_1987.png
subject-02,1,904,0.607133150100708,cat,knife,0.4,0904_hp_s02_0.4_knife_10_n03041632_31909.png
subject-02,1,905,1.15456700325012,boat,bear,0.55,0905_hp_s02_0.55_bear_10_n02134084_14031.png
subject-02,1,906,0.680903911590576,dog,car,0.4,0906_hp_s02_0.4_car_10_n03100240_20489.png
subject-02,1,907,0.820360898971558,elephant,elephant,inf,0907_hp_s02_inf_elephant_10_n02504458_150.png
subject-02,1,908,0.834687948226929,chair,bear,0.45,0908_hp_s02_0.45_bear_10_n02132136_16636.png
subject-02,1,909,0.56613302230835,clock,clock,3,0909_hp_s02_3_clock_10_n04548280_9816.png
subject-02,1,910,0.567907094955444,boat,boat,0.7,0910_hp_s02_0.7_boat_10_n04612504_37043.png
subject-02,1,911,0.863682985305786,chair,chair,1.5,0911_hp_s02_1.5_chair_10_n04429376_28121.png
subject-02,1,912,0.713387966156006,oven,bear,0.55,0912_hp_s02_0.55_bear_10_n02134084_13434.png
subject-02,1,913,1.03316187858582,airplane,airplane,1.5,0913_hp_s02_1.5_airplane_10_n02690373_4148.png
subject-02,1,914,0.837122201919556,boat,boat,0.7,0914_hp_s02_0.7_boat_10_n04273569_3244.png
subject-02,1,915,0.946685075759888,dog,dog,1.5,0915_hp_s02_1.5_dog_10_n02100236_1502.png
subject-02,1,916,0.880841016769409,boat,boat,1,0916_hp_s02_1_boat_10_n04273569_6071.png
subject-02,1,917,1.18056797981262,oven,oven,3,0917_hp_s02_3_oven_10_n04111531_13128.png
subject-02,1,918,0.746455907821655,keyboard,keyboard,1.5,0918_hp_s02_1.5_keyboard_10_n03085013_23583.png
subject-02,1,919,1.13022398948669,bottle,bottle,inf,0919_hp_s02_inf_bottle_10_n04557648_91.png
subject-02,1,920,0.733848810195923,car,chair,0.45,0920_hp_s02_0.45_chair_10_n04099969_8946.png
subject-02,1,921,1.1237370967865,keyboard,elephant,0.7,0921_hp_s02_0.7_elephant_10_n02504458_155.png
subject-02,1,922,1.49554896354675,clock,chair,inf,0922_hp_s02_inf_chair_10_n04429376_7902.png
subject-02,1,923,0.553326845169067,boat,bottle,0.55,0923_hp_s02_0.55_bottle_10_n03983396_11597.png
subject-02,1,924,0.699208974838257,knife,knife,inf,0924_hp_s02_inf_knife_10_n03041632_46422.png
subject-02,1,925,0.620974063873291,boat,truck,0.55,0925_hp_s02_0.55_truck_10_n04467665_13645.png
subject-02,1,926,0.640825986862183,truck,dog,0.4,0926_hp_s02_0.4_dog_10_n02107142_27162.png
subject-02,1,927,1.22251200675964,bottle,chair,0.45,0927_hp_s02_0.45_chair_10_n03376595_14970.png
subject-02,1,928,0.74637508392334,dog,elephant,0.55,0928_hp_s02_0.55_elephant_10_n02504013_3688.png
subject-02,1,929,0.614160060882568,cat,cat,3,0929_hp_s02_3_cat_10_n02123045_1120.png
subject-02,1,930,0.888067960739136,car,knife,0.45,0930_hp_s02_0.45_knife_10_n03041632_2184.png
subject-02,1,931,1.44397592544556,elephant,bear,1,0931_hp_s02_1_bear_10_n02134418_24559.png
subject-02,1,932,0.711648941040039,airplane,chair,0.45,0932_hp_s02_0.45_chair_10_n03376595_10689.png
subject-02,1,933,0.55786395072937,boat,boat,3,0933_hp_s02_3_boat_10_n03344393_5801.png
subject-02,1,934,0.969517946243286,airplane,truck,0.7,0934_hp_s02_0.7_truck_10_n03417042_9693.png
subject-02,1,935,0.63100004196167,cat,bird,0.7,0935_hp_s02_0.7_bird_10_n02013706_18409.png
subject-02,1,936,0.609112024307251,car,car,1.5,0936_hp_s02_1.5_car_10_n04285008_3462.png
subject-02,1,937,1.10074710845947,bear,oven,1,0937_hp_s02_1_oven_10_n04111531_5781.png
subject-02,1,938,0.934730052947998,bird,bird,1.5,0938_hp_s02_1.5_bird_10_n02051845_14208.png
subject-02,1,939,1.06830096244812,car,car,1,0939_hp_s02_1_car_10_n04285008_9452.png
subject-02,1,940,0.772157907485962,oven,chair,3,0940_hp_s02_3_chair_10_n04429376_10546.png
subject-02,1,941,0.760115146636963,chair,bicycle,0.4,0941_hp_s02_0.4_bicycle_10_n02835271_1918.png
subject-02,1,942,1.2216808795929,bird,bird,inf,0942_hp_s02_inf_bird_10_n01534433_28009.png
subject-02,1,943,1.05359196662903,cat,oven,1,0943_hp_s02_1_oven_10_n04111531_2458.png
subject-02,1,944,0.851420879364014,knife,knife,1,0944_hp_s02_1_knife_10_n03041632_11797.png
subject-02,1,945,0.985135078430176,airplane,airplane,1,0945_hp_s02_1_airplane_10_n02690373_20350.png
subject-02,1,946,0.762961864471436,car,oven,0.45,0946_hp_s02_0.45_oven_10_n04111531_12129.png
subject-02,1,947,0.909021139144897,oven,oven,1.5,0947_hp_s02_1.5_oven_10_n04111531_20407.png
subject-02,1,948,1.07286596298218,dog,dog,0.7,0948_hp_s02_0.7_dog_10_n02105855_4952.png
subject-02,1,949,0.80648398399353,truck,keyboard,0.45,0949_hp_s02_0.45_keyboard_10_n03085013_11399.png
subject-02,1,950,0.756401062011719,car,boat,0.4,0950_hp_s02_0.4_boat_10_n03344393_6015.png
subject-02,1,951,0.6021409034729,keyboard,keyboard,3,0951_hp_s02_3_keyboard_10_n03085013_19401.png
subject-02,1,952,0.875500917434692,car,car,1,0952_hp_s02_1_car_10_n03100240_9955.png
subject-02,1,953,1.06373286247253,bear,bear,1.5,0953_hp_s02_1.5_bear_10_n02134084_12917.png
subject-02,1,954,0.567513942718506,cat,airplane,0.45,0954_hp_s02_0.45_airplane_10_n02690373_3047.png
subject-02,1,955,0.815357208251953,boat,truck,0.7,0955_hp_s02_0.7_truck_10_n03417042_751.png
subject-02,1,956,0.981178045272827,airplane,cat,0.55,0956_hp_s02_0.55_cat_10_n02125311_15099.png
subject-02,1,957,1.05507302284241,oven,oven,3,0957_hp_s02_3_oven_10_n04111531_4826.png
subject-02,1,958,0.8908851146698,oven,keyboard,0.7,0958_hp_s02_0.7_keyboard_10_n03085013_20673.png
subject-02,1,959,0.786751985549927,bird,bird,0.45,0959_hp_s02_0.45_bird_10_n01530575_14402.png
subject-02,1,960,0.856419086456299,boat,clock,0.7,0960_hp_s02_0.7_clock_10_n03196217_1746.png
subject-02,1,961,0.718994855880737,cat,dog,0.7,0961_hp_s02_0.7_dog_10_n02098286_1591.png
subject-02,1,962,0.548907995223999,clock,clock,inf,0962_hp_s02_inf_clock_10_n04548280_3308.png
subject-02,1,963,NaN,na,oven,0.4,0963_hp_s02_0.4_oven_10_n04111531_1750.png
subject-02,1,964,0.554467916488647,bear,dog,0.45,0964_hp_s02_0.45_dog_10_n02111500_2439.png
subject-02,1,965,0.720503807067871,truck,truck,1.5,0965_hp_s02_1.5_truck_10_n04467665_67315.png
subject-02,1,966,1.18005299568176,elephant,elephant,inf,0966_hp_s02_inf_elephant_10_n02504013_648.png
subject-02,1,967,0.671880006790161,elephant,elephant,1.5,0967_hp_s02_1.5_elephant_10_n02504013_4560.png
subject-02,1,968,0.639724016189575,elephant,elephant,3,0968_hp_s02_3_elephant_10_n02504458_6821.png
subject-02,1,969,0.907724857330322,bear,bird,1,0969_hp_s02_1_bird_10_n01534433_905.png
subject-02,1,970,0.613477945327759,chair,chair,inf,0970_hp_s02_inf_chair_10_n04099969_7399.png
subject-02,1,971,0.903531074523926,car,bicycle,0.4,0971_hp_s02_0.4_bicycle_10_n03792782_1276.png
subject-02,1,972,0.597130060195923,cat,cat,1.5,0972_hp_s02_1.5_cat_10_n02123159_5934.png
subject-02,1,973,1.14918613433838,car,car,0.55,0973_hp_s02_0.55_car_10_n02814533_8121.png
subject-02,1,974,0.726666927337646,oven,oven,3,0974_hp_s02_3_oven_10_n04111531_7955.png
subject-02,1,975,0.862455129623413,keyboard,clock,0.4,0975_hp_s02_0.4_clock_10_n04548280_7243.png
subject-02,1,976,1.38228797912598,cat,cat,1,0976_hp_s02_1_cat_10_n02125311_12070.png
subject-02,1,977,1.16414999961853,airplane,airplane,0.7,0977_hp_s02_0.7_airplane_10_n02690373_194.png
subject-02,1,978,1.05379104614258,dog,knife,0.7,0978_hp_s02_0.7_knife_10_n03041632_94155.png
subject-02,1,979,0.789808034896851,bicycle,chair,0.4,0979_hp_s02_0.4_chair_10_n04429376_10628.png
subject-02,1,980,0.929495811462402,knife,knife,1,0980_hp_s02_1_knife_10_n03041632_48062.png
subject-02,1,981,0.775244951248169,oven,oven,0.7,0981_hp_s02_0.7_oven_10_n04111531_12468.png
subject-02,1,982,0.931618928909302,bird,bird,1.5,0982_hp_s02_1.5_bird_10_n02018795_5488.png
subject-02,1,983,1.18301296234131,boat,boat,inf,0983_hp_s02_inf_boat_10_n02951358_3205.png
subject-02,1,984,0.818869113922119,oven,clock,0.45,0984_hp_s02_0.45_clock_10_n04548280_3782.png
subject-02,1,985,0.864612817764282,chair,airplane,3,0985_hp_s02_3_airplane_10_n02690373_3468.png
subject-02,1,986,0.80443811416626,bear,dog,0.7,0986_hp_s02_0.7_dog_10_n02088364_8674.png
subject-02,1,987,0.756261110305786,bicycle,bicycle,3,0987_hp_s02_3_bicycle_10_n02835271_6919.png
subject-02,1,988,0.942019939422607,oven,elephant,0.55,0988_hp_s02_0.55_elephant_10_n02504013_1740.png
subject-02,1,989,0.753833055496216,car,keyboard,0.45,0989_hp_s02_0.45_keyboard_10_n04505470_4105.png
subject-02,1,990,0.831840991973877,truck,truck,0.55,0990_hp_s02_0.55_truck_10_n04467665_22585.png
subject-02,1,991,1.18747496604919,keyboard,chair,3,0991_hp_s02_3_chair_10_n04429376_28372.png
subject-02,1,992,0.879435062408447,oven,bottle,1,0992_hp_s02_1_bottle_10_n03983396_2054.png
subject-02,1,993,0.877093076705933,cat,cat,3,0993_hp_s02_3_cat_10_n02124075_7144.png
subject-02,1,994,1.05330204963684,elephant,elephant,1.5,0994_hp_s02_1.5_elephant_10_n02504458_5137.png
subject-02,1,995,0.582836866378784,car,car,1.5,0995_hp_s02_1.5_car_10_n03100240_6192.png
subject-02,1,996,1.16041398048401,oven,bicycle,0.55,0996_hp_s02_0.55_bicycle_10_n03792782_10185.png
subject-02,1,997,1.18254995346069,bird,bicycle,0.7,0997_hp_s02_0.7_bicycle_10_n02835271_12666.png
subject-02,1,998,1.08226108551025,truck,clock,0.55,0998_hp_s02_0.55_clock_10_n03196217_5214.png
subject-02,1,999,0.966049194335938,car,chair,0.55,0999_hp_s02_0.55_chair_10_n03376595_1862.png
subject-02,1,1000,1.02585387229919,knife,knife,1,1000_hp_s02_1_knife_10_n03041632_4214.png
subject-02,1,1001,1.00569486618042,oven,keyboard,1,1001_hp_s02_1_keyboard_10_n03085013_20483.png
subject-02,1,1002,0.935403108596802,boat,chair,0.4,1002_hp_s02_0.4_chair_10_n04099969_142.png
subject-02,1,1003,0.817175149917603,car,car,inf,1003_hp_s02_inf_car_10_n02814533_43694.png
subject-02,1,1004,0.857112884521484,cat,cat,3,1004_hp_s02_3_cat_10_n02123597_13175.png
subject-02,1,1005,0.840912818908691,airplane,chair,0.4,1005_hp_s02_0.4_chair_10_n03376595_6673.png
subject-02,1,1006,0.94871187210083,car,car,0.7,1006_hp_s02_0.7_car_10_n02814533_44083.png
subject-02,1,1007,0.810474157333374,cat,bear,1,1007_hp_s02_1_bear_10_n02132136_1141.png
subject-02,1,1008,0.874441862106323,bird,bird,inf,1008_hp_s02_inf_bird_10_n01797886_1953.png
subject-02,1,1009,0.932042121887207,bear,boat,0.45,1009_hp_s02_0.45_boat_10_n02951358_23313.png
subject-02,1,1010,0.70584511756897,boat,boat,1,1010_hp_s02_1_boat_10_n04612504_11379.png
subject-02,1,1011,0.720249891281128,cat,boat,0.55,1011_hp_s02_0.55_boat_10_n03662601_1541.png
subject-02,1,1012,1.47602319717407,dog,keyboard,0.45,1012_hp_s02_0.45_keyboard_10_n03085013_23316.png
subject-02,1,1013,1.01156306266785,bicycle,bicycle,1.5,1013_hp_s02_1.5_bicycle_10_n02835271_8549.png
subject-02,1,1014,1.30935597419739,keyboard,chair,inf,1014_hp_s02_inf_chair_10_n03376595_9165.png
subject-02,1,1015,0.561369895935059,chair,chair,1.5,1015_hp_s02_1.5_chair_10_n04099969_11279.png
subject-02,1,1016,0.56284499168396,clock,clock,1.5,1016_hp_s02_1.5_clock_10_n03196217_7918.png
subject-02,1,1017,1.06654810905457,oven,cat,0.7,1017_hp_s02_0.7_cat_10_n02123045_11126.png
subject-02,1,1018,0.904922962188721,car,truck,0.4,1018_hp_s02_0.4_truck_10_n03417042_2293.png
subject-02,1,1019,1.1842520236969,truck,elephant,0.4,1019_hp_s02_0.4_elephant_10_n02504458_5008.png
subject-02,1,1020,0.948479175567627,truck,truck,1,1020_hp_s02_1_truck_10_n03417042_4520.png
subject-02,1,1021,1.0958731174469,elephant,elephant,1,1021_hp_s02_1_elephant_10_n02504458_6248.png
subject-02,1,1022,0.849606037139893,bear,bear,3,1022_hp_s02_3_bear_10_n02133161_1118.png
subject-02,1,1023,0.877458810806274,car,keyboard,0.45,1023_hp_s02_0.45_keyboard_10_n03085013_22585.png
subject-02,1,1024,0.757314920425415,airplane,airplane,1.5,1024_hp_s02_1.5_airplane_10_n02690373_5789.png
subject-02,1,1025,0.839331865310669,truck,car,0.55,1025_hp_s02_0.55_car_10_n02814533_6178.png
subject-02,1,1026,0.650952100753784,cat,bottle,0.4,1026_hp_s02_0.4_bottle_10_n03983396_4165.png
subject-02,1,1027,0.758814096450806,clock,clock,inf,1027_hp_s02_inf_clock_10_n02708093_8134.png
subject-02,1,1028,1.23041701316833,car,car,inf,1028_hp_s02_inf_car_10_n04285008_6587.png
subject-02,1,1029,0.752463817596436,cat,dog,0.4,1029_hp_s02_0.4_dog_10_n02108422_7493.png
subject-02,1,1030,0.586575031280518,bear,bear,inf,1030_hp_s02_inf_bear_10_n02133161_8471.png
subject-02,1,1031,1.19644498825073,dog,keyboard,0.4,1031_hp_s02_0.4_keyboard_10_n03085013_19055.png
subject-02,1,1032,1.02586793899536,chair,cat,0.7,1032_hp_s02_0.7_cat_10_n02123159_7161.png
subject-02,1,1033,0.777634859085083,oven,bird,0.45,1033_hp_s02_0.45_bird_10_n02025239_2227.png
subject-02,1,1034,1.13732409477234,truck,car,0.4,1034_hp_s02_0.4_car_10_n03100240_23060.png
subject-02,1,1035,0.683136940002441,bicycle,bottle,0.4,1035_hp_s02_0.4_bottle_10_n04557648_11977.png
subject-02,1,1036,1.17903089523315,bear,bear,inf,1036_hp_s02_inf_bear_10_n02134418_3152.png
subject-02,1,1037,0.914788961410522,clock,clock,1,1037_hp_s02_1_clock_10_n04548280_4229.png
subject-02,1,1038,0.662725210189819,car,bottle,0.45,1038_hp_s02_0.45_bottle_10_n04591713_2581.png
subject-02,1,1039,0.870630025863647,oven,dog,0.55,1039_hp_s02_0.55_dog_10_n02097474_2799.png
subject-02,1,1040,0.746498823165894,keyboard,keyboard,3,1040_hp_s02_3_keyboard_10_n03085013_23776.png
subject-02,1,1041,0.899374008178711,oven,oven,1.5,1041_hp_s02_1.5_oven_10_n04111531_1752.png
subject-02,1,1042,0.889063119888306,boat,oven,1,1042_hp_s02_1_oven_10_n04111531_15943.png
subject-02,1,1043,0.733205080032349,cat,cat,1,1043_hp_s02_1_cat_10_n02123045_2339.png
subject-02,1,1044,0.832898855209351,bear,bear,0.55,1044_hp_s02_0.55_bear_10_n02133161_489.png
subject-02,1,1045,0.692479848861694,airplane,knife,0.7,1045_hp_s02_0.7_knife_10_n03041632_5801.png
subject-02,1,1046,0.660504102706909,bird,bird,inf,1046_hp_s02_inf_bird_10_n01795545_9555.png
subject-02,1,1047,0.576169013977051,bicycle,bicycle,0.55,1047_hp_s02_0.55_bicycle_10_n03792782_7092.png
subject-02,1,1048,0.783940076828003,car,knife,0.4,1048_hp_s02_0.4_knife_10_n03041632_22964.png
subject-02,1,1049,1.03383612632751,bicycle,bicycle,inf,1049_hp_s02_inf_bicycle_10_n02835271_7303.png
subject-02,1,1050,0.669965982437134,clock,clock,1,1050_hp_s02_1_clock_10_n04548280_8668.png
subject-02,1,1051,0.883427143096924,airplane,airplane,inf,1051_hp_s02_inf_airplane_10_n02690373_9673.png
subject-02,1,1052,0.851057052612305,airplane,airplane,inf,1052_hp_s02_inf_airplane_10_n02690373_9535.png
subject-02,1,1053,0.85297679901123,car,clock,0.45,1053_hp_s02_0.45_clock_10_n04548280_10040.png
subject-02,1,1054,0.912899017333984,bicycle,airplane,inf,1054_hp_s02_inf_airplane_10_n02690373_17603.png
subject-02,1,1055,0.672547101974487,airplane,bicycle,0.45,1055_hp_s02_0.45_bicycle_10_n02835271_2050.png
subject-02,1,1056,0.738400936126709,car,car,1.5,1056_hp_s02_1.5_car_10_n03100240_13909.png
subject-02,1,1057,0.72442102432251,boat,keyboard,0.45,1057_hp_s02_0.45_keyboard_10_n04505470_7928.png
subject-02,1,1058,1.08614993095398,bottle,bottle,3,1058_hp_s02_3_bottle_10_n04560804_30885.png
subject-02,1,1059,1.02563095092773,truck,keyboard,0.55,1059_hp_s02_0.55_keyboard_10_n03085013_6963.png
subject-02,1,1060,0.793722152709961,bear,bear,3,1060_hp_s02_3_bear_10_n02133161_1423.png
subject-02,1,1061,1.10368204116821,elephant,elephant,1,1061_hp_s02_1_elephant_10_n02504013_3969.png
