subj,Session,trial,rt,object_response,category,condition,imagename
subject-03,1,1,0.939826011657715,boat,elephant,1,0001_hp_s03_1_elephant_10_n02504458_4439.png
subject-03,1,2,0.861703872680664,chair,chair,inf,0002_hp_s03_inf_chair_10_n02791124_392.png
subject-03,1,3,0.76135778427124,bird,bird,1.5,0003_hp_s03_1.5_bird_10_n01843065_6365.png
subject-03,1,4,1.43352699279785,truck,clock,0.55,0004_hp_s03_0.55_clock_10_n03196217_2983.png
subject-03,1,5,1.29510593414307,oven,bird,0.4,0005_hp_s03_0.4_bird_10_n02051845_3351.png
subject-03,1,6,1.15321207046509,bird,bear,0.55,0006_hp_s03_0.55_bear_10_n02132136_9311.png
subject-03,1,7,0.894673109054565,truck,oven,inf,0007_hp_s03_inf_oven_10_n04111531_5802.png
subject-03,1,8,1.28655695915222,truck,truck,0.7,0008_hp_s03_0.7_truck_10_n03796401_7199.png
subject-03,1,9,0.990166187286377,boat,boat,1.5,0009_hp_s03_1.5_boat_10_n04273569_10149.png
subject-03,1,10,1.12232208251953,bicycle,car,0.45,0010_hp_s03_0.45_car_10_n04285008_12457.png
subject-03,1,11,0.959856033325195,bear,bear,0.4,0011_hp_s03_0.4_bear_10_n02134418_2412.png
subject-03,1,12,1.50006580352783,chair,oven,inf,0012_hp_s03_inf_oven_10_n04111531_7741.png
subject-03,1,13,0.693397998809814,bottle,bottle,1.5,0013_hp_s03_1.5_bottle_10_n04591713_7158.png
subject-03,1,14,0.899348020553589,bird,bird,3,0014_hp_s03_3_bird_10_n02037110_11362.png
subject-03,1,15,0.839241027832031,cat,clock,1.5,0015_hp_s03_1.5_clock_10_n04548280_6122.png
subject-03,1,16,1.00289916992188,dog,dog,1,0016_hp_s03_1_dog_10_n02105505_7816.png
subject-03,1,17,1.16677403450012,knife,oven,0.45,0017_hp_s03_0.45_oven_10_n04111531_12129.png
subject-03,1,18,0.916555881500244,airplane,dog,0.55,0018_hp_s03_0.55_dog_10_n02090721_4433.png
subject-03,1,19,1.07844185829163,boat,elephant,0.55,0019_hp_s03_0.55_elephant_10_n02504458_11214.png
subject-03,1,20,1.25060796737671,bottle,keyboard,1,0020_hp_s03_1_keyboard_10_n04505470_7421.png
subject-03,1,21,1.10201382637024,oven,elephant,0.55,0021_hp_s03_0.55_elephant_10_n02504013_407.png
subject-03,1,22,1.21794700622559,car,elephant,0.4,0022_hp_s03_0.4_elephant_10_n02504458_6714.png
subject-03,1,23,1.30565500259399,car,dog,1,0023_hp_s03_1_dog_10_n02088364_13814.png
subject-03,1,24,NaN,na,bicycle,1.5,0024_hp_s03_1.5_bicycle_10_n02835271_358.png
subject-03,1,25,0.753473043441772,airplane,airplane,1.5,0025_hp_s03_1.5_airplane_10_n02690373_6455.png
subject-03,1,26,0.925381898880005,truck,truck,inf,0026_hp_s03_inf_truck_10_n03796401_1458.png
subject-03,1,27,1.19131278991699,chair,bird,0.55,0027_hp_s03_0.55_bird_10_n01824575_8564.png
subject-03,1,28,0.831125020980835,airplane,airplane,0.7,0028_hp_s03_0.7_airplane_10_n02690373_18295.png
subject-03,1,29,0.818405866622925,elephant,elephant,inf,0029_hp_s03_inf_elephant_10_n02504458_12303.png
subject-03,1,30,1.20851588249207,oven,chair,0.7,0030_hp_s03_0.7_chair_10_n04429376_30610.png
subject-03,1,31,0.874283075332642,elephant,elephant,inf,0031_hp_s03_inf_elephant_10_n02504458_150.png
subject-03,1,32,1.37386703491211,knife,bird,inf,0032_hp_s03_inf_bird_10_n01833805_3578.png
subject-03,1,33,0.965688943862915,bottle,boat,0.7,0033_hp_s03_0.7_boat_10_n03344393_7179.png
subject-03,1,34,1.13167190551758,boat,car,0.55,0034_hp_s03_0.55_car_10_n02814533_6178.png
subject-03,1,35,0.721735954284668,airplane,airplane,1,0035_hp_s03_1_airplane_10_n02690373_10210.png
subject-03,1,36,0.913167953491211,keyboard,keyboard,0.45,0036_hp_s03_0.45_keyboard_10_n03085013_5622.png
subject-03,1,37,0.779253005981445,oven,oven,0.45,0037_hp_s03_0.45_oven_10_n04111531_4148.png
subject-03,1,38,1.027263879776,chair,chair,1.5,0038_hp_s03_1.5_chair_10_n03376595_2646.png
subject-03,1,39,0.824872016906738,bird,elephant,0.45,0039_hp_s03_0.45_elephant_10_n02504013_4392.png
subject-03,1,40,0.780559062957764,car,car,1.5,0040_hp_s03_1.5_car_10_n02814533_14627.png
subject-03,1,41,0.874238014221191,elephant,elephant,1.5,0041_hp_s03_1.5_elephant_10_n02504458_5137.png
subject-03,1,42,0.906168222427368,cat,oven,0.4,0042_hp_s03_0.4_oven_10_n04111531_669.png
subject-03,1,43,1.27595496177673,bear,dog,0.7,0043_hp_s03_0.7_dog_10_n02088364_8674.png
subject-03,1,44,1.35400795936584,bird,bear,0.7,0044_hp_s03_0.7_bear_10_n02132136_3441.png
subject-03,1,45,1.11391592025757,airplane,knife,0.55,0045_hp_s03_0.55_knife_10_n03041632_18304.png
subject-03,1,46,0.995594024658203,boat,truck,1.5,0046_hp_s03_1.5_truck_10_n04467665_1966.png
subject-03,1,47,0.769546031951904,cat,cat,1,0047_hp_s03_1_cat_10_n02123159_5424.png
subject-03,1,48,0.864959001541138,car,car,0.4,0048_hp_s03_0.4_car_10_n04285008_771.png
subject-03,1,49,0.958813905715942,clock,clock,0.45,0049_hp_s03_0.45_clock_10_n04548280_10040.png
subject-03,1,50,0.842614889144897,bird,bear,3,0050_hp_s03_3_bear_10_n02133161_2800.png
subject-03,1,51,0.810454845428467,elephant,elephant,inf,0051_hp_s03_inf_elephant_10_n02504013_4523.png
subject-03,1,52,1.03425121307373,cat,bottle,0.7,0052_hp_s03_0.7_bottle_10_n03937543_5166.png
subject-03,1,53,0.626085042953491,clock,clock,0.7,0053_hp_s03_0.7_clock_10_n03196217_219.png
subject-03,1,54,0.898191928863525,car,bear,0.4,0054_hp_s03_0.4_bear_10_n02134418_5735.png
subject-03,1,55,1.23773598670959,car,dog,0.7,0055_hp_s03_0.7_dog_10_n02096294_7536.png
subject-03,1,56,1.50010895729065,clock,airplane,0.45,0056_hp_s03_0.45_airplane_10_n02690373_18871.png
subject-03,1,57,0.795192956924438,bear,boat,0.4,0057_hp_s03_0.4_boat_10_n04273569_3978.png
subject-03,1,58,1.31307601928711,cat,elephant,0.55,0058_hp_s03_0.55_elephant_10_n02504013_1740.png
subject-03,1,59,1.12496495246887,boat,car,0.45,0059_hp_s03_0.45_car_10_n03100240_12361.png
subject-03,1,60,0.816890001296997,boat,airplane,0.55,0060_hp_s03_0.55_airplane_10_n02690373_20996.png
subject-03,1,61,1.23902702331543,bird,boat,1.5,0061_hp_s03_1.5_boat_10_n02951358_30635.png
subject-03,1,62,1.3944079875946,oven,airplane,0.4,0062_hp_s03_0.4_airplane_10_n02690373_6978.png
subject-03,1,63,1.16222381591797,boat,clock,0.45,0063_hp_s03_0.45_clock_10_n04548280_2399.png
subject-03,1,64,1.16997694969177,truck,clock,0.55,0064_hp_s03_0.55_clock_10_n04548280_3248.png
subject-03,1,65,1.29385709762573,airplane,boat,1,0065_hp_s03_1_boat_10_n04273569_3770.png
subject-03,1,66,1.0716598033905,boat,boat,1,0066_hp_s03_1_boat_10_n03344393_5177.png
subject-03,1,67,1.18748307228088,bottle,truck,0.55,0067_hp_s03_0.55_truck_10_n03417042_10642.png
subject-03,1,68,1.2511739730835,truck,truck,0.7,0068_hp_s03_0.7_truck_10_n03417042_10958.png
subject-03,1,69,0.713032960891724,keyboard,keyboard,inf,0069_hp_s03_inf_keyboard_10_n04505470_4603.png
subject-03,1,70,1.11484289169312,airplane,chair,1.5,0070_hp_s03_1.5_chair_10_n03376595_6173.png
subject-03,1,71,1.30258512496948,elephant,cat,0.4,0071_hp_s03_0.4_cat_10_n02125311_8522.png
subject-03,1,72,0.710593938827515,cat,cat,inf,0072_hp_s03_inf_cat_10_n02123045_4644.png
subject-03,1,73,0.916340112686157,boat,keyboard,0.55,0073_hp_s03_0.55_keyboard_10_n03085013_24510.png
subject-03,1,74,0.6582190990448,cat,cat,3,0074_hp_s03_3_cat_10_n02123394_2274.png
subject-03,1,75,1.12196707725525,bird,dog,1,0075_hp_s03_1_dog_10_n02105162_1601.png
subject-03,1,76,0.725682020187378,bear,bear,0.45,0076_hp_s03_0.45_bear_10_n02134418_7067.png
subject-03,1,77,0.685424089431763,boat,boat,3,0077_hp_s03_3_boat_10_n03344393_408.png
subject-03,1,78,1.12350797653198,bicycle,bicycle,1.5,0078_hp_s03_1.5_bicycle_10_n03792782_11945.png
subject-03,1,79,0.787277936935425,bicycle,bicycle,3,0079_hp_s03_3_bicycle_10_n02835271_949.png
subject-03,1,80,1.03911018371582,knife,knife,inf,0080_hp_s03_inf_knife_10_n03041632_33584.png
subject-03,1,81,0.764570951461792,boat,bird,0.55,0081_hp_s03_0.55_bird_10_n02018207_10814.png
subject-03,1,82,0.842584848403931,bicycle,bicycle,1,0082_hp_s03_1_bicycle_10_n02835271_11851.png
subject-03,1,83,1.14603805541992,car,bottle,0.45,0083_hp_s03_0.45_bottle_10_n04557648_413.png
subject-03,1,84,0.818166971206665,boat,keyboard,0.4,0084_hp_s03_0.4_keyboard_10_n03085013_20736.png
subject-03,1,85,1.24976205825806,bicycle,clock,0.4,0085_hp_s03_0.4_clock_10_n02708093_2580.png
subject-03,1,86,1.08165121078491,boat,oven,0.45,0086_hp_s03_0.45_oven_10_n04111531_9498.png
subject-03,1,87,1.31525993347168,clock,bear,0.4,0087_hp_s03_0.4_bear_10_n02132136_5612.png
subject-03,1,88,0.8370680809021,bird,bird,inf,0088_hp_s03_inf_bird_10_n02007558_37147.png
subject-03,1,89,0.653335094451904,cat,dog,0.4,0089_hp_s03_0.4_dog_10_n02107142_27162.png
subject-03,1,90,0.812855005264282,bird,bird,inf,0090_hp_s03_inf_bird_10_n01797886_1953.png
subject-03,1,91,1.02259612083435,car,car,0.55,0091_hp_s03_0.55_car_10_n02814533_4726.png
subject-03,1,92,0.750424146652222,airplane,airplane,inf,0092_hp_s03_inf_airplane_10_n02690373_9535.png
subject-03,1,93,0.960341930389404,chair,keyboard,1,0093_hp_s03_1_keyboard_10_n04505470_1724.png
subject-03,1,94,0.954010009765625,oven,knife,0.45,0094_hp_s03_0.45_knife_10_n03041632_17349.png
subject-03,1,95,1.50002908706665,truck,dog,0.45,0095_hp_s03_0.45_dog_10_n02097209_7557.png
subject-03,1,96,0.679630994796753,clock,clock,inf,0096_hp_s03_inf_clock_10_n02708093_8134.png
subject-03,1,97,1.00333309173584,oven,keyboard,0.7,0097_hp_s03_0.7_keyboard_10_n03085013_1483.png
subject-03,1,98,0.965421915054321,keyboard,boat,0.45,0098_hp_s03_0.45_boat_10_n02951358_23313.png
subject-03,1,99,0.945175886154175,bird,car,0.4,0099_hp_s03_0.4_car_10_n03100240_23060.png
subject-03,1,100,0.982962846755981,bottle,bottle,0.7,0100_hp_s03_0.7_bottle_10_n02823428_6201.png
subject-03,1,101,1.00865316390991,boat,bottle,0.4,0101_hp_s03_0.4_bottle_10_n04591713_1762.png
subject-03,1,102,1.50014901161194,car,keyboard,1,0102_hp_s03_1_keyboard_10_n04505470_4741.png
subject-03,1,103,1.12018489837646,knife,knife,3,0103_hp_s03_3_knife_10_n03041632_24998.png
subject-03,1,104,1.18431401252747,boat,boat,0.55,0104_hp_s03_0.55_boat_10_n04273569_1086.png
subject-03,1,105,1.1522068977356,knife,knife,1,0105_hp_s03_1_knife_10_n03041632_12707.png
subject-03,1,106,1.04576992988586,oven,bird,0.45,0106_hp_s03_0.45_bird_10_n01796340_1877.png
subject-03,1,107,0.689504146575928,bear,oven,0.4,0107_hp_s03_0.4_oven_10_n04111531_1750.png
subject-03,1,108,0.703510999679565,bird,bird,inf,0108_hp_s03_inf_bird_10_n01795545_9555.png
subject-03,1,109,0.685276985168457,oven,oven,inf,0109_hp_s03_inf_oven_10_n04111531_16251.png
subject-03,1,110,1.10507392883301,truck,keyboard,0.45,0110_hp_s03_0.45_keyboard_10_n03085013_14810.png
subject-03,1,111,1.09680199623108,boat,elephant,0.45,0111_hp_s03_0.45_elephant_10_n02504013_2545.png
subject-03,1,112,1.02863216400146,bottle,elephant,0.7,0112_hp_s03_0.7_elephant_10_n02504013_6.png
subject-03,1,113,0.746548891067505,boat,bicycle,1,0113_hp_s03_1_bicycle_10_n03792782_15174.png
subject-03,1,114,0.630286931991577,clock,clock,inf,0114_hp_s03_inf_clock_10_n04548280_7930.png
subject-03,1,115,0.790152072906494,car,car,inf,0115_hp_s03_inf_car_10_n02814533_3560.png
subject-03,1,116,0.995836019515991,airplane,airplane,1.5,0116_hp_s03_1.5_airplane_10_n02690373_2316.png
subject-03,1,117,1.3241970539093,chair,chair,1,0117_hp_s03_1_chair_10_n02791124_5268.png
subject-03,1,118,0.947959899902344,boat,boat,0.4,0118_hp_s03_0.4_boat_10_n02951358_6637.png
subject-03,1,119,0.665235996246338,clock,clock,3,0119_hp_s03_3_clock_10_n04548280_57.png
subject-03,1,120,0.959118843078613,boat,airplane,0.55,0120_hp_s03_0.55_airplane_10_n02690373_7685.png
subject-03,1,121,1.00498390197754,elephant,elephant,1,0121_hp_s03_1_elephant_10_n02504458_6301.png
subject-03,1,122,0.982913970947266,car,car,1,0122_hp_s03_1_car_10_n04285008_5788.png
subject-03,1,123,0.966533899307251,bottle,bottle,1.5,0123_hp_s03_1.5_bottle_10_n04591713_14895.png
subject-03,1,124,0.922394037246704,truck,airplane,0.4,0124_hp_s03_0.4_airplane_10_n02690373_7300.png
subject-03,1,125,0.806370973587036,airplane,airplane,3,0125_hp_s03_3_airplane_10_n02690373_18848.png
subject-03,1,126,1.15205311775208,knife,knife,inf,0126_hp_s03_inf_knife_10_n03041632_46422.png
subject-03,1,127,1.04976892471313,keyboard,keyboard,1,0127_hp_s03_1_keyboard_10_n04505470_142.png
subject-03,1,128,0.963522911071777,boat,cat,0.45,0128_hp_s03_0.45_cat_10_n02123394_2084.png
subject-03,1,129,0.835458040237427,keyboard,keyboard,inf,0129_hp_s03_inf_keyboard_10_n03085013_23877.png
subject-03,1,130,0.865402936935425,bicycle,bicycle,1,0130_hp_s03_1_bicycle_10_n02835271_6906.png
subject-03,1,131,1.07115697860718,bird,bird,inf,0131_hp_s03_inf_bird_10_n01798484_4076.png
subject-03,1,132,1.28085398674011,bicycle,bicycle,0.7,0132_hp_s03_0.7_bicycle_10_n02835271_4677.png
subject-03,1,133,0.826739072799683,boat,boat,1.5,0133_hp_s03_1.5_boat_10_n02951358_2813.png
subject-03,1,134,1.28842401504517,car,airplane,0.7,0134_hp_s03_0.7_airplane_10_n02690373_10397.png
subject-03,1,135,0.904356002807617,clock,car,0.45,0135_hp_s03_0.45_car_10_n02814533_70922.png
subject-03,1,136,1.50011110305786,airplane,airplane,3,0136_hp_s03_3_airplane_10_n02690373_20033.png
subject-03,1,137,0.53997015953064,cat,cat,inf,0137_hp_s03_inf_cat_10_n02123045_12659.png
subject-03,1,138,1.14574599266052,airplane,airplane,inf,0138_hp_s03_inf_airplane_10_n02690373_5564.png
subject-03,1,139,1.34755802154541,bird,oven,0.4,0139_hp_s03_0.4_oven_10_n04111531_15569.png
subject-03,1,140,1.35733008384705,bottle,knife,1.5,0140_hp_s03_1.5_knife_10_n03041632_91967.png
subject-03,1,141,0.793147087097168,car,car,3,0141_hp_s03_3_car_10_n02814533_3375.png
subject-03,1,142,1.24500799179077,car,chair,0.7,0142_hp_s03_0.7_chair_10_n04099969_13775.png
subject-03,1,143,0.75493311882019,car,car,1.5,0143_hp_s03_1.5_car_10_n02814533_5085.png
subject-03,1,144,1.00664186477661,car,car,0.7,0144_hp_s03_0.7_car_10_n02814533_44083.png
subject-03,1,145,1.50007486343384,truck,keyboard,0.55,0145_hp_s03_0.55_keyboard_10_n03085013_8325.png
subject-03,1,146,1.14447498321533,clock,oven,0.4,0146_hp_s03_0.4_oven_10_n04111531_10521.png
subject-03,1,147,0.834204912185669,bear,bottle,0.4,0147_hp_s03_0.4_bottle_10_n03983396_1151.png
subject-03,1,148,1.50006103515625,truck,truck,1.5,0148_hp_s03_1.5_truck_10_n04467665_40361.png
subject-03,1,149,0.946016073226929,airplane,airplane,inf,0149_hp_s03_inf_airplane_10_n02690373_2024.png
subject-03,1,150,1.40952897071838,car,bicycle,0.55,0150_hp_s03_0.55_bicycle_10_n02835271_6167.png
subject-03,1,151,1.33137679100037,oven,boat,0.45,0151_hp_s03_0.45_boat_10_n02951358_11567.png
subject-03,1,152,0.987078905105591,bird,keyboard,0.4,0152_hp_s03_0.4_keyboard_10_n04505470_9762.png
subject-03,1,153,1.10314893722534,bear,boat,0.4,0153_hp_s03_0.4_boat_10_n03662601_21543.png
subject-03,1,154,1.36907196044922,bottle,bicycle,1,0154_hp_s03_1_bicycle_10_n02835271_24230.png
subject-03,1,155,1.0167031288147,cat,boat,0.4,0155_hp_s03_0.4_boat_10_n03344393_6015.png
subject-03,1,156,0.864387035369873,car,oven,0.7,0156_hp_s03_0.7_oven_10_n04111531_4749.png
subject-03,1,157,1.31021404266357,bird,boat,0.55,0157_hp_s03_0.55_boat_10_n04612504_2853.png
subject-03,1,158,1.18435406684875,bear,bicycle,0.45,0158_hp_s03_0.45_bicycle_10_n03792782_44296.png
subject-03,1,159,0.934272050857544,elephant,elephant,3,0159_hp_s03_3_elephant_10_n02504013_2269.png
subject-03,1,160,0.779829025268555,bicycle,cat,1,0160_hp_s03_1_cat_10_n02124075_11528.png
subject-03,1,161,0.604951858520508,boat,boat,3,0161_hp_s03_3_boat_10_n03662601_15713.png
subject-03,1,162,1.48087906837463,car,truck,1,0162_hp_s03_1_truck_10_n04467665_47602.png
subject-03,1,163,0.928717136383057,oven,bird,0.45,0163_hp_s03_0.45_bird_10_n02006656_3891.png
subject-03,1,164,0.812330961227417,oven,oven,inf,0164_hp_s03_inf_oven_10_n04111531_3076.png
subject-03,1,165,0.892114877700806,cat,bird,0.45,0165_hp_s03_0.45_bird_10_n02018207_4151.png
subject-03,1,166,1.3160080909729,elephant,elephant,1,0166_hp_s03_1_elephant_10_n02504013_3969.png
subject-03,1,167,1.15576410293579,bicycle,dog,1,0167_hp_s03_1_dog_10_n02091032_8024.png
subject-03,1,168,1.06566095352173,car,dog,0.7,0168_hp_s03_0.7_dog_10_n02110185_9014.png
subject-03,1,169,0.77540397644043,bicycle,bicycle,3,0169_hp_s03_3_bicycle_10_n02835271_11922.png
subject-03,1,170,0.861119985580444,bear,bear,1.5,0170_hp_s03_1.5_bear_10_n02133161_13077.png
subject-03,1,171,0.669191837310791,oven,oven,inf,0171_hp_s03_inf_oven_10_n04111531_2201.png
subject-03,1,172,0.700859069824219,boat,airplane,0.55,0172_hp_s03_0.55_airplane_10_n02690373_19646.png
subject-03,1,173,1.17669987678528,airplane,airplane,1,0173_hp_s03_1_airplane_10_n02690373_2468.png
subject-03,1,174,0.724366188049316,chair,chair,1.5,0174_hp_s03_1.5_chair_10_n04099969_11279.png
subject-03,1,175,1.28833198547363,truck,dog,0.7,0175_hp_s03_0.7_dog_10_n02105855_4952.png
subject-03,1,176,0.920023202896118,oven,oven,3,0176_hp_s03_3_oven_10_n04111531_14753.png
subject-03,1,177,0.871998071670532,oven,oven,1.5,0177_hp_s03_1.5_oven_10_n04111531_49.png
subject-03,1,178,1.05181288719177,cat,dog,0.7,0178_hp_s03_0.7_dog_10_n02098286_1591.png
subject-03,1,179,0.965443134307861,keyboard,bicycle,0.4,0179_hp_s03_0.4_bicycle_10_n03792782_1276.png
subject-03,1,180,1.27726316452026,bear,cat,0.7,0180_hp_s03_0.7_cat_10_n02123597_3634.png
subject-03,1,181,0.809285879135132,knife,knife,3,0181_hp_s03_3_knife_10_n03041632_42196.png
subject-03,1,182,1.13289308547974,bear,oven,1,0182_hp_s03_1_oven_10_n04111531_5781.png
subject-03,1,183,1.3346631526947,boat,boat,0.45,0183_hp_s03_0.45_boat_10_n03344393_2434.png
subject-03,1,184,1.17097496986389,clock,dog,0.45,0184_hp_s03_0.45_dog_10_n02091244_1455.png
subject-03,1,185,1.27078604698181,chair,chair,0.55,0185_hp_s03_0.55_chair_10_n03376595_1862.png
subject-03,1,186,1.07419896125793,bottle,bottle,inf,0186_hp_s03_inf_bottle_10_n03983396_11948.png
subject-03,1,187,0.82793402671814,cat,cat,1.5,0187_hp_s03_1.5_cat_10_n02123394_3813.png
subject-03,1,188,0.992203950881958,bicycle,bicycle,1.5,0188_hp_s03_1.5_bicycle_10_n03792782_5106.png
subject-03,1,189,1.0676691532135,bicycle,bicycle,1.5,0189_hp_s03_1.5_bicycle_10_n03792782_17193.png
subject-03,1,190,1.39155006408691,car,oven,0.55,0190_hp_s03_0.55_oven_10_n04111531_3265.png
subject-03,1,191,0.9532310962677,oven,oven,inf,0191_hp_s03_inf_oven_10_n04111531_1723.png
subject-03,1,192,0.921190977096558,cat,bear,0.45,0192_hp_s03_0.45_bear_10_n02132136_16636.png
subject-03,1,193,0.976964235305786,chair,chair,3,0193_hp_s03_3_chair_10_n04099969_1229.png
subject-03,1,194,1.0110080242157,cat,car,0.4,0194_hp_s03_0.4_car_10_n03100240_8885.png
subject-03,1,195,0.792695999145508,bird,cat,0.55,0195_hp_s03_0.55_cat_10_n02123159_5429.png
subject-03,1,196,1.14640307426453,car,car,3,0196_hp_s03_3_car_10_n02814533_10135.png
subject-03,1,197,1.24227499961853,keyboard,bicycle,0.45,0197_hp_s03_0.45_bicycle_10_n02835271_2050.png
subject-03,1,198,0.830187082290649,airplane,airplane,inf,0198_hp_s03_inf_airplane_10_n02690373_5779.png
subject-03,1,199,1.16984105110168,bird,bear,1,0199_hp_s03_1_bear_10_n02134084_3795.png
subject-03,1,200,1.18346905708313,keyboard,clock,1.5,0200_hp_s03_1.5_clock_10_n03196217_10717.png
subject-03,1,201,1.37541198730469,bear,bottle,0.7,0201_hp_s03_0.7_bottle_10_n03937543_9606.png
subject-03,1,202,1.37145495414734,keyboard,keyboard,inf,0202_hp_s03_inf_keyboard_10_n04505470_4565.png
subject-03,1,203,1.01502013206482,boat,airplane,0.55,0203_hp_s03_0.55_airplane_10_n02690373_817.png
subject-03,1,204,1.14690685272217,bear,dog,1.5,0204_hp_s03_1.5_dog_10_n02097047_1003.png
subject-03,1,205,1.11457991600037,chair,chair,inf,0205_hp_s03_inf_chair_10_n02791124_7877.png
subject-03,1,206,1.31644415855408,car,knife,0.4,0206_hp_s03_0.4_knife_10_n03041632_31909.png
subject-03,1,207,0.86428689956665,oven,bicycle,0.4,0207_hp_s03_0.4_bicycle_10_n03792782_26834.png
subject-03,1,208,1.25394916534424,oven,bottle,1,0208_hp_s03_1_bottle_10_n04591713_4206.png
subject-03,1,209,1.25392484664917,bottle,elephant,0.45,0209_hp_s03_0.45_elephant_10_n02504458_217.png
subject-03,1,210,1.21157193183899,bird,truck,0.4,0210_hp_s03_0.4_truck_10_n03417042_10150.png
subject-03,1,211,1.14764809608459,car,elephant,0.4,0211_hp_s03_0.4_elephant_10_n02504013_295.png
subject-03,1,212,0.885317802429199,boat,clock,0.55,0212_hp_s03_0.55_clock_10_n03196217_5214.png
subject-03,1,213,1.13153505325317,bicycle,bicycle,3,0213_hp_s03_3_bicycle_10_n02835271_781.png
subject-03,1,214,1.34091401100159,cat,chair,0.7,0214_hp_s03_0.7_chair_10_n04429376_52822.png
subject-03,1,215,0.914655923843384,cat,cat,3,0215_hp_s03_3_cat_10_n02124075_9613.png
subject-03,1,216,0.842527866363525,car,car,0.7,0216_hp_s03_0.7_car_10_n02814533_90798.png
subject-03,1,217,1.07242608070374,chair,chair,1.5,0217_hp_s03_1.5_chair_10_n03376595_6850.png
subject-03,1,218,1.03812503814697,bear,oven,0.7,0218_hp_s03_0.7_oven_10_n04111531_8117.png
subject-03,1,219,0.945894002914429,truck,bicycle,0.4,0219_hp_s03_0.4_bicycle_10_n02835271_8098.png
subject-03,1,220,0.931952953338623,bicycle,bicycle,1,0220_hp_s03_1_bicycle_10_n02835271_719.png
subject-03,1,221,0.789592981338501,bottle,bottle,3,0221_hp_s03_3_bottle_10_n02823428_10796.png
subject-03,1,222,1.2493588924408,keyboard,keyboard,0.55,0222_hp_s03_0.55_keyboard_10_n04505470_1043.png
subject-03,1,223,0.643118858337402,cat,cat,inf,0223_hp_s03_inf_cat_10_n02124075_15171.png
subject-03,1,224,1.0293231010437,car,bird,0.7,0224_hp_s03_0.7_bird_10_n01855032_3713.png
subject-03,1,225,1.06680822372437,boat,bird,0.55,0225_hp_s03_0.55_bird_10_n01824575_328.png
subject-03,1,226,0.954602003097534,airplane,keyboard,0.45,0226_hp_s03_0.45_keyboard_10_n03085013_25559.png
subject-03,1,227,1.18884301185608,cat,keyboard,0.55,0227_hp_s03_0.55_keyboard_10_n03085013_23791.png
subject-03,1,228,0.890336036682129,dog,dog,3,0228_hp_s03_3_dog_10_n02093428_17625.png
subject-03,1,229,1.49430704116821,car,car,1,0229_hp_s03_1_car_10_n03100240_17505.png
subject-03,1,230,1.02798795700073,truck,truck,3,0230_hp_s03_3_truck_10_n04467665_45796.png
subject-03,1,231,1.19372391700745,car,bottle,0.7,0231_hp_s03_0.7_bottle_10_n04579145_3660.png
subject-03,1,232,1.36782288551331,bird,bird,0.7,0232_hp_s03_0.7_bird_10_n01798484_18666.png
subject-03,1,233,0.855265140533447,clock,clock,inf,0233_hp_s03_inf_clock_10_n02708093_8390.png
subject-03,1,234,0.707247018814087,boat,boat,inf,0234_hp_s03_inf_boat_10_n04612504_31305.png
subject-03,1,235,1.0450267791748,bird,bird,1.5,0235_hp_s03_1.5_bird_10_n02013706_848.png
subject-03,1,236,0.986641883850098,keyboard,keyboard,1,0236_hp_s03_1_keyboard_10_n04505470_4228.png
subject-03,1,237,1.41061902046204,car,knife,0.55,0237_hp_s03_0.55_knife_10_n03041632_5302.png
subject-03,1,238,1.48824501037598,cat,bottle,1.5,0238_hp_s03_1.5_bottle_10_n03937543_146.png
subject-03,1,239,1.12841200828552,bird,cat,1,0239_hp_s03_1_cat_10_n02123597_647.png
subject-03,1,240,1.17002201080322,knife,knife,inf,0240_hp_s03_inf_knife_10_n03041632_23736.png
subject-03,1,241,1.39967608451843,oven,bicycle,0.7,0241_hp_s03_0.7_bicycle_10_n03792782_10655.png
subject-03,1,242,1.3394250869751,truck,bird,0.7,0242_hp_s03_0.7_bird_10_n02007558_4566.png
subject-03,1,243,1.00123596191406,boat,boat,0.55,0243_hp_s03_0.55_boat_10_n04273569_18089.png
subject-03,1,244,0.819119930267334,clock,clock,3,0244_hp_s03_3_clock_10_n04548280_5013.png
subject-03,1,245,0.962779998779297,bottle,bottle,1.5,0245_hp_s03_1.5_bottle_10_n04560804_12099.png
subject-03,1,246,1.28262495994568,bottle,oven,0.55,0246_hp_s03_0.55_oven_10_n04111531_9867.png
subject-03,1,247,0.690501928329468,boat,elephant,0.45,0247_hp_s03_0.45_elephant_10_n02504458_4448.png
subject-03,1,248,0.894335985183716,bird,oven,1,0248_hp_s03_1_oven_10_n04111531_10711.png
subject-03,1,249,0.902213096618652,dog,cat,0.55,0249_hp_s03_0.55_cat_10_n02123159_8240.png
subject-03,1,250,1.09200882911682,bear,bird,0.4,0250_hp_s03_0.4_bird_10_n01820546_6431.png
subject-03,1,251,1.21609902381897,keyboard,oven,0.55,0251_hp_s03_0.55_oven_10_n04111531_2260.png
subject-03,1,252,1.50002884864807,clock,chair,0.55,0252_hp_s03_0.55_chair_10_n04099969_4725.png
subject-03,1,253,1.02919602394104,boat,boat,0.7,0253_hp_s03_0.7_boat_10_n03344393_3345.png
subject-03,1,254,1.15729093551636,truck,truck,3,0254_hp_s03_3_truck_10_n03417042_411.png
subject-03,1,255,1.14683294296265,car,car,0.4,0255_hp_s03_0.4_car_10_n03100240_6836.png
subject-03,1,256,0.823192834854126,bottle,bottle,3,0256_hp_s03_3_bottle_10_n04560804_30885.png
subject-03,1,257,1.34871196746826,knife,knife,inf,0257_hp_s03_inf_knife_10_n03041632_23968.png
subject-03,1,258,0.994502067565918,car,car,0.55,0258_hp_s03_0.55_car_10_n02814533_12532.png
subject-03,1,259,0.818347930908203,boat,chair,0.55,0259_hp_s03_0.55_chair_10_n04429376_8710.png
subject-03,1,260,1.17617797851562,chair,oven,1.5,0260_hp_s03_1.5_oven_10_n04111531_20407.png
subject-03,1,261,0.903883934020996,airplane,cat,0.55,0261_hp_s03_0.55_cat_10_n02123045_7342.png
subject-03,1,262,0.719565868377686,bird,chair,0.4,0262_hp_s03_0.4_chair_10_n03376595_6673.png
subject-03,1,263,1.11137795448303,keyboard,keyboard,inf,0263_hp_s03_inf_keyboard_10_n04505470_4668.png
subject-03,1,264,0.913191080093384,boat,airplane,0.7,0264_hp_s03_0.7_airplane_10_n02690373_6739.png
subject-03,1,265,0.899085998535156,elephant,elephant,inf,0265_hp_s03_inf_elephant_10_n02504013_5839.png
subject-03,1,266,0.870863914489746,bear,bear,3,0266_hp_s03_3_bear_10_n02132136_17524.png
subject-03,1,267,1.01074409484863,chair,chair,3,0267_hp_s03_3_chair_10_n03376595_17859.png
subject-03,1,268,0.916676044464111,car,dog,0.45,0268_hp_s03_0.45_dog_10_n02094258_4142.png
subject-03,1,269,0.700254917144775,boat,dog,0.4,0269_hp_s03_0.4_dog_10_n02108422_7493.png
subject-03,1,270,0.992032051086426,truck,bird,0.55,0270_hp_s03_0.55_bird_10_n01843065_1699.png
subject-03,1,271,0.618037939071655,cat,keyboard,0.55,0271_hp_s03_0.55_keyboard_10_n03085013_21301.png
subject-03,1,272,0.605650186538696,boat,boat,inf,0272_hp_s03_inf_boat_10_n02951358_3205.png
subject-03,1,273,0.965445995330811,clock,clock,1.5,0273_hp_s03_1.5_clock_10_n03196217_8943.png
subject-03,1,274,0.919350147247314,car,car,1,0274_hp_s03_1_car_10_n03100240_9955.png
subject-03,1,275,0.757107973098755,car,car,3,0275_hp_s03_3_car_10_n04285008_5467.png
subject-03,1,276,1.41492700576782,car,clock,1,0276_hp_s03_1_clock_10_n03196217_5079.png
subject-03,1,277,0.722917079925537,cat,bear,0.55,0277_hp_s03_0.55_bear_10_n02132136_7253.png
subject-03,1,278,1.27668404579163,car,airplane,0.45,0278_hp_s03_0.45_airplane_10_n02690373_2692.png
subject-03,1,279,0.928806066513062,bear,bear,0.7,0279_hp_s03_0.7_bear_10_n02132136_19995.png
subject-03,1,280,0.826349973678589,bird,car,0.45,0280_hp_s03_0.45_car_10_n03100240_1856.png
subject-03,1,281,0.98590612411499,boat,truck,0.55,0281_hp_s03_0.55_truck_10_n04467665_52409.png
subject-03,1,282,1.48383808135986,bottle,bottle,3,0282_hp_s03_3_bottle_10_n04591713_7374.png
subject-03,1,283,1.44590616226196,chair,truck,inf,0283_hp_s03_inf_truck_10_n03796401_7699.png
subject-03,1,284,0.845588207244873,boat,car,0.4,0284_hp_s03_0.4_car_10_n04285008_9765.png
subject-03,1,285,1.20336484909058,chair,elephant,1.5,0285_hp_s03_1.5_elephant_10_n02504013_9257.png
subject-03,1,286,0.877410173416138,dog,dog,inf,0286_hp_s03_inf_dog_10_n02099429_1915.png
subject-03,1,287,0.699091911315918,clock,clock,3,0287_hp_s03_3_clock_10_n03196217_7353.png
subject-03,1,288,1.0947859287262,bear,keyboard,0.45,0288_hp_s03_0.45_keyboard_10_n03085013_22585.png
subject-03,1,289,0.91050910949707,clock,clock,1.5,0289_hp_s03_1.5_clock_10_n04548280_5843.png
subject-03,1,290,1.39838600158691,bear,knife,0.7,0290_hp_s03_0.7_knife_10_n03041632_24181.png
subject-03,1,291,1.29621696472168,knife,knife,1,0291_hp_s03_1_knife_10_n03041632_39836.png
subject-03,1,292,1.03402304649353,bird,bear,0.4,0292_hp_s03_0.4_bear_10_n02133161_2813.png
subject-03,1,293,0.79576301574707,boat,cat,0.45,0293_hp_s03_0.45_cat_10_n02123597_12232.png
subject-03,1,294,1.25759601593018,knife,knife,3,0294_hp_s03_3_knife_10_n03041632_24646.png
subject-03,1,295,0.905368804931641,cat,knife,0.55,0295_hp_s03_0.55_knife_10_n03041632_13478.png
subject-03,1,296,1.23713302612305,bottle,bottle,1,0296_hp_s03_1_bottle_10_n04560804_1813.png
subject-03,1,297,0.81497597694397,oven,oven,1.5,0297_hp_s03_1.5_oven_10_n04111531_605.png
subject-03,1,298,0.770792961120605,clock,clock,0.7,0298_hp_s03_0.7_clock_10_n02708093_3688.png
subject-03,1,299,0.980656862258911,boat,clock,0.4,0299_hp_s03_0.4_clock_10_n03196217_11290.png
subject-03,1,300,1.28848004341125,bear,bird,1,0300_hp_s03_1_bird_10_n01560419_3160.png
subject-03,1,301,1.13241100311279,keyboard,keyboard,3,0301_hp_s03_3_keyboard_10_n04505470_550.png
subject-03,1,302,1.18006992340088,airplane,airplane,3,0302_hp_s03_3_airplane_10_n02690373_1053.png
subject-03,1,303,1.17195892333984,elephant,elephant,1,0303_hp_s03_1_elephant_10_n02504013_3169.png
subject-03,1,304,1.39771294593811,chair,bottle,0.7,0304_hp_s03_0.7_bottle_10_n04591713_2501.png
subject-03,1,305,1.14561986923218,boat,cat,0.7,0305_hp_s03_0.7_cat_10_n02123045_114.png
subject-03,1,306,0.943251848220825,bottle,chair,inf,0306_hp_s03_inf_chair_10_n03376595_9165.png
subject-03,1,307,1.15911602973938,car,bottle,0.45,0307_hp_s03_0.45_bottle_10_n04560804_7509.png
subject-03,1,308,0.955080032348633,truck,knife,0.4,0308_hp_s03_0.4_knife_10_n03041632_32197.png
subject-03,1,309,1.30285000801086,cat,oven,1,0309_hp_s03_1_oven_10_n04111531_15943.png
subject-03,1,310,1.3865978717804,airplane,oven,0.55,0310_hp_s03_0.55_oven_10_n04111531_2371.png
subject-03,1,311,1.34879493713379,bird,truck,0.45,0311_hp_s03_0.45_truck_10_n04467665_40002.png
subject-03,1,312,1.02033805847168,bicycle,bicycle,0.7,0312_hp_s03_0.7_bicycle_10_n02835271_31150.png
subject-03,1,313,0.766090869903564,boat,boat,inf,0313_hp_s03_inf_boat_10_n02951358_31813.png
subject-03,1,314,1.29776215553284,bear,dog,3,0314_hp_s03_3_dog_10_n02096294_1275.png
subject-03,1,315,0.783951997756958,car,car,inf,0315_hp_s03_inf_car_10_n04285008_6587.png
subject-03,1,316,1.20543599128723,elephant,cat,inf,0316_hp_s03_inf_cat_10_n02125311_8369.png
subject-03,1,317,1.4592068195343,bear,chair,0.7,0317_hp_s03_0.7_chair_10_n03376595_10507.png
subject-03,1,318,0.809120893478394,car,car,3,0318_hp_s03_3_car_10_n04285008_6030.png
subject-03,1,319,1.1890230178833,dog,dog,inf,0319_hp_s03_inf_dog_10_n02111500_4280.png
subject-03,1,320,0.886734962463379,elephant,elephant,3,0320_hp_s03_3_elephant_10_n02504458_6821.png
subject-03,1,321,0.808883905410767,car,car,inf,0321_hp_s03_inf_car_10_n04285008_5838.png
subject-03,1,322,0.898418188095093,boat,chair,0.7,0322_hp_s03_0.7_chair_10_n03376595_3566.png
subject-03,1,323,0.862236976623535,clock,chair,0.45,0323_hp_s03_0.45_chair_10_n04429376_694.png
subject-03,1,324,1.11015200614929,bear,bear,1.5,0324_hp_s03_1.5_bear_10_n02134084_1484.png
subject-03,1,325,0.853852033615112,boat,airplane,0.7,0325_hp_s03_0.7_airplane_10_n02690373_9712.png
subject-03,1,326,1.02589201927185,airplane,oven,0.4,0326_hp_s03_0.4_oven_10_n04111531_1794.png
subject-03,1,327,1.25154185295105,truck,truck,1,0327_hp_s03_1_truck_10_n04467665_7069.png
subject-03,1,328,0.857239007949829,elephant,elephant,1.5,0328_hp_s03_1.5_elephant_10_n02504013_701.png
subject-03,1,329,0.985162019729614,elephant,elephant,1.5,0329_hp_s03_1.5_elephant_10_n02504458_5369.png
subject-03,1,330,0.608834981918335,boat,airplane,0.7,0330_hp_s03_0.7_airplane_10_n02690373_18506.png
subject-03,1,331,1.14280605316162,oven,elephant,0.55,0331_hp_s03_0.55_elephant_10_n02504013_3688.png
subject-03,1,332,0.708779096603394,boat,boat,3,0332_hp_s03_3_boat_10_n03662601_3938.png
subject-03,1,333,0.936429977416992,cat,oven,0.55,0333_hp_s03_0.55_oven_10_n04111531_21973.png
subject-03,1,334,1.48023796081543,car,airplane,0.55,0334_hp_s03_0.55_airplane_10_n02690373_7600.png
subject-03,1,335,1.00995516777039,knife,knife,1,0335_hp_s03_1_knife_10_n03041632_27575.png
subject-03,1,336,1.00176382064819,cat,cat,0.55,0336_hp_s03_0.55_cat_10_n02125311_22122.png
subject-03,1,337,1.27600002288818,oven,clock,3,0337_hp_s03_3_clock_10_n04548280_8083.png
subject-03,1,338,0.933765888214111,bottle,bottle,inf,0338_hp_s03_inf_bottle_10_n04591713_2052.png
subject-03,1,339,1.07513499259949,car,cat,0.7,0339_hp_s03_0.7_cat_10_n02123159_5993.png
subject-03,1,340,0.847259998321533,keyboard,airplane,0.4,0340_hp_s03_0.4_airplane_10_n02690373_191.png
subject-03,1,341,1.10072588920593,boat,truck,1,0341_hp_s03_1_truck_10_n04467665_56754.png
subject-03,1,342,0.948960065841675,elephant,elephant,3,0342_hp_s03_3_elephant_10_n02504458_3329.png
subject-03,1,343,1.04881620407104,truck,bottle,0.55,0343_hp_s03_0.55_bottle_10_n04557648_7646.png
subject-03,1,344,0.860259056091309,bicycle,bicycle,inf,0344_hp_s03_inf_bicycle_10_n02835271_1299.png
subject-03,1,345,0.922091960906982,cat,dog,0.45,0345_hp_s03_0.45_dog_10_n02111500_2439.png
subject-03,1,346,1.47203803062439,car,truck,0.7,0346_hp_s03_0.7_truck_10_n04467665_30189.png
subject-03,1,347,1.50005793571472,bicycle,bear,0.7,0347_hp_s03_0.7_bear_10_n02132136_10944.png
subject-03,1,348,0.591570854187012,cat,knife,0.45,0348_hp_s03_0.45_knife_10_n03041632_4443.png
subject-03,1,349,1.23951697349548,oven,bottle,1,0349_hp_s03_1_bottle_10_n03983396_2054.png
subject-03,1,350,1.18539309501648,keyboard,oven,0.55,0350_hp_s03_0.55_oven_10_n04111531_3977.png
subject-03,1,351,1.50001502037048,airplane,oven,0.7,0351_hp_s03_0.7_oven_10_n04111531_537.png
subject-03,1,352,0.964916944503784,airplane,truck,0.7,0352_hp_s03_0.7_truck_10_n03417042_751.png
subject-03,1,353,1.38880896568298,boat,oven,1,0353_hp_s03_1_oven_10_n04111531_891.png
subject-03,1,354,1.50004005432129,bird,boat,1,0354_hp_s03_1_boat_10_n04273569_16739.png
subject-03,1,355,1.05216193199158,oven,truck,0.4,0355_hp_s03_0.4_truck_10_n03417042_22297.png
subject-03,1,356,0.977996110916138,truck,truck,1,0356_hp_s03_1_truck_10_n03796401_430.png
subject-03,1,357,1.50008010864258,keyboard,keyboard,inf,0357_hp_s03_inf_keyboard_10_n03085013_23213.png
subject-03,1,358,1.00174188613892,boat,bear,1.5,0358_hp_s03_1.5_bear_10_n02134084_17849.png
subject-03,1,359,0.939471960067749,knife,knife,1,0359_hp_s03_1_knife_10_n03041632_11797.png
subject-03,1,360,1.13146281242371,cat,elephant,0.45,0360_hp_s03_0.45_elephant_10_n02504458_6472.png
subject-03,1,361,0.949409961700439,keyboard,keyboard,1,0361_hp_s03_1_keyboard_10_n03085013_22928.png
subject-03,1,362,1.30715107917786,car,car,0.7,0362_hp_s03_0.7_car_10_n02814533_39933.png
subject-03,1,363,0.920759916305542,bear,bear,inf,0363_hp_s03_inf_bear_10_n02133161_4580.png
subject-03,1,364,0.982454061508179,cat,knife,0.45,0364_hp_s03_0.45_knife_10_n03041632_89912.png
subject-03,1,365,0.756515979766846,chair,chair,3,0365_hp_s03_3_chair_10_n03376595_10873.png
subject-03,1,366,1.13839101791382,car,knife,3,0366_hp_s03_3_knife_10_n03041632_21034.png
subject-03,1,367,1.02218294143677,bear,bear,1.5,0367_hp_s03_1.5_bear_10_n02132136_5051.png
subject-03,1,368,1.07794189453125,bird,bird,inf,0368_hp_s03_inf_bird_10_n01855672_6132.png
subject-03,1,369,1.41796398162842,clock,boat,0.45,0369_hp_s03_0.45_boat_10_n04273569_15859.png
subject-03,1,370,1.28757095336914,airplane,truck,3,0370_hp_s03_3_truck_10_n04467665_77214.png
subject-03,1,371,0.981453895568848,oven,oven,3,0371_hp_s03_3_oven_10_n04111531_4826.png
subject-03,1,372,1.15524816513062,boat,truck,0.4,0372_hp_s03_0.4_truck_10_n03417042_2293.png
subject-03,1,373,NaN,na,bottle,0.55,0373_hp_s03_0.55_bottle_10_n02823428_11140.png
subject-03,1,374,0.976665019989014,boat,bottle,1,0374_hp_s03_1_bottle_10_n04591713_1649.png
subject-03,1,375,1.18664979934692,car,car,1,0375_hp_s03_1_car_10_n04285008_9452.png
subject-03,1,376,0.76638388633728,boat,dog,1,0376_hp_s03_1_dog_10_n02099267_14149.png
subject-03,1,377,0.750092029571533,cat,knife,0.55,0377_hp_s03_0.55_knife_10_n03041632_36247.png
subject-03,1,378,1.24632096290588,car,truck,0.45,0378_hp_s03_0.45_truck_10_n04467665_46192.png
subject-03,1,379,1.12773299217224,truck,bottle,0.55,0379_hp_s03_0.55_bottle_10_n04557648_3350.png
subject-03,1,380,0.837651014328003,oven,oven,1.5,0380_hp_s03_1.5_oven_10_n04111531_1752.png
subject-03,1,381,1.10547089576721,car,dog,0.7,0381_hp_s03_0.7_dog_10_n02096051_988.png
subject-03,1,382,1.25336790084839,bird,bottle,0.55,0382_hp_s03_0.55_bottle_10_n03937543_2874.png
subject-03,1,383,1.15087008476257,bottle,chair,3,0383_hp_s03_3_chair_10_n04429376_26914.png
subject-03,1,384,0.91877293586731,oven,elephant,0.7,0384_hp_s03_0.7_elephant_10_n02504458_155.png
subject-03,1,385,0.898678064346313,keyboard,bicycle,0.55,0385_hp_s03_0.55_bicycle_10_n03792782_7092.png
subject-03,1,386,0.850558996200562,airplane,airplane,3,0386_hp_s03_3_airplane_10_n02690373_21922.png
subject-03,1,387,1.29809999465942,bird,knife,0.7,0387_hp_s03_0.7_knife_10_n03041632_94155.png
subject-03,1,388,1.32206106185913,car,bear,0.7,0388_hp_s03_0.7_bear_10_n02134084_5004.png
subject-03,1,389,0.978168964385986,bicycle,truck,1.5,0389_hp_s03_1.5_truck_10_n03417042_5249.png
subject-03,1,390,1.31559491157532,car,cat,1,0390_hp_s03_1_cat_10_n02125311_12070.png
subject-03,1,391,0.947375059127808,dog,keyboard,0.4,0391_hp_s03_0.4_keyboard_10_n03085013_19055.png
subject-03,1,392,0.98145604133606,dog,bear,0.55,0392_hp_s03_0.55_bear_10_n02133161_4049.png
subject-03,1,393,0.985274076461792,oven,oven,1,0393_hp_s03_1_oven_10_n04111531_4438.png
subject-03,1,394,1.34692597389221,boat,bicycle,0.7,0394_hp_s03_0.7_bicycle_10_n03792782_4067.png
subject-03,1,395,0.911189079284668,car,car,0.7,0395_hp_s03_0.7_car_10_n04285008_6320.png
subject-03,1,396,1.07442593574524,dog,dog,3,0396_hp_s03_3_dog_10_n02100735_8835.png
subject-03,1,397,1.07423114776611,oven,knife,0.45,0397_hp_s03_0.45_knife_10_n03041632_56172.png
subject-03,1,398,1.00419402122498,boat,boat,0.7,0398_hp_s03_0.7_boat_10_n03344393_9459.png
subject-03,1,399,1.20798492431641,bicycle,boat,1,0399_hp_s03_1_boat_10_n02951358_7320.png
subject-03,1,400,1.26024198532104,car,knife,0.55,0400_hp_s03_0.55_knife_10_n03041632_11887.png
subject-03,1,401,0.845627069473267,clock,cat,0.45,0401_hp_s03_0.45_cat_10_n02124075_1460.png
subject-03,1,402,1.08098411560059,chair,chair,3,0402_hp_s03_3_chair_10_n04429376_28372.png
subject-03,1,403,1.20078682899475,bottle,bottle,1,0403_hp_s03_1_bottle_10_n04579145_287.png
subject-03,1,404,1.11047506332397,bear,bear,inf,0404_hp_s03_inf_bear_10_n02134084_24136.png
subject-03,1,405,0.702399969100952,car,car,inf,0405_hp_s03_inf_car_10_n02814533_40315.png
subject-03,1,406,1.09621715545654,bear,bear,0.7,0406_hp_s03_0.7_bear_10_n02133161_4161.png
subject-03,1,407,1.33014512062073,truck,bicycle,0.55,0407_hp_s03_0.55_bicycle_10_n03792782_10876.png
subject-03,1,408,1.11189413070679,airplane,keyboard,1.5,0408_hp_s03_1.5_keyboard_10_n04505470_5275.png
subject-03,1,409,1.48553586006165,car,truck,0.7,0409_hp_s03_0.7_truck_10_n03796401_1082.png
subject-03,1,410,1.10961508750916,oven,dog,0.45,0410_hp_s03_0.45_dog_10_n02106382_9188.png
subject-03,1,411,1.20156311988831,bird,bicycle,0.55,0411_hp_s03_0.55_bicycle_10_n03792782_10185.png
subject-03,1,412,1.19707298278809,boat,airplane,0.55,0412_hp_s03_0.55_airplane_10_n02690373_1663.png
subject-03,1,413,1.50001096725464,truck,cat,0.45,0413_hp_s03_0.45_cat_10_n02125311_25104.png
subject-03,1,414,1.22707104682922,car,dog,0.55,0414_hp_s03_0.55_dog_10_n02091831_3628.png
subject-03,1,415,1.00043916702271,truck,truck,3,0415_hp_s03_3_truck_10_n03796401_7487.png
subject-03,1,416,1.11634516716003,keyboard,truck,0.4,0416_hp_s03_0.4_truck_10_n03417042_750.png
subject-03,1,417,0.816098928451538,chair,chair,0.7,0417_hp_s03_0.7_chair_10_n03376595_11839.png
subject-03,1,418,1.35594987869263,elephant,bear,0.7,0418_hp_s03_0.7_bear_10_n02134084_1867.png
subject-03,1,419,1.25185298919678,cat,cat,inf,0419_hp_s03_inf_cat_10_n02123045_10395.png
subject-03,1,420,1.11358594894409,chair,chair,0.45,0420_hp_s03_0.45_chair_10_n04099969_4053.png
subject-03,1,421,1.18548393249512,bear,keyboard,0.4,0421_hp_s03_0.4_keyboard_10_n03085013_20462.png
subject-03,1,422,1.23918294906616,truck,chair,0.4,0422_hp_s03_0.4_chair_10_n04429376_10628.png
subject-03,1,423,0.945065975189209,chair,chair,inf,0423_hp_s03_inf_chair_10_n04429376_7902.png
subject-03,1,424,1.01099586486816,boat,clock,0.45,0424_hp_s03_0.45_clock_10_n04548280_4345.png
subject-03,1,425,1.19704985618591,bird,knife,0.4,0425_hp_s03_0.4_knife_10_n03041632_30602.png
subject-03,1,426,1.04831290245056,elephant,elephant,1.5,0426_hp_s03_1.5_elephant_10_n02504458_7144.png
subject-03,1,427,0.922479867935181,airplane,airplane,0.7,0427_hp_s03_0.7_airplane_10_n02690373_9642.png
subject-03,1,428,1.21623086929321,car,car,0.55,0428_hp_s03_0.55_car_10_n03100240_15228.png
subject-03,1,429,0.960008144378662,bear,elephant,0.4,0429_hp_s03_0.4_elephant_10_n02504458_63.png
subject-03,1,430,0.849832057952881,cat,chair,0.55,0430_hp_s03_0.55_chair_10_n03376595_10460.png
subject-03,1,431,1.35343098640442,bird,bicycle,0.45,0431_hp_s03_0.45_bicycle_10_n02835271_4682.png
subject-03,1,432,1.24522614479065,cat,knife,0.4,0432_hp_s03_0.4_knife_10_n03041632_42162.png
subject-03,1,433,0.747101068496704,bottle,bottle,inf,0433_hp_s03_inf_bottle_10_n04557648_91.png
subject-03,1,434,0.792876005172729,bicycle,bicycle,3,0434_hp_s03_3_bicycle_10_n03792782_4472.png
subject-03,1,435,1.21487998962402,bear,elephant,1.5,0435_hp_s03_1.5_elephant_10_n02504013_7079.png
subject-03,1,436,0.810496807098389,keyboard,keyboard,3,0436_hp_s03_3_keyboard_10_n03085013_22949.png
subject-03,1,437,0.686441898345947,clock,clock,1,0437_hp_s03_1_clock_10_n02708093_3266.png
subject-03,1,438,0.638601064682007,boat,boat,1.5,0438_hp_s03_1.5_boat_10_n04273569_8774.png
subject-03,1,439,1.27610087394714,bear,bird,1.5,0439_hp_s03_1.5_bird_10_n02018795_5488.png
subject-03,1,440,1.04371905326843,bird,dog,0.55,0440_hp_s03_0.55_dog_10_n02107574_1533.png
subject-03,1,441,0.633625984191895,boat,truck,1.5,0441_hp_s03_1.5_truck_10_n04467665_45306.png
subject-03,1,442,0.871426820755005,bicycle,bicycle,1,0442_hp_s03_1_bicycle_10_n02835271_1525.png
subject-03,1,443,1.13322710990906,dog,oven,1.5,0443_hp_s03_1.5_oven_10_n04111531_6810.png
subject-03,1,444,0.865110874176025,oven,elephant,0.4,0444_hp_s03_0.4_elephant_10_n02504013_1846.png
subject-03,1,445,0.616998910903931,boat,airplane,0.55,0445_hp_s03_0.55_airplane_10_n02690373_3035.png
subject-03,1,446,1.27265119552612,car,keyboard,0.45,0446_hp_s03_0.45_keyboard_10_n03085013_11399.png
subject-03,1,447,1.00075483322144,elephant,elephant,inf,0447_hp_s03_inf_elephant_10_n02504013_6769.png
subject-03,1,448,0.918742179870605,truck,car,0.45,0448_hp_s03_0.45_car_10_n03100240_5633.png
subject-03,1,449,1.15257501602173,airplane,airplane,1.5,0449_hp_s03_1.5_airplane_10_n02690373_5015.png
subject-03,1,450,1.24397015571594,clock,clock,inf,0450_hp_s03_inf_clock_10_n03196217_2853.png
subject-03,1,451,1.46982192993164,elephant,elephant,inf,0451_hp_s03_inf_elephant_10_n02504458_1506.png
subject-03,1,452,0.963820934295654,bird,bird,1.5,0452_hp_s03_1.5_bird_10_n01537544_1126.png
subject-03,1,453,1.06341004371643,car,knife,0.4,0453_hp_s03_0.4_knife_10_n03041632_45270.png
subject-03,1,454,0.978994846343994,clock,car,0.4,0454_hp_s03_0.4_car_10_n04285008_4551.png
subject-03,1,455,0.989042043685913,bird,bird,1.5,0455_hp_s03_1.5_bird_10_n01616318_1214.png
subject-03,1,456,0.676754951477051,cat,bottle,0.4,0456_hp_s03_0.4_bottle_10_n04591713_7528.png
subject-03,1,457,1.08863496780396,elephant,elephant,1,0457_hp_s03_1_elephant_10_n02504013_6671.png
subject-03,1,458,0.914692878723145,car,car,0.7,0458_hp_s03_0.7_car_10_n03100240_7703.png
subject-03,1,459,1.08421111106873,truck,chair,1,0459_hp_s03_1_chair_10_n04429376_24578.png
subject-03,1,460,0.738322973251343,cat,bear,3,0460_hp_s03_3_bear_10_n02134418_47.png
subject-03,1,461,0.683912038803101,cat,cat,3,0461_hp_s03_3_cat_10_n02124075_14326.png
subject-03,1,462,1.24968194961548,clock,keyboard,0.45,0462_hp_s03_0.45_keyboard_10_n04505470_4105.png
subject-03,1,463,0.82568097114563,boat,dog,0.55,0463_hp_s03_0.55_dog_10_n02097298_6933.png
subject-03,1,464,0.949153900146484,car,car,0.55,0464_hp_s03_0.55_car_10_n02814533_8121.png
subject-03,1,465,1.00296711921692,oven,bottle,0.4,0465_hp_s03_0.4_bottle_10_n02823428_11.png
subject-03,1,466,0.7291100025177,chair,chair,1.5,0466_hp_s03_1.5_chair_10_n03376595_6865.png
subject-03,1,467,1.23311185836792,truck,airplane,0.45,0467_hp_s03_0.45_airplane_10_n02690373_1547.png
subject-03,1,468,1.10861992835999,keyboard,bottle,0.55,0468_hp_s03_0.55_bottle_10_n04560804_13142.png
subject-03,1,469,1.47432994842529,car,boat,1,0469_hp_s03_1_boat_10_n04612504_11379.png
subject-03,1,470,0.9601731300354,bird,dog,3,0470_hp_s03_3_dog_10_n02091244_8497.png
subject-03,1,471,0.950095176696777,airplane,airplane,1.5,0471_hp_s03_1.5_airplane_10_n02690373_4148.png
subject-03,1,472,1.38974118232727,bicycle,dog,0.55,0472_hp_s03_0.55_dog_10_n02089867_6424.png
subject-03,1,473,0.831648111343384,boat,keyboard,0.45,0473_hp_s03_0.45_keyboard_10_n04505470_7928.png
subject-03,1,474,1.04970598220825,cat,cat,0.4,0474_hp_s03_0.4_cat_10_n02123045_5189.png
subject-03,1,475,1.01323819160461,chair,chair,1,0475_hp_s03_1_chair_10_n02791124_6786.png
subject-03,1,476,1.32292008399963,truck,truck,0.7,0476_hp_s03_0.7_truck_10_n03796401_6526.png
subject-03,1,477,0.75274395942688,boat,car,0.55,0477_hp_s03_0.55_car_10_n03100240_6822.png
subject-03,1,478,0.775075912475586,keyboard,truck,0.4,0478_hp_s03_0.4_truck_10_n04467665_42126.png
subject-03,1,479,1.05842804908752,boat,truck,1.5,0479_hp_s03_1.5_truck_10_n04467665_45872.png
subject-03,1,480,0.894584894180298,bird,bear,0.4,0480_hp_s03_0.4_bear_10_n02134418_119.png
subject-03,1,481,0.899202108383179,boat,bird,0.4,0481_hp_s03_0.4_bird_10_n01797886_16808.png
subject-03,1,482,1.28301310539246,car,clock,0.4,0482_hp_s03_0.4_clock_10_n03196217_5365.png
subject-03,1,483,0.908737182617188,boat,boat,3,0483_hp_s03_3_boat_10_n03662601_1834.png
subject-03,1,484,1.15280294418335,bear,bird,1,0484_hp_s03_1_bird_10_n01824575_12784.png
subject-03,1,485,0.986577033996582,bird,truck,0.4,0485_hp_s03_0.4_truck_10_n03417042_8334.png
subject-03,1,486,1.12012100219727,bird,bird,1,0486_hp_s03_1_bird_10_n02025239_1443.png
subject-03,1,487,1.22794818878174,elephant,bear,0.7,0487_hp_s03_0.7_bear_10_n02134418_5848.png
subject-03,1,488,1.1201651096344,cat,bird,1.5,0488_hp_s03_1.5_bird_10_n01616318_9819.png
subject-03,1,489,1.06368112564087,elephant,elephant,0.7,0489_hp_s03_0.7_elephant_10_n02504458_1327.png
subject-03,1,490,0.901627063751221,bear,bear,1,0490_hp_s03_1_bear_10_n02134418_4515.png
subject-03,1,491,0.691378831863403,clock,clock,0.45,0491_hp_s03_0.45_clock_10_n03196217_7313.png
subject-03,1,492,1.21553182601929,truck,truck,1.5,0492_hp_s03_1.5_truck_10_n04467665_58762.png
subject-03,1,493,0.857011079788208,cat,elephant,0.4,0493_hp_s03_0.4_elephant_10_n02504458_3163.png
subject-03,1,494,0.886841058731079,car,car,0.55,0494_hp_s03_0.55_car_10_n03100240_1794.png
subject-03,1,495,0.808535814285278,oven,oven,0.7,0495_hp_s03_0.7_oven_10_n04111531_9041.png
subject-03,1,496,0.792464017868042,bicycle,bicycle,inf,0496_hp_s03_inf_bicycle_10_n03792782_6512.png
subject-03,1,497,1.35009002685547,truck,boat,0.4,0497_hp_s03_0.4_boat_10_n03662601_2438.png
subject-03,1,498,0.68022608757019,boat,boat,0.55,0498_hp_s03_0.55_boat_10_n04612504_654.png
subject-03,1,499,0.979885816574097,cat,chair,0.45,0499_hp_s03_0.45_chair_10_n02791124_5684.png
subject-03,1,500,0.887709140777588,chair,chair,1.5,0500_hp_s03_1.5_chair_10_n03376595_99.png
subject-03,1,501,1.16563987731934,oven,cat,0.4,0501_hp_s03_0.4_cat_10_n02123394_518.png
subject-03,1,502,1.20933604240417,oven,keyboard,0.7,0502_hp_s03_0.7_keyboard_10_n03085013_20673.png
subject-03,1,503,1.30302095413208,bird,bird,3,0503_hp_s03_3_bird_10_n01820546_228.png
subject-03,1,504,1.08274793624878,elephant,bear,1,0504_hp_s03_1_bear_10_n02134418_24559.png
subject-03,1,505,0.924673080444336,bicycle,bicycle,3,0505_hp_s03_3_bicycle_10_n02835271_4307.png
subject-03,1,506,1.20449709892273,car,truck,1,0506_hp_s03_1_truck_10_n03417042_22709.png
subject-03,1,507,1.12017512321472,oven,boat,0.4,0507_hp_s03_0.4_boat_10_n04612504_29813.png
subject-03,1,508,0.834120035171509,cat,bottle,0.4,0508_hp_s03_0.4_bottle_10_n03983396_8837.png
subject-03,1,509,1.00412917137146,airplane,airplane,inf,0509_hp_s03_inf_airplane_10_n02690373_17603.png
subject-03,1,510,0.953927040100098,car,car,3,0510_hp_s03_3_car_10_n03100240_2420.png
subject-03,1,511,0.881685972213745,bird,knife,0.4,0511_hp_s03_0.4_knife_10_n03041632_22734.png
subject-03,1,512,1.27936697006226,bottle,bottle,inf,0512_hp_s03_inf_bottle_10_n02823428_4245.png
subject-03,1,513,0.919266939163208,bear,cat,0.4,0513_hp_s03_0.4_cat_10_n02123597_1825.png
subject-03,1,514,1.30547499656677,bicycle,clock,0.4,0514_hp_s03_0.4_clock_10_n04548280_7243.png
subject-03,1,515,0.870750904083252,boat,bird,0.45,0515_hp_s03_0.45_bird_10_n02025239_2227.png
subject-03,1,516,0.850553035736084,oven,dog,0.55,0516_hp_s03_0.55_dog_10_n02094433_10343.png
subject-03,1,517,0.778411865234375,cat,dog,0.4,0517_hp_s03_0.4_dog_10_n02112350_279.png
subject-03,1,518,0.938218116760254,bird,dog,0.45,0518_hp_s03_0.45_dog_10_n02111500_2111.png
subject-03,1,519,0.894005060195923,cat,cat,1.5,0519_hp_s03_1.5_cat_10_n02123159_5934.png
subject-03,1,520,1.18376708030701,elephant,cat,0.7,0520_hp_s03_0.7_cat_10_n02124075_7680.png
subject-03,1,521,1.12777781486511,boat,truck,1.5,0521_hp_s03_1.5_truck_10_n03417042_1770.png
subject-03,1,522,0.853488922119141,keyboard,keyboard,1.5,0522_hp_s03_1.5_keyboard_10_n03085013_4823.png
subject-03,1,523,1.01913094520569,bear,dog,0.7,0523_hp_s03_0.7_dog_10_n02113978_8008.png
subject-03,1,524,1.02724099159241,car,clock,0.45,0524_hp_s03_0.45_clock_10_n02708093_2926.png
subject-03,1,525,1.0410578250885,bear,bear,3,0525_hp_s03_3_bear_10_n02132136_7647.png
subject-03,1,526,1.12073493003845,dog,dog,1.5,0526_hp_s03_1.5_dog_10_n02105251_6599.png
subject-03,1,527,1.06654906272888,keyboard,keyboard,inf,0527_hp_s03_inf_keyboard_10_n04505470_4138.png
subject-03,1,528,1.41029787063599,bear,bear,inf,0528_hp_s03_inf_bear_10_n02132136_13370.png
subject-03,1,529,1.47597599029541,boat,knife,1,0529_hp_s03_1_knife_10_n03041632_14442.png
subject-03,1,530,0.864125967025757,clock,clock,inf,0530_hp_s03_inf_clock_10_n03196217_4844.png
subject-03,1,531,0.679789066314697,clock,clock,inf,0531_hp_s03_inf_clock_10_n04548280_3308.png
subject-03,1,532,0.751699924468994,cat,elephant,0.7,0532_hp_s03_0.7_elephant_10_n02504458_1233.png
subject-03,1,533,0.997319936752319,truck,bird,0.4,0533_hp_s03_0.4_bird_10_n01829413_5849.png
subject-03,1,534,0.827340126037598,clock,clock,1,0534_hp_s03_1_clock_10_n04548280_8668.png
subject-03,1,535,0.943466901779175,boat,boat,0.7,0535_hp_s03_0.7_boat_10_n03662601_12531.png
subject-03,1,536,1.20890498161316,car,knife,0.7,0536_hp_s03_0.7_knife_10_n03041632_4044.png
subject-03,1,537,0.944916009902954,bird,knife,0.4,0537_hp_s03_0.4_knife_10_n03041632_22964.png
subject-03,1,538,1.31070303916931,cat,knife,1,0538_hp_s03_1_knife_10_n03041632_25257.png
subject-03,1,539,1.44824481010437,bottle,chair,1.5,0539_hp_s03_1.5_chair_10_n04429376_28121.png
subject-03,1,540,1.49999403953552,airplane,boat,0.7,0540_hp_s03_0.7_boat_10_n03344393_3219.png
subject-03,1,541,1.01601386070251,boat,bear,0.45,0541_hp_s03_0.45_bear_10_n02134418_1798.png
subject-03,1,542,0.999691963195801,bear,bottle,0.4,0542_hp_s03_0.4_bottle_10_n04557648_2093.png
subject-03,1,543,0.525607109069824,oven,bird,0.45,0543_hp_s03_0.45_bird_10_n01855032_4295.png
subject-03,1,544,0.89119815826416,car,keyboard,0.45,0544_hp_s03_0.45_keyboard_10_n03085013_23316.png
subject-03,1,545,0.625027894973755,boat,boat,3,0545_hp_s03_3_boat_10_n04273569_16949.png
subject-03,1,546,0.716903924942017,clock,clock,1.5,0546_hp_s03_1.5_clock_10_n02708093_3750.png
subject-03,1,547,1.1151180267334,boat,bicycle,0.7,0547_hp_s03_0.7_bicycle_10_n02835271_1035.png
subject-03,1,548,0.885017871856689,clock,clock,3,0548_hp_s03_3_clock_10_n02708093_3484.png
subject-03,1,549,1.15858697891235,airplane,truck,3,0549_hp_s03_3_truck_10_n04467665_25059.png
subject-03,1,550,1.37607908248901,truck,truck,1,0550_hp_s03_1_truck_10_n03417042_3398.png
subject-03,1,551,1.11201000213623,bear,bicycle,0.4,0551_hp_s03_0.4_bicycle_10_n03792782_8329.png
subject-03,1,552,NaN,na,bottle,1,0552_hp_s03_1_bottle_10_n04591713_4892.png
subject-03,1,553,0.521673917770386,clock,clock,inf,0553_hp_s03_inf_clock_10_n03196217_1550.png
subject-03,1,554,0.809600114822388,boat,chair,0.55,0554_hp_s03_0.55_chair_10_n04099969_20421.png
subject-03,1,555,1.29323196411133,keyboard,keyboard,3,0555_hp_s03_3_keyboard_10_n03085013_18741.png
subject-03,1,556,1.0530309677124,car,bear,1,0556_hp_s03_1_bear_10_n02134084_16190.png
subject-03,1,557,1.49902701377869,truck,truck,1,0557_hp_s03_1_truck_10_n03417042_19481.png
subject-03,1,558,0.696630954742432,oven,truck,0.45,0558_hp_s03_0.45_truck_10_n04467665_20933.png
subject-03,1,559,0.778724908828735,bird,bird,inf,0559_hp_s03_inf_bird_10_n01534433_28009.png
subject-03,1,560,1.19221305847168,cat,oven,0.7,0560_hp_s03_0.7_oven_10_n04111531_14559.png
subject-03,1,561,0.687908887863159,boat,boat,3,0561_hp_s03_3_boat_10_n03662601_2197.png
subject-03,1,562,0.758055925369263,oven,bicycle,0.4,0562_hp_s03_0.4_bicycle_10_n03792782_2327.png
subject-03,1,563,0.553986787796021,cat,oven,0.4,0563_hp_s03_0.4_oven_10_n04111531_1815.png
subject-03,1,564,0.64530086517334,boat,boat,0.7,0564_hp_s03_0.7_boat_10_n04273569_3244.png
subject-03,1,565,0.671165943145752,bottle,bottle,inf,0565_hp_s03_inf_bottle_10_n04560804_16526.png
subject-03,1,566,0.862969875335693,car,car,0.7,0566_hp_s03_0.7_car_10_n02814533_5278.png
subject-03,1,567,0.946861028671265,dog,dog,1.5,0567_hp_s03_1.5_dog_10_n02100236_1502.png
subject-03,1,568,1.29083609580994,keyboard,airplane,0.7,0568_hp_s03_0.7_airplane_10_n02690373_6328.png
subject-03,1,569,0.956824064254761,dog,dog,inf,0569_hp_s03_inf_dog_10_n02086646_7064.png
subject-03,1,570,1.14214491844177,truck,truck,inf,0570_hp_s03_inf_truck_10_n04467665_55193.png
subject-03,1,571,0.754055976867676,cat,bird,0.45,0571_hp_s03_0.45_bird_10_n01614925_7608.png
subject-03,1,572,1.10780692100525,dog,cat,1.5,0572_hp_s03_1.5_cat_10_n02123045_6144.png
subject-03,1,573,1.15363502502441,chair,chair,inf,0573_hp_s03_inf_chair_10_n03376595_10769.png
subject-03,1,574,0.87966513633728,airplane,airplane,1,0574_hp_s03_1_airplane_10_n02690373_3289.png
subject-03,1,575,0.847215175628662,bear,cat,0.55,0575_hp_s03_0.55_cat_10_n02123045_5080.png
subject-03,1,576,0.93506908416748,car,boat,0.55,0576_hp_s03_0.55_boat_10_n03662601_5210.png
subject-03,1,577,1.01080703735352,elephant,elephant,3,0577_hp_s03_3_elephant_10_n02504458_6762.png
subject-03,1,578,0.910644054412842,clock,clock,1,0578_hp_s03_1_clock_10_n02708093_3173.png
subject-03,1,579,0.948495149612427,car,car,1.5,0579_hp_s03_1.5_car_10_n02814533_70322.png
subject-03,1,580,0.966428995132446,car,oven,1,0580_hp_s03_1_oven_10_n04111531_2458.png
subject-03,1,581,1.17423295974731,keyboard,bicycle,0.7,0581_hp_s03_0.7_bicycle_10_n03792782_41173.png
subject-03,1,582,0.885838031768799,dog,dog,3,0582_hp_s03_3_dog_10_n02111500_7593.png
subject-03,1,583,1.0178701877594,bear,bear,inf,0583_hp_s03_inf_bear_10_n02132136_22387.png
subject-03,1,584,1.17757987976074,airplane,airplane,3,0584_hp_s03_3_airplane_10_n02690373_3153.png
subject-03,1,585,0.841511964797974,boat,boat,1,0585_hp_s03_1_boat_10_n04273569_6071.png
subject-03,1,586,0.723150968551636,oven,oven,0.7,0586_hp_s03_0.7_oven_10_n04111531_12468.png
subject-03,1,587,0.733122110366821,car,car,0.7,0587_hp_s03_0.7_car_10_n04285008_12138.png
subject-03,1,588,0.879132032394409,bottle,bottle,1.5,0588_hp_s03_1.5_bottle_10_n04591713_6958.png
subject-03,1,589,0.898779153823853,bear,bear,0.55,0589_hp_s03_0.55_bear_10_n02134084_13434.png
subject-03,1,590,1.03846597671509,knife,knife,3,0590_hp_s03_3_knife_10_n03041632_1407.png
subject-03,1,591,1.22213387489319,bicycle,bicycle,1.5,0591_hp_s03_1.5_bicycle_10_n03792782_1983.png
subject-03,1,592,0.764146089553833,cat,cat,1,0592_hp_s03_1_cat_10_n02123159_4376.png
subject-03,1,593,0.956065893173218,car,truck,0.55,0593_hp_s03_0.55_truck_10_n03417042_7310.png
subject-03,1,594,0.727658987045288,boat,boat,3,0594_hp_s03_3_boat_10_n04612504_4773.png
subject-03,1,595,1.0255389213562,car,car,1,0595_hp_s03_1_car_10_n04285008_7751.png
subject-03,1,596,0.775415897369385,oven,oven,1.5,0596_hp_s03_1.5_oven_10_n04111531_1830.png
subject-03,1,597,1.36535501480103,boat,elephant,0.7,0597_hp_s03_0.7_elephant_10_n02504013_10331.png
subject-03,1,598,1.33693385124207,truck,cat,0.4,0598_hp_s03_0.4_cat_10_n02123394_4662.png
subject-03,1,599,1.02286911010742,bird,cat,1.5,0599_hp_s03_1.5_cat_10_n02125311_37036.png
subject-03,1,600,0.74686598777771,cat,cat,1.5,0600_hp_s03_1.5_cat_10_n02123597_10301.png
subject-03,1,601,1.08246207237244,boat,airplane,0.7,0601_hp_s03_0.7_airplane_10_n02690373_8611.png
subject-03,1,602,0.996172189712524,oven,dog,0.45,0602_hp_s03_0.45_dog_10_n02096585_391.png
subject-03,1,603,1.06434607505798,knife,knife,3,0603_hp_s03_3_knife_10_n03041632_31363.png
subject-03,1,604,0.777760028839111,boat,boat,inf,0604_hp_s03_inf_boat_10_n03662601_11276.png
subject-03,1,605,0.745625972747803,clock,clock,inf,0605_hp_s03_inf_clock_10_n02708093_6635.png
subject-03,1,606,0.783571004867554,bird,oven,0.45,0606_hp_s03_0.45_oven_10_n04111531_4955.png
subject-03,1,607,0.83741307258606,bottle,bottle,1,0607_hp_s03_1_bottle_10_n04560804_15923.png
subject-03,1,608,1.16512203216553,truck,bird,0.45,0608_hp_s03_0.45_bird_10_n01797886_3046.png
subject-03,1,609,1.15332293510437,car,cat,0.4,0609_hp_s03_0.4_cat_10_n02123045_4812.png
subject-03,1,610,0.7048020362854,bird,bird,inf,0610_hp_s03_inf_bird_10_n02056570_11311.png
subject-03,1,611,0.902559041976929,oven,bird,0.4,0611_hp_s03_0.4_bird_10_n01843065_2176.png
subject-03,1,612,0.642337083816528,clock,dog,0.4,0612_hp_s03_0.4_dog_10_n02091032_4179.png
subject-03,1,613,0.740532159805298,cat,knife,0.7,0613_hp_s03_0.7_knife_10_n03041632_39739.png
subject-03,1,614,0.816477060317993,oven,bicycle,0.4,0614_hp_s03_0.4_bicycle_10_n02835271_1261.png
subject-03,1,615,0.915692090988159,bear,bear,1,0615_hp_s03_1_bear_10_n02132136_10559.png
subject-03,1,616,0.721547842025757,boat,chair,0.4,0616_hp_s03_0.4_chair_10_n03376595_17747.png
subject-03,1,617,1.24739980697632,cat,bird,0.7,0617_hp_s03_0.7_bird_10_n01855032_1096.png
subject-03,1,618,1.06519103050232,knife,knife,1.5,0618_hp_s03_1.5_knife_10_n03041632_55083.png
subject-03,1,619,1.13726305961609,dog,dog,1.5,0619_hp_s03_1.5_dog_10_n02099712_1825.png
subject-03,1,620,0.858808040618896,truck,cat,0.4,0620_hp_s03_0.4_cat_10_n02123045_12748.png
subject-03,1,621,0.994709014892578,elephant,elephant,1,0621_hp_s03_1_elephant_10_n02504458_6248.png
subject-03,1,622,0.91639518737793,chair,chair,0.7,0622_hp_s03_0.7_chair_10_n04099969_16512.png
subject-03,1,623,0.954265832901001,cat,oven,1,0623_hp_s03_1_oven_10_n04111531_4444.png
subject-03,1,624,0.890090942382812,car,bear,0.55,0624_hp_s03_0.55_bear_10_n02134084_14031.png
subject-03,1,625,0.742249011993408,dog,dog,inf,0625_hp_s03_inf_dog_10_n02107683_1460.png
subject-03,1,626,1.06995987892151,airplane,keyboard,0.7,0626_hp_s03_0.7_keyboard_10_n03085013_21973.png
subject-03,1,627,0.729559898376465,cat,airplane,0.45,0627_hp_s03_0.45_airplane_10_n02690373_111.png
subject-03,1,628,0.677431106567383,car,chair,0.45,0628_hp_s03_0.45_chair_10_n04099969_9891.png
subject-03,1,629,1.31955409049988,elephant,elephant,1,0629_hp_s03_1_elephant_10_n02504013_6904.png
subject-03,1,630,0.880897045135498,boat,clock,0.45,0630_hp_s03_0.45_clock_10_n03196217_2003.png
subject-03,1,631,1.01524710655212,bear,dog,0.45,0631_hp_s03_0.45_dog_10_n02106166_22138.png
subject-03,1,632,1.11474800109863,chair,chair,0.7,0632_hp_s03_0.7_chair_10_n04429376_22819.png
subject-03,1,633,1.23086500167847,chair,bottle,0.7,0633_hp_s03_0.7_bottle_10_n04579145_2196.png
subject-03,1,634,0.706159114837646,boat,knife,0.45,0634_hp_s03_0.45_knife_10_n03041632_3516.png
subject-03,1,635,0.792150020599365,oven,oven,3,0635_hp_s03_3_oven_10_n04111531_7298.png
subject-03,1,636,0.86385703086853,truck,truck,1.5,0636_hp_s03_1.5_truck_10_n04467665_38886.png
subject-03,1,637,1.3797287940979,chair,dog,1,0637_hp_s03_1_dog_10_n02088238_2234.png
subject-03,1,638,1.06155395507812,clock,bear,0.45,0638_hp_s03_0.45_bear_10_n02134418_2157.png
subject-03,1,639,0.639629125595093,cat,cat,inf,0639_hp_s03_inf_cat_10_n02124075_8754.png
subject-03,1,640,0.82497501373291,bicycle,bicycle,3,0640_hp_s03_3_bicycle_10_n03792782_6152.png
subject-03,1,641,0.920567035675049,boat,bear,0.45,0641_hp_s03_0.45_bear_10_n02134084_22801.png
subject-03,1,642,0.762480020523071,knife,knife,3,0642_hp_s03_3_knife_10_n03041632_11603.png
subject-03,1,643,0.718122005462646,oven,oven,inf,0643_hp_s03_inf_oven_10_n04111531_6454.png
subject-03,1,644,0.903770923614502,bird,bird,inf,0644_hp_s03_inf_bird_10_n01820546_6625.png
subject-03,1,645,0.633749008178711,boat,boat,1.5,0645_hp_s03_1.5_boat_10_n03344393_7659.png
subject-03,1,646,0.573503017425537,boat,truck,1,0646_hp_s03_1_truck_10_n04467665_5053.png
subject-03,1,647,1.07366919517517,airplane,oven,1.5,0647_hp_s03_1.5_oven_10_n04111531_8344.png
subject-03,1,648,1.34095096588135,oven,keyboard,0.7,0648_hp_s03_0.7_keyboard_10_n04505470_4569.png
subject-03,1,649,0.722908973693848,boat,truck,0.7,0649_hp_s03_0.7_truck_10_n04467665_22974.png
subject-03,1,650,0.8367600440979,car,car,0.7,0650_hp_s03_0.7_car_10_n02814533_62413.png
subject-03,1,651,0.84703803062439,cat,oven,3,0651_hp_s03_3_oven_10_n04111531_9342.png
subject-03,1,652,0.826341867446899,bear,airplane,0.45,0652_hp_s03_0.45_airplane_10_n02690373_18111.png
subject-03,1,653,0.73833703994751,cat,cat,1,0653_hp_s03_1_cat_10_n02123159_3454.png
subject-03,1,654,1.25593519210815,bird,bicycle,1.5,0654_hp_s03_1.5_bicycle_10_n03792782_14557.png
subject-03,1,655,1.08194518089294,airplane,elephant,0.4,0655_hp_s03_0.4_elephant_10_n02504013_1492.png
subject-03,1,656,0.865638017654419,car,car,3,0656_hp_s03_3_car_10_n04285008_12767.png
subject-03,1,657,0.915411949157715,chair,chair,1,0657_hp_s03_1_chair_10_n02791124_2689.png
subject-03,1,658,0.721126079559326,boat,clock,0.55,0658_hp_s03_0.55_clock_10_n02708093_5311.png
subject-03,1,659,0.689388036727905,clock,elephant,0.55,0659_hp_s03_0.55_elephant_10_n02504458_2618.png
subject-03,1,660,0.876895904541016,keyboard,keyboard,1.5,0660_hp_s03_1.5_keyboard_10_n03085013_2272.png
subject-03,1,661,1.30264186859131,truck,truck,inf,0661_hp_s03_inf_truck_10_n03796401_1330.png
subject-03,1,662,0.824455976486206,cat,oven,0.4,0662_hp_s03_0.4_oven_10_n04111531_9224.png
subject-03,1,663,0.822645902633667,boat,oven,0.55,0663_hp_s03_0.55_oven_10_n04111531_3082.png
subject-03,1,664,0.736093997955322,oven,bicycle,0.4,0664_hp_s03_0.4_bicycle_10_n02835271_1918.png
subject-03,1,665,1.27392101287842,airplane,airplane,1.5,0665_hp_s03_1.5_airplane_10_n02690373_787.png
subject-03,1,666,0.648087024688721,cat,cat,inf,0666_hp_s03_inf_cat_10_n02123045_8543.png
subject-03,1,667,1.10349798202515,keyboard,keyboard,1.5,0667_hp_s03_1.5_keyboard_10_n04505470_5059.png
subject-03,1,668,0.895426034927368,car,boat,0.55,0668_hp_s03_0.55_boat_10_n03344393_4349.png
subject-03,1,669,1.30525493621826,airplane,truck,0.55,0669_hp_s03_0.55_truck_10_n04467665_13645.png
subject-03,1,670,1.1148669719696,oven,oven,0.7,0670_hp_s03_0.7_oven_10_n04111531_9838.png
subject-03,1,671,1.00470209121704,airplane,airplane,inf,0671_hp_s03_inf_airplane_10_n02690373_5797.png
subject-03,1,672,1.27875399589539,cat,boat,0.45,0672_hp_s03_0.45_boat_10_n03344393_10295.png
subject-03,1,673,0.918775796890259,keyboard,oven,0.45,0673_hp_s03_0.45_oven_10_n04111531_3671.png
subject-03,1,674,0.802403926849365,boat,chair,0.4,0674_hp_s03_0.4_chair_10_n03376595_7699.png
subject-03,1,675,0.864196062088013,bicycle,bicycle,1,0675_hp_s03_1_bicycle_10_n02835271_17509.png
subject-03,1,676,1.03613591194153,knife,knife,3,0676_hp_s03_3_knife_10_n03041632_33739.png
subject-03,1,677,0.997703075408936,car,clock,0.4,0677_hp_s03_0.4_clock_10_n02708093_6717.png
subject-03,1,678,1.48145890235901,car,clock,0.55,0678_hp_s03_0.55_clock_10_n04548280_6689.png
subject-03,1,679,1.01936817169189,bear,dog,1,0679_hp_s03_1_dog_10_n02097658_3693.png
subject-03,1,680,0.895092010498047,chair,chair,1,0680_hp_s03_1_chair_10_n04099969_14028.png
subject-03,1,681,1.04299306869507,knife,knife,1,0681_hp_s03_1_knife_10_n03041632_4214.png
subject-03,1,682,0.754934072494507,boat,oven,0.55,0682_hp_s03_0.55_oven_10_n04111531_11505.png
subject-03,1,683,0.99049186706543,cat,oven,3,0683_hp_s03_3_oven_10_n04111531_13128.png
subject-03,1,684,0.726509809494019,bicycle,bicycle,inf,0684_hp_s03_inf_bicycle_10_n02835271_13793.png
subject-03,1,685,1.01814603805542,bear,oven,0.4,0685_hp_s03_0.4_oven_10_n04111531_5463.png
subject-03,1,686,0.802010059356689,clock,clock,inf,0686_hp_s03_inf_clock_10_n02708093_2043.png
subject-03,1,687,1.5000638961792,car,elephant,0.45,0687_hp_s03_0.45_elephant_10_n02504458_4137.png
subject-03,1,688,1.02197408676147,keyboard,car,0.45,0688_hp_s03_0.45_car_10_n02814533_30383.png
subject-03,1,689,1.01941394805908,car,car,0.7,0689_hp_s03_0.7_car_10_n04285008_9893.png
subject-03,1,690,1.16318988800049,truck,keyboard,0.4,0690_hp_s03_0.4_keyboard_10_n04505470_207.png
subject-03,1,691,1.1290180683136,clock,clock,1,0691_hp_s03_1_clock_10_n03196217_1850.png
subject-03,1,692,0.868821859359741,airplane,airplane,1.5,0692_hp_s03_1.5_airplane_10_n02690373_3377.png
subject-03,1,693,0.7186439037323,car,car,1.5,0693_hp_s03_1.5_car_10_n02814533_4501.png
subject-03,1,694,1.48057985305786,elephant,elephant,1.5,0694_hp_s03_1.5_elephant_10_n02504013_5192.png
subject-03,1,695,0.574437141418457,bicycle,bicycle,inf,0695_hp_s03_inf_bicycle_10_n02835271_8512.png
subject-03,1,696,0.966091871261597,car,car,1,0696_hp_s03_1_car_10_n02814533_22693.png
subject-03,1,697,1.1459629535675,oven,chair,3,0697_hp_s03_3_chair_10_n04429376_10546.png
subject-03,1,698,1.1158299446106,chair,chair,0.7,0698_hp_s03_0.7_chair_10_n02791124_5759.png
subject-03,1,699,0.859977960586548,knife,knife,inf,0699_hp_s03_inf_knife_10_n03041632_26989.png
subject-03,1,700,0.893393993377686,bird,oven,0.45,0700_hp_s03_0.45_oven_10_n04111531_7050.png
subject-03,1,701,0.915547847747803,airplane,airplane,1.5,0701_hp_s03_1.5_airplane_10_n02690373_4176.png
subject-03,1,702,1.50001311302185,clock,bottle,0.7,0702_hp_s03_0.7_bottle_10_n03983396_4990.png
subject-03,1,703,0.695153951644897,boat,bird,0.55,0703_hp_s03_0.55_bird_10_n02033041_2082.png
subject-03,1,704,1.23659610748291,bear,dog,3,0704_hp_s03_3_dog_10_n02102973_7028.png
subject-03,1,705,0.832453966140747,dog,bear,0.7,0705_hp_s03_0.7_bear_10_n02134418_962.png
subject-03,1,706,0.776240110397339,car,car,1.5,0706_hp_s03_1.5_car_10_n03100240_17028.png
subject-03,1,707,0.874189853668213,cat,dog,1,0707_hp_s03_1_dog_10_n02091134_4525.png
subject-03,1,708,1.23580098152161,keyboard,keyboard,1.5,0708_hp_s03_1.5_keyboard_10_n03085013_26556.png
subject-03,1,709,1.40775609016418,car,boat,0.4,0709_hp_s03_0.4_boat_10_n03344393_4509.png
subject-03,1,710,1.13353085517883,oven,cat,0.4,0710_hp_s03_0.4_cat_10_n02123394_2386.png
subject-03,1,711,0.791339159011841,boat,knife,0.55,0711_hp_s03_0.55_knife_10_n03041632_20217.png
subject-03,1,712,0.673091173171997,clock,clock,0.7,0712_hp_s03_0.7_clock_10_n04548280_5038.png
subject-03,1,713,1.35100102424622,elephant,elephant,1.5,0713_hp_s03_1.5_elephant_10_n02504013_4166.png
subject-03,1,714,0.662990093231201,bicycle,bicycle,inf,0714_hp_s03_inf_bicycle_10_n02835271_14914.png
subject-03,1,715,1.11841297149658,cat,bicycle,0.55,0715_hp_s03_0.55_bicycle_10_n02835271_14732.png
subject-03,1,716,1.06839489936829,bird,elephant,0.45,0716_hp_s03_0.45_elephant_10_n02504458_582.png
subject-03,1,717,0.746308088302612,oven,airplane,0.55,0717_hp_s03_0.55_airplane_10_n02690373_16986.png
subject-03,1,718,0.936271905899048,bear,oven,1,0718_hp_s03_1_oven_10_n04111531_2116.png
subject-03,1,719,0.865715026855469,boat,keyboard,0.55,0719_hp_s03_0.55_keyboard_10_n03085013_23201.png
subject-03,1,720,1.23181200027466,boat,boat,inf,0720_hp_s03_inf_boat_10_n03662601_3145.png
subject-03,1,721,0.803160905838013,bottle,bottle,3,0721_hp_s03_3_bottle_10_n04591713_4585.png
subject-03,1,722,0.71083402633667,cat,cat,1,0722_hp_s03_1_cat_10_n02125311_8496.png
subject-03,1,723,0.576870918273926,boat,bear,0.45,0723_hp_s03_0.45_bear_10_n02132136_2875.png
subject-03,1,724,0.924449920654297,oven,dog,0.55,0724_hp_s03_0.55_dog_10_n02101556_7581.png
subject-03,1,725,0.828495025634766,car,truck,0.4,0725_hp_s03_0.4_truck_10_n04467665_70880.png
subject-03,1,726,0.808177947998047,knife,knife,inf,0726_hp_s03_inf_knife_10_n03041632_48816.png
subject-03,1,727,1.40397787094116,cat,dog,0.7,0727_hp_s03_0.7_dog_10_n02100236_619.png
subject-03,1,728,0.946105003356934,oven,cat,0.45,0728_hp_s03_0.45_cat_10_n02125311_20316.png
subject-03,1,729,0.975620031356812,bird,keyboard,0.45,0729_hp_s03_0.45_keyboard_10_n03085013_22016.png
subject-03,1,730,0.68553900718689,cat,dog,0.4,0730_hp_s03_0.4_dog_10_n02106662_37555.png
subject-03,1,731,0.957146883010864,bear,clock,0.4,0731_hp_s03_0.4_clock_10_n03196217_2628.png
subject-03,1,732,0.567099094390869,cat,bottle,0.4,0732_hp_s03_0.4_bottle_10_n03983396_3047.png
subject-03,1,733,1.04298114776611,dog,knife,0.4,0733_hp_s03_0.4_knife_10_n03041632_83826.png
subject-03,1,734,0.816848039627075,oven,chair,0.4,0734_hp_s03_0.4_chair_10_n04429376_20837.png
subject-03,1,735,0.920979022979736,keyboard,keyboard,1,0735_hp_s03_1_keyboard_10_n03085013_24099.png
subject-03,1,736,0.676235914230347,cat,cat,1.5,0736_hp_s03_1.5_cat_10_n02125311_4034.png
subject-03,1,737,1.30213904380798,car,bird,0.4,0737_hp_s03_0.4_bird_10_n02002556_121.png
subject-03,1,738,1.14210891723633,boat,knife,1.5,0738_hp_s03_1.5_knife_10_n03041632_1201.png
subject-03,1,739,1.3118200302124,clock,truck,3,0739_hp_s03_3_truck_10_n03417042_3821.png
subject-03,1,740,0.981725931167603,bicycle,bicycle,0.7,0740_hp_s03_0.7_bicycle_10_n02835271_4656.png
subject-03,1,741,0.959259986877441,airplane,airplane,0.4,0741_hp_s03_0.4_airplane_10_n02690373_4964.png
subject-03,1,742,1.23318195343018,bird,bottle,0.7,0742_hp_s03_0.7_bottle_10_n04591713_7074.png
subject-03,1,743,0.73297905921936,bottle,bottle,inf,0743_hp_s03_inf_bottle_10_n03983396_4996.png
subject-03,1,744,1.24689102172852,chair,chair,3,0744_hp_s03_3_chair_10_n02791124_6654.png
subject-03,1,745,1.23863887786865,oven,bottle,0.55,0745_hp_s03_0.55_bottle_10_n03983396_1904.png
subject-03,1,746,0.948488235473633,bottle,bottle,3,0746_hp_s03_3_bottle_10_n04591713_7090.png
subject-03,1,747,0.600451946258545,bicycle,bicycle,3,0747_hp_s03_3_bicycle_10_n02835271_7311.png
subject-03,1,748,0.838361024856567,bird,car,0.45,0748_hp_s03_0.45_car_10_n02814533_72255.png
subject-03,1,749,1.2580361366272,bear,bird,0.7,0749_hp_s03_0.7_bird_10_n02013706_18409.png
subject-03,1,750,0.683868169784546,boat,boat,1,0750_hp_s03_1_boat_10_n03662601_18924.png
subject-03,1,751,0.893809080123901,bicycle,bird,1,0751_hp_s03_1_bird_10_n02017213_1150.png
subject-03,1,752,0.659279823303223,clock,clock,0.7,0752_hp_s03_0.7_clock_10_n04548280_8646.png
subject-03,1,753,1.39102602005005,clock,clock,1.5,0753_hp_s03_1.5_clock_10_n03196217_71.png
subject-03,1,754,0.943348169326782,airplane,truck,0.45,0754_hp_s03_0.45_truck_10_n04467665_21266.png
subject-03,1,755,0.955146789550781,bicycle,bicycle,1.5,0755_hp_s03_1.5_bicycle_10_n03792782_66837.png
subject-03,1,756,1.07889699935913,bear,bear,1.5,0756_hp_s03_1.5_bear_10_n02134418_875.png
subject-03,1,757,0.946455001831055,cat,cat,inf,0757_hp_s03_inf_cat_10_n02123394_2765.png
subject-03,1,758,0.9481041431427,car,knife,0.45,0758_hp_s03_0.45_knife_10_n03041632_26933.png
subject-03,1,759,0.856146812438965,cat,dog,3,0759_hp_s03_3_dog_10_n02098286_4467.png
subject-03,1,760,0.965650081634521,bird,bottle,0.45,0760_hp_s03_0.45_bottle_10_n03937543_11897.png
subject-03,1,761,0.895524024963379,car,car,1,0761_hp_s03_1_car_10_n02814533_5183.png
subject-03,1,762,0.761330127716064,bicycle,bicycle,inf,0762_hp_s03_inf_bicycle_10_n02835271_9191.png
subject-03,1,763,0.613368034362793,cat,bear,0.45,0763_hp_s03_0.45_bear_10_n02134084_3177.png
subject-03,1,764,1.02098083496094,airplane,airplane,0.7,0764_hp_s03_0.7_airplane_10_n02690373_3313.png
subject-03,1,765,0.728832960128784,boat,chair,0.45,0765_hp_s03_0.45_chair_10_n04099969_1219.png
subject-03,1,766,0.910921812057495,car,clock,0.4,0766_hp_s03_0.4_clock_10_n04548280_9867.png
subject-03,1,767,1.00289392471313,oven,airplane,0.4,0767_hp_s03_0.4_airplane_10_n02690373_4788.png
subject-03,1,768,0.848138093948364,boat,knife,1.5,0768_hp_s03_1.5_knife_10_n03041632_33075.png
subject-03,1,769,0.976421117782593,elephant,elephant,3,0769_hp_s03_3_elephant_10_n02504013_6742.png
subject-03,1,770,0.886067152023315,clock,oven,1,0770_hp_s03_1_oven_10_n04111531_5906.png
subject-03,1,771,0.589825868606567,boat,boat,1.5,0771_hp_s03_1.5_boat_10_n04273569_9803.png
subject-03,1,772,0.855947017669678,bear,chair,0.45,0772_hp_s03_0.45_chair_10_n04099969_8946.png
subject-03,1,773,0.709585905075073,boat,boat,0.7,0773_hp_s03_0.7_boat_10_n03344393_2941.png
subject-03,1,774,0.917284965515137,clock,bird,0.7,0774_hp_s03_0.7_bird_10_n02009229_6029.png
subject-03,1,775,0.77515697479248,car,dog,0.4,0775_hp_s03_0.4_dog_10_n02108551_8385.png
subject-03,1,776,1.28292393684387,bird,bird,1,0776_hp_s03_1_bird_10_n01534433_905.png
subject-03,1,777,0.951005935668945,bear,bicycle,0.45,0777_hp_s03_0.45_bicycle_10_n02835271_3570.png
subject-03,1,778,1.01261901855469,cat,cat,3,0778_hp_s03_3_cat_10_n02124075_7144.png
subject-03,1,779,0.772209882736206,clock,bird,0.45,0779_hp_s03_0.45_bird_10_n01530575_14402.png
subject-03,1,780,1.01218104362488,oven,bicycle,0.4,0780_hp_s03_0.4_bicycle_10_n03792782_19709.png
subject-03,1,781,0.62024188041687,car,chair,0.4,0781_hp_s03_0.4_chair_10_n02791124_1814.png
subject-03,1,782,0.693809986114502,bird,clock,0.45,0782_hp_s03_0.45_clock_10_n04548280_8225.png
subject-03,1,783,0.607913017272949,boat,truck,0.55,0783_hp_s03_0.55_truck_10_n03796401_21954.png
subject-03,1,784,0.727355003356934,oven,oven,3,0784_hp_s03_3_oven_10_n04111531_7955.png
subject-03,1,785,1.20716786384583,chair,chair,3,0785_hp_s03_3_chair_10_n02791124_1023.png
subject-03,1,786,0.826925992965698,boat,knife,0.55,0786_hp_s03_0.55_knife_10_n03041632_17338.png
subject-03,1,787,0.778832197189331,airplane,cat,0.4,0787_hp_s03_0.4_cat_10_n02123159_6381.png
subject-03,1,788,0.960998058319092,boat,boat,3,0788_hp_s03_3_boat_10_n03662601_34042.png
subject-03,1,789,1.04441404342651,knife,knife,inf,0789_hp_s03_inf_knife_10_n03041632_22286.png
subject-03,1,790,0.700621843338013,cat,cat,3,0790_hp_s03_3_cat_10_n02123045_1120.png
subject-03,1,791,0.958131074905396,bird,bird,1.5,0791_hp_s03_1.5_bird_10_n01558993_14305.png
subject-03,1,792,1.00395011901855,chair,chair,inf,0792_hp_s03_inf_chair_10_n02791124_8099.png
subject-03,1,793,0.927570819854736,boat,bird,0.45,0793_hp_s03_0.45_bird_10_n01796340_6191.png
subject-03,1,794,0.969482898712158,keyboard,keyboard,0.7,0794_hp_s03_0.7_keyboard_10_n04505470_3929.png
subject-03,1,795,1.05925011634827,keyboard,keyboard,0.55,0795_hp_s03_0.55_keyboard_10_n04505470_7686.png
subject-03,1,796,1.11719703674316,chair,bottle,0.7,0796_hp_s03_0.7_bottle_10_n04560804_15225.png
subject-03,1,797,0.834991931915283,bottle,bottle,1,0797_hp_s03_1_bottle_10_n02823428_8034.png
subject-03,1,798,1.20061278343201,oven,oven,3,0798_hp_s03_3_oven_10_n04111531_2066.png
subject-03,1,799,0.762521028518677,bear,bear,inf,0799_hp_s03_inf_bear_10_n02134418_3886.png
subject-03,1,800,0.990385055541992,elephant,elephant,3,0800_hp_s03_3_elephant_10_n02504013_9566.png
subject-03,1,801,1.41174697875977,truck,oven,3,0801_hp_s03_3_oven_10_n04111531_2042.png
subject-03,1,802,0.867370843887329,dog,dog,inf,0802_hp_s03_inf_dog_10_n02099601_5760.png
subject-03,1,803,0.741173982620239,chair,chair,inf,0803_hp_s03_inf_chair_10_n02791124_6999.png
subject-03,1,804,1.08709096908569,car,car,3,0804_hp_s03_3_car_10_n04285008_13104.png
subject-03,1,805,0.993287086486816,knife,knife,inf,0805_hp_s03_inf_knife_10_n03041632_40450.png
subject-03,1,806,0.928571939468384,bottle,clock,1.5,0806_hp_s03_1.5_clock_10_n03196217_10190.png
subject-03,1,807,0.724783897399902,bicycle,bicycle,1.5,0807_hp_s03_1.5_bicycle_10_n02835271_1874.png
subject-03,1,808,0.678400993347168,boat,chair,0.55,0808_hp_s03_0.55_chair_10_n04099969_18220.png
subject-03,1,809,0.854042053222656,car,car,0.4,0809_hp_s03_0.4_car_10_n03100240_20489.png
subject-03,1,810,0.795785903930664,oven,cat,0.45,0810_hp_s03_0.45_cat_10_n02125311_43276.png
subject-03,1,811,1.00977206230164,boat,airplane,0.4,0811_hp_s03_0.4_airplane_10_n02690373_7055.png
subject-03,1,812,0.621517896652222,clock,clock,3,0812_hp_s03_3_clock_10_n04548280_9816.png
subject-03,1,813,1.28519201278687,bottle,clock,1,0813_hp_s03_1_clock_10_n02708093_1291.png
subject-03,1,814,1.27917790412903,bicycle,bird,1,0814_hp_s03_1_bird_10_n02056570_9458.png
subject-03,1,815,0.835293054580688,cat,bicycle,0.45,0815_hp_s03_0.45_bicycle_10_n03792782_16034.png
subject-03,1,816,1.04469203948975,bicycle,bird,0.7,0816_hp_s03_0.7_bird_10_n02006656_1412.png
subject-03,1,817,1.50005698204041,bird,boat,0.55,0817_hp_s03_0.55_boat_10_n02951358_9884.png
subject-03,1,818,0.862334012985229,keyboard,keyboard,3,0818_hp_s03_3_keyboard_10_n03085013_20186.png
subject-03,1,819,0.762150049209595,chair,chair,inf,0819_hp_s03_inf_chair_10_n02791124_3240.png
subject-03,1,820,0.808111906051636,car,car,1.5,0820_hp_s03_1.5_car_10_n03100240_6192.png
subject-03,1,821,0.779877901077271,cat,dog,0.55,0821_hp_s03_0.55_dog_10_n02097474_2799.png
subject-03,1,822,0.637846946716309,clock,clock,0.7,0822_hp_s03_0.7_clock_10_n03196217_6217.png
subject-03,1,823,0.773355960845947,bear,cat,0.55,0823_hp_s03_0.55_cat_10_n02123394_3607.png
subject-03,1,824,1.00741696357727,car,car,1,0824_hp_s03_1_car_10_n04285008_8444.png
subject-03,1,825,0.86896014213562,chair,chair,inf,0825_hp_s03_inf_chair_10_n03376595_9926.png
subject-03,1,826,1.20695304870605,oven,chair,1,0826_hp_s03_1_chair_10_n04429376_1791.png
subject-03,1,827,0.92873215675354,keyboard,airplane,0.45,0827_hp_s03_0.45_airplane_10_n02690373_3047.png
subject-03,1,828,0.962383985519409,car,knife,0.45,0828_hp_s03_0.45_knife_10_n03041632_2184.png
subject-03,1,829,0.680414199829102,keyboard,keyboard,3,0829_hp_s03_3_keyboard_10_n03085013_5738.png
subject-03,1,830,0.750027179718018,boat,dog,0.4,0830_hp_s03_0.4_dog_10_n02085936_4391.png
subject-03,1,831,1.31417322158813,truck,oven,0.45,0831_hp_s03_0.45_oven_10_n04111531_9314.png
subject-03,1,832,1.19582295417786,elephant,elephant,inf,0832_hp_s03_inf_elephant_10_n02504013_816.png
subject-03,1,833,0.731631994247437,bear,cat,0.55,0833_hp_s03_0.55_cat_10_n02123597_1016.png
subject-03,1,834,1.22560000419617,dog,dog,3,0834_hp_s03_3_dog_10_n02093256_2633.png
subject-03,1,835,1.18919706344604,elephant,elephant,0.7,0835_hp_s03_0.7_elephant_10_n02504458_6135.png
subject-03,1,836,0.673182964324951,car,car,1.5,0836_hp_s03_1.5_car_10_n03100240_13909.png
subject-03,1,837,0.594595193862915,clock,clock,1,0837_hp_s03_1_clock_10_n04548280_3342.png
subject-03,1,838,0.856526851654053,cat,bear,0.4,0838_hp_s03_0.4_bear_10_n02133161_463.png
subject-03,1,839,0.924393892288208,airplane,airplane,1,0839_hp_s03_1_airplane_10_n02690373_9318.png
subject-03,1,840,1.04050087928772,bird,bird,3,0840_hp_s03_3_bird_10_n01819313_3440.png
subject-03,1,841,0.725970983505249,boat,elephant,0.45,0841_hp_s03_0.45_elephant_10_n02504458_1473.png
subject-03,1,842,1.27783799171448,bicycle,bottle,1.5,0842_hp_s03_1.5_bottle_10_n03983396_2091.png
subject-03,1,843,1.29969501495361,boat,boat,inf,0843_hp_s03_inf_boat_10_n02951358_4189.png
subject-03,1,844,1.16586303710938,chair,cat,0.55,0844_hp_s03_0.55_cat_10_n02124075_853.png
subject-03,1,845,0.74520206451416,boat,boat,0.7,0845_hp_s03_0.7_boat_10_n04612504_37043.png
subject-03,1,846,0.799172878265381,boat,boat,1,0846_hp_s03_1_boat_10_n04612504_31680.png
subject-03,1,847,0.906877040863037,keyboard,keyboard,1.5,0847_hp_s03_1.5_keyboard_10_n03085013_4157.png
subject-03,1,848,1.02069306373596,bird,bird,3,0848_hp_s03_3_bird_10_n01530575_3831.png
subject-03,1,849,0.956537961959839,car,bear,0.55,0849_hp_s03_0.55_bear_10_n02134084_1949.png
subject-03,1,850,0.810395956039429,airplane,airplane,inf,0850_hp_s03_inf_airplane_10_n02690373_734.png
subject-03,1,851,1.09804892539978,boat,keyboard,0.55,0851_hp_s03_0.55_keyboard_10_n03085013_6963.png
subject-03,1,852,0.753952980041504,cat,bottle,0.45,0852_hp_s03_0.45_bottle_10_n04591713_475.png
subject-03,1,853,0.607855081558228,boat,boat,inf,0853_hp_s03_inf_boat_10_n03662601_4295.png
subject-03,1,854,0.633680105209351,oven,bicycle,0.45,0854_hp_s03_0.45_bicycle_10_n03792782_19295.png
subject-03,1,855,0.783223867416382,knife,knife,1,0855_hp_s03_1_knife_10_n03041632_41077.png
subject-03,1,856,0.821063995361328,bottle,bear,0.4,0856_hp_s03_0.4_bear_10_n02133161_24490.png
subject-03,1,857,1.38499999046326,bicycle,truck,3,0857_hp_s03_3_truck_10_n03417042_3748.png
subject-03,1,858,0.853003978729248,elephant,elephant,inf,0858_hp_s03_inf_elephant_10_n02504013_648.png
subject-03,1,859,1.00464987754822,elephant,oven,0.4,0859_hp_s03_0.4_oven_10_n04111531_1330.png
subject-03,1,860,1.03659701347351,chair,airplane,3,0860_hp_s03_3_airplane_10_n02690373_3468.png
subject-03,1,861,1.0284218788147,car,elephant,0.55,0861_hp_s03_0.55_elephant_10_n02504458_7221.png
subject-03,1,862,0.712155103683472,boat,boat,1.5,0862_hp_s03_1.5_boat_10_n03344393_7631.png
subject-03,1,863,0.85198187828064,knife,knife,1,0863_hp_s03_1_knife_10_n03041632_48062.png
subject-03,1,864,0.98155689239502,dog,dog,3,0864_hp_s03_3_dog_10_n02091244_3193.png
subject-03,1,865,0.857490062713623,bear,bear,1,0865_hp_s03_1_bear_10_n02132136_11125.png
subject-03,1,866,0.991184949874878,oven,bottle,0.55,0866_hp_s03_0.55_bottle_10_n03937543_4098.png
subject-03,1,867,0.817159175872803,bottle,bottle,3,0867_hp_s03_3_bottle_10_n02823428_6830.png
subject-03,1,868,0.891198873519897,keyboard,keyboard,1,0868_hp_s03_1_keyboard_10_n03085013_24115.png
subject-03,1,869,1.06673192977905,boat,truck,0.7,0869_hp_s03_0.7_truck_10_n03417042_6467.png
subject-03,1,870,1.3325469493866,chair,knife,1.5,0870_hp_s03_1.5_knife_10_n03041632_13518.png
subject-03,1,871,0.780374050140381,clock,truck,0.4,0871_hp_s03_0.4_truck_10_n03796401_3651.png
subject-03,1,872,0.800226926803589,boat,bird,0.55,0872_hp_s03_0.55_bird_10_n01833805_6395.png
subject-03,1,873,1.49195694923401,car,dog,0.55,0873_hp_s03_0.55_dog_10_n02109525_13146.png
subject-03,1,874,0.913642883300781,airplane,airplane,0.7,0874_hp_s03_0.7_airplane_10_n02690373_194.png
subject-03,1,875,1.19547700881958,bird,bear,0.55,0875_hp_s03_0.55_bear_10_n02132136_3563.png
subject-03,1,876,0.765427112579346,car,car,3,0876_hp_s03_3_car_10_n03100240_5796.png
subject-03,1,877,1.00309205055237,car,car,1.5,0877_hp_s03_1.5_car_10_n02814533_31493.png
subject-03,1,878,1.00498485565186,dog,boat,0.4,0878_hp_s03_0.4_boat_10_n03344393_7394.png
subject-03,1,879,0.666831970214844,boat,boat,0.45,0879_hp_s03_0.45_boat_10_n03344393_381.png
subject-03,1,880,1.06664896011353,airplane,chair,0.4,0880_hp_s03_0.4_chair_10_n03376595_383.png
subject-03,1,881,0.992623805999756,cat,cat,0.45,0881_hp_s03_0.45_cat_10_n02124075_2138.png
subject-03,1,882,0.780121088027954,keyboard,keyboard,inf,0882_hp_s03_inf_keyboard_10_n03085013_20460.png
subject-03,1,883,0.561834096908569,boat,boat,inf,0883_hp_s03_inf_boat_10_n04273569_3409.png
subject-03,1,884,1.03174805641174,car,truck,0.55,0884_hp_s03_0.55_truck_10_n03417042_6517.png
subject-03,1,885,1.0254168510437,bear,bear,3,0885_hp_s03_3_bear_10_n02132136_2236.png
subject-03,1,886,1.07529497146606,bird,bottle,0.45,0886_hp_s03_0.45_bottle_10_n04591713_2581.png
subject-03,1,887,0.825105905532837,bird,bird,inf,0887_hp_s03_inf_bird_10_n01798484_518.png
subject-03,1,888,1.00692296028137,boat,bicycle,0.55,0888_hp_s03_0.55_bicycle_10_n03792782_5097.png
subject-03,1,889,0.822722911834717,boat,boat,3,0889_hp_s03_3_boat_10_n03344393_5801.png
subject-03,1,890,0.764580965042114,airplane,clock,1,0890_hp_s03_1_clock_10_n03196217_711.png
subject-03,1,891,0.954455137252808,cat,cat,3,0891_hp_s03_3_cat_10_n02125311_16544.png
subject-03,1,892,1.2442798614502,chair,cat,0.7,0892_hp_s03_0.7_cat_10_n02123597_22264.png
subject-03,1,893,0.974078893661499,airplane,airplane,1,0893_hp_s03_1_airplane_10_n02690373_4202.png
subject-03,1,894,0.890062093734741,bear,bear,1,0894_hp_s03_1_bear_10_n02132136_9184.png
subject-03,1,895,0.921570062637329,dog,dog,1.5,0895_hp_s03_1.5_dog_10_n02093256_11232.png
subject-03,1,896,0.786007881164551,airplane,airplane,1.5,0896_hp_s03_1.5_airplane_10_n02690373_8846.png
subject-03,1,897,0.763370990753174,boat,car,0.4,0897_hp_s03_0.4_car_10_n04285008_11133.png
subject-03,1,898,0.79510498046875,bicycle,bicycle,1,0898_hp_s03_1_bicycle_10_n03792782_8176.png
subject-03,1,899,0.976804971694946,bird,cat,0.45,0899_hp_s03_0.45_cat_10_n02124075_12467.png
subject-03,1,900,0.882794141769409,car,bottle,0.45,0900_hp_s03_0.45_bottle_10_n04560804_1785.png
subject-03,1,901,0.830473184585571,cat,cat,1,0901_hp_s03_1_cat_10_n02123045_2339.png
subject-03,1,902,1.09037804603577,keyboard,keyboard,1.5,0902_hp_s03_1.5_keyboard_10_n03085013_21615.png
subject-03,1,903,0.69035005569458,boat,bicycle,0.55,0903_hp_s03_0.55_bicycle_10_n03792782_4251.png
subject-03,1,904,1.0180459022522,truck,truck,0.4,0904_hp_s03_0.4_truck_10_n03796401_4423.png
subject-03,1,905,0.739917993545532,boat,boat,1.5,0905_hp_s03_1.5_boat_10_n04273569_1233.png
subject-03,1,906,0.891669034957886,bear,bear,1,0906_hp_s03_1_bear_10_n02134418_971.png
subject-03,1,907,0.965465784072876,bird,bird,0.7,0907_hp_s03_0.7_bird_10_n02009229_4667.png
subject-03,1,908,0.661160230636597,cat,cat,inf,0908_hp_s03_inf_cat_10_n02125311_1746.png
subject-03,1,909,0.903068065643311,knife,knife,inf,0909_hp_s03_inf_knife_10_n03041632_20595.png
subject-03,1,910,0.794952154159546,boat,chair,0.55,0910_hp_s03_0.55_chair_10_n04099969_34144.png
subject-03,1,911,0.894541025161743,keyboard,keyboard,inf,0911_hp_s03_inf_keyboard_10_n03085013_7962.png
subject-03,1,912,0.746526002883911,bear,bear,1.5,0912_hp_s03_1.5_bear_10_n02133161_1970.png
subject-03,1,913,1.25639390945435,car,truck,0.7,0913_hp_s03_0.7_truck_10_n03417042_4292.png
subject-03,1,914,0.684144973754883,oven,bicycle,0.4,0914_hp_s03_0.4_bicycle_10_n02835271_12599.png
subject-03,1,915,0.811976194381714,bird,bird,1,0915_hp_s03_1_bird_10_n02027492_4897.png
subject-03,1,916,0.797777891159058,car,bottle,0.7,0916_hp_s03_0.7_bottle_10_n04557648_3775.png
subject-03,1,917,0.841551065444946,knife,knife,1.5,0917_hp_s03_1.5_knife_10_n03041632_50332.png
subject-03,1,918,1.16150403022766,keyboard,keyboard,inf,0918_hp_s03_inf_keyboard_10_n04505470_4685.png
subject-03,1,919,1.0373969078064,elephant,elephant,1.5,0919_hp_s03_1.5_elephant_10_n02504013_4560.png
subject-03,1,920,0.746947050094604,keyboard,keyboard,3,0920_hp_s03_3_keyboard_10_n03085013_19401.png
subject-03,1,921,1.2226619720459,oven,bear,1,0921_hp_s03_1_bear_10_n02134418_3464.png
subject-03,1,922,0.66853404045105,clock,clock,3,0922_hp_s03_3_clock_10_n04548280_6919.png
subject-03,1,923,0.89653205871582,bicycle,bicycle,3,0923_hp_s03_3_bicycle_10_n03792782_19985.png
subject-03,1,924,0.880334854125977,car,bottle,0.55,0924_hp_s03_0.55_bottle_10_n02823428_1078.png
subject-03,1,925,1.50008392333984,elephant,bird,0.7,0925_hp_s03_0.7_bird_10_n02009229_851.png
subject-03,1,926,0.648165941238403,clock,clock,1.5,0926_hp_s03_1.5_clock_10_n03196217_7918.png
subject-03,1,927,0.821721792221069,bicycle,bicycle,inf,0927_hp_s03_inf_bicycle_10_n03792782_16179.png
subject-03,1,928,0.871526956558228,truck,truck,0.7,0928_hp_s03_0.7_truck_10_n03417042_9693.png
subject-03,1,929,0.807315111160278,bear,bear,inf,0929_hp_s03_inf_bear_10_n02134084_6910.png
subject-03,1,930,0.995007038116455,bottle,knife,0.55,0930_hp_s03_0.55_knife_10_n03041632_13203.png
subject-03,1,931,1.09701704978943,bottle,truck,0.55,0931_hp_s03_0.55_truck_10_n03417042_5600.png
subject-03,1,932,0.900591135025024,clock,clock,1.5,0932_hp_s03_1.5_clock_10_n02708093_6591.png
subject-03,1,933,0.794455051422119,bird,airplane,0.4,0933_hp_s03_0.4_airplane_10_n02690373_20042.png
subject-03,1,934,1.34439206123352,clock,cat,0.7,0934_hp_s03_0.7_cat_10_n02123597_3822.png
subject-03,1,935,0.61260199546814,cat,clock,0.45,0935_hp_s03_0.45_clock_10_n02708093_1495.png
subject-03,1,936,0.67209792137146,boat,boat,1.5,0936_hp_s03_1.5_boat_10_n03662601_10240.png
subject-03,1,937,1.33994698524475,bottle,bottle,inf,0937_hp_s03_inf_bottle_10_n04591713_5563.png
subject-03,1,938,0.760051965713501,cat,cat,1.5,0938_hp_s03_1.5_cat_10_n02123045_7154.png
subject-03,1,939,1.06735301017761,bird,bird,1,0939_hp_s03_1_bird_10_n01558993_12930.png
subject-03,1,940,0.847127914428711,bird,bird,3,0940_hp_s03_3_bird_10_n01828970_15425.png
subject-03,1,941,0.603097915649414,boat,boat,3,0941_hp_s03_3_boat_10_n03344393_1987.png
subject-03,1,942,0.814996957778931,elephant,elephant,1,0942_hp_s03_1_elephant_10_n02504458_2928.png
subject-03,1,943,0.738671064376831,oven,oven,1.5,0943_hp_s03_1.5_oven_10_n04111531_8046.png
subject-03,1,944,0.858515024185181,truck,clock,0.4,0944_hp_s03_0.4_clock_10_n02708093_2025.png
subject-03,1,945,0.726569175720215,cat,cat,3,0945_hp_s03_3_cat_10_n02124075_5631.png
subject-03,1,946,1.00197577476501,car,car,inf,0946_hp_s03_inf_car_10_n04285008_8921.png
subject-03,1,947,0.823917865753174,bicycle,bicycle,0.55,0947_hp_s03_0.55_bicycle_10_n03792782_9412.png
subject-03,1,948,0.975908041000366,bottle,bottle,1.5,0948_hp_s03_1.5_bottle_10_n04560804_13232.png
subject-03,1,949,1.28170680999756,bicycle,knife,0.7,0949_hp_s03_0.7_knife_10_n03041632_28710.png
subject-03,1,950,0.905325889587402,airplane,bear,0.4,0950_hp_s03_0.4_bear_10_n02133161_10325.png
subject-03,1,951,0.75511908531189,oven,bear,inf,0951_hp_s03_inf_bear_10_n02134084_14888.png
subject-03,1,952,0.934855937957764,boat,oven,1,0952_hp_s03_1_oven_10_n04111531_21232.png
subject-03,1,953,1.24289703369141,knife,chair,0.45,0953_hp_s03_0.45_chair_10_n03376595_14970.png
subject-03,1,954,1.01065015792847,keyboard,bottle,3,0954_hp_s03_3_bottle_10_n04591713_4380.png
subject-03,1,955,0.802442073822021,car,clock,0.45,0955_hp_s03_0.45_clock_10_n04548280_4713.png
subject-03,1,956,0.704332113265991,cat,cat,1.5,0956_hp_s03_1.5_cat_10_n02124075_14965.png
subject-03,1,957,0.758039951324463,bird,boat,0.55,0957_hp_s03_0.55_boat_10_n03344393_4502.png
subject-03,1,958,0.738160133361816,dog,dog,0.4,0958_hp_s03_0.4_dog_10_n02090721_5305.png
subject-03,1,959,0.79193902015686,keyboard,keyboard,3,0959_hp_s03_3_keyboard_10_n03085013_21914.png
subject-03,1,960,0.885551929473877,car,keyboard,0.55,0960_hp_s03_0.55_keyboard_10_n03085013_24156.png
subject-03,1,961,0.687166929244995,cat,truck,0.45,0961_hp_s03_0.45_truck_10_n04467665_64540.png
subject-03,1,962,0.74542498588562,oven,oven,0.7,0962_hp_s03_0.7_oven_10_n04111531_8688.png
subject-03,1,963,0.752912998199463,elephant,elephant,3,0963_hp_s03_3_elephant_10_n02504458_2685.png
subject-03,1,964,0.9427649974823,bear,bear,3,0964_hp_s03_3_bear_10_n02132136_15681.png
subject-03,1,965,0.918606042861938,bird,boat,0.45,0965_hp_s03_0.45_boat_10_n03662601_14982.png
subject-03,1,966,0.824234008789062,car,dog,0.45,0966_hp_s03_0.45_dog_10_n02099712_1184.png
subject-03,1,967,0.940024137496948,truck,bird,0.4,0967_hp_s03_0.4_bird_10_n01828970_454.png
subject-03,1,968,0.829947948455811,boat,elephant,0.45,0968_hp_s03_0.45_elephant_10_n02504458_9094.png
subject-03,1,969,0.793819189071655,clock,clock,1,0969_hp_s03_1_clock_10_n04548280_3013.png
subject-03,1,970,0.835549116134644,oven,keyboard,0.55,0970_hp_s03_0.55_keyboard_10_n03085013_10035.png
subject-03,1,971,0.917516946792603,car,boat,0.45,0971_hp_s03_0.45_boat_10_n04612504_4581.png
subject-03,1,972,0.89359712600708,airplane,airplane,3,0972_hp_s03_3_airplane_10_n02690373_7496.png
subject-03,1,973,1.00525188446045,truck,truck,1.5,0973_hp_s03_1.5_truck_10_n04467665_67315.png
subject-03,1,974,0.740725994110107,elephant,elephant,3,0974_hp_s03_3_elephant_10_n02504458_1617.png
subject-03,1,975,0.750491857528687,boat,knife,0.45,0975_hp_s03_0.45_knife_10_n03041632_6708.png
subject-03,1,976,0.666368007659912,cat,bird,0.4,0976_hp_s03_0.4_bird_10_n02011460_19684.png
subject-03,1,977,1.03819298744202,car,bear,0.55,0977_hp_s03_0.55_bear_10_n02133161_489.png
subject-03,1,978,0.726163864135742,chair,chair,1,0978_hp_s03_1_chair_10_n04099969_1040.png
subject-03,1,979,0.983879804611206,oven,boat,1,0979_hp_s03_1_boat_10_n03662601_34676.png
subject-03,1,980,1.21404600143433,bottle,knife,3,0980_hp_s03_3_knife_10_n03041632_18468.png
subject-03,1,981,0.705596923828125,bicycle,bicycle,1.5,0981_hp_s03_1.5_bicycle_10_n02835271_8549.png
subject-03,1,982,1.09927296638489,bear,bear,0.7,0982_hp_s03_0.7_bear_10_n02132136_2279.png
subject-03,1,983,0.687479972839355,cat,cat,0.55,0983_hp_s03_0.55_cat_10_n02125311_15099.png
subject-03,1,984,0.86687707901001,car,boat,0.55,0984_hp_s03_0.55_boat_10_n03662601_1541.png
subject-03,1,985,0.742707014083862,bird,bird,3,0985_hp_s03_3_bird_10_n01560419_1738.png
subject-03,1,986,0.994647979736328,oven,dog,0.4,0986_hp_s03_0.4_dog_10_n02108000_7066.png
subject-03,1,987,0.58253002166748,boat,keyboard,0.4,0987_hp_s03_0.4_keyboard_10_n03085013_23005.png
subject-03,1,988,1.0523521900177,oven,chair,1.5,0988_hp_s03_1.5_chair_10_n04429376_55898.png
subject-03,1,989,0.794027090072632,truck,car,0.45,0989_hp_s03_0.45_car_10_n04285008_3911.png
subject-03,1,990,1.0198221206665,elephant,cat,1.5,0990_hp_s03_1.5_cat_10_n02123597_7071.png
subject-03,1,991,0.757508993148804,clock,clock,1.5,0991_hp_s03_1.5_clock_10_n04548280_3198.png
subject-03,1,992,0.8955078125,car,truck,0.45,0992_hp_s03_0.45_truck_10_n04467665_36855.png
subject-03,1,993,0.753268003463745,cat,cat,3,0993_hp_s03_3_cat_10_n02124075_4413.png
subject-03,1,994,0.991020917892456,bottle,bottle,3,0994_hp_s03_3_bottle_10_n04591713_17618.png
subject-03,1,995,1.02092599868774,chair,chair,1,0995_hp_s03_1_chair_10_n04429376_2349.png
subject-03,1,996,0.828773975372314,truck,truck,inf,0996_hp_s03_inf_truck_10_n03417042_5257.png
subject-03,1,997,0.680591106414795,cat,cat,1.5,0997_hp_s03_1.5_cat_10_n02123045_12040.png
subject-03,1,998,0.850425958633423,oven,oven,3,0998_hp_s03_3_oven_10_n04111531_4421.png
subject-03,1,999,0.886293172836304,truck,oven,0.45,0999_hp_s03_0.45_oven_10_n04111531_3348.png
subject-03,1,1000,0.905874013900757,keyboard,keyboard,0.7,1000_hp_s03_0.7_keyboard_10_n03085013_22067.png
subject-03,1,1001,1.09186697006226,boat,keyboard,0.7,1001_hp_s03_0.7_keyboard_10_n03085013_25800.png
subject-03,1,1002,1.39795994758606,bird,oven,0.45,1002_hp_s03_0.45_oven_10_n04111531_4346.png
subject-03,1,1003,0.719641208648682,bottle,dog,1,1003_hp_s03_1_dog_10_n02086240_3572.png
subject-03,1,1004,1.50010418891907,truck,truck,inf,1004_hp_s03_inf_truck_10_n04467665_83611.png
subject-03,1,1005,0.908921957015991,keyboard,car,0.4,1005_hp_s03_0.4_car_10_n02814533_87793.png
subject-03,1,1006,1.04895687103271,boat,truck,0.45,1006_hp_s03_0.45_truck_10_n03417042_2315.png
subject-03,1,1007,0.720718860626221,cat,bear,1,1007_hp_s03_1_bear_10_n02132136_1141.png
subject-03,1,1008,1.14662885665894,car,car,3,1008_hp_s03_3_car_10_n03100240_11417.png
subject-03,1,1009,1.16213512420654,boat,dog,0.55,1009_hp_s03_0.55_dog_10_n02100877_1902.png
subject-03,1,1010,1.02833318710327,truck,truck,3,1010_hp_s03_3_truck_10_n03417042_212.png
subject-03,1,1011,1.41396689414978,bottle,airplane,1,1011_hp_s03_1_airplane_10_n02690373_1167.png
subject-03,1,1012,1.26392698287964,car,keyboard,0.7,1012_hp_s03_0.7_keyboard_10_n03085013_20805.png
subject-03,1,1013,0.913597106933594,car,car,inf,1013_hp_s03_inf_car_10_n03100240_8907.png
subject-03,1,1014,0.699388980865479,bear,bear,inf,1014_hp_s03_inf_bear_10_n02133161_8471.png
subject-03,1,1015,1.26363301277161,bicycle,knife,0.7,1015_hp_s03_0.7_knife_10_n03041632_91582.png
subject-03,1,1016,1.03317093849182,dog,dog,1,1016_hp_s03_1_dog_10_n02102177_5770.png
subject-03,1,1017,1.00278091430664,car,bird,0.45,1017_hp_s03_0.45_bird_10_n01795545_3992.png
subject-03,1,1018,0.666433095932007,oven,bottle,0.4,1018_hp_s03_0.4_bottle_10_n04557648_1107.png
subject-03,1,1019,0.794363975524902,car,car,1.5,1019_hp_s03_1.5_car_10_n04285008_15271.png
subject-03,1,1020,1.03613805770874,cat,bird,3,1020_hp_s03_3_bird_10_n01514859_8585.png
subject-03,1,1021,0.981933832168579,bear,oven,0.4,1021_hp_s03_0.4_oven_10_n04111531_5927.png
subject-03,1,1022,0.707741975784302,dog,dog,inf,1022_hp_s03_inf_dog_10_n02102040_1100.png
subject-03,1,1023,0.7619948387146,cat,cat,1,1023_hp_s03_1_cat_10_n02123159_2107.png
subject-03,1,1024,0.917414903640747,car,elephant,0.7,1024_hp_s03_0.7_elephant_10_n02504013_18005.png
subject-03,1,1025,0.993232011795044,bicycle,bicycle,1,1025_hp_s03_1_bicycle_10_n03792782_18496.png
subject-03,1,1026,0.951133966445923,bear,bear,3,1026_hp_s03_3_bear_10_n02134418_3723.png
subject-03,1,1027,1.05280780792236,bird,bottle,0.55,1027_hp_s03_0.55_bottle_10_n03983396_11597.png
subject-03,1,1028,1.14665079116821,car,airplane,1,1028_hp_s03_1_airplane_10_n02690373_20350.png
subject-03,1,1029,0.764401912689209,keyboard,keyboard,0.4,1029_hp_s03_0.4_keyboard_10_n03085013_19407.png
subject-03,1,1030,0.670194864273071,bicycle,bicycle,1,1030_hp_s03_1_bicycle_10_n03792782_4559.png
subject-03,1,1031,0.970345973968506,dog,dog,1.5,1031_hp_s03_1.5_dog_10_n02099601_2805.png
subject-03,1,1032,0.705906867980957,car,car,1,1032_hp_s03_1_car_10_n03100240_6059.png
subject-03,1,1033,1.26182198524475,keyboard,knife,0.7,1033_hp_s03_0.7_knife_10_n03041632_5727.png
subject-03,1,1034,0.639667987823486,bicycle,bicycle,3,1034_hp_s03_3_bicycle_10_n02835271_6919.png
subject-03,1,1035,0.685258150100708,oven,oven,inf,1035_hp_s03_inf_oven_10_n04111531_2447.png
subject-03,1,1036,0.831105947494507,car,airplane,0.45,1036_hp_s03_0.45_airplane_10_n02690373_8204.png
subject-03,1,1037,0.861422061920166,car,truck,0.45,1037_hp_s03_0.45_truck_10_n03417042_4188.png
subject-03,1,1038,1.50017189979553,truck,chair,3,1038_hp_s03_3_chair_10_n04429376_7279.png
subject-03,1,1039,0.722660064697266,keyboard,keyboard,3,1039_hp_s03_3_keyboard_10_n03085013_23776.png
subject-03,1,1040,0.98840594291687,cat,dog,1.5,1040_hp_s03_1.5_dog_10_n02092339_2197.png
subject-03,1,1041,1.27245903015137,knife,elephant,3,1041_hp_s03_3_elephant_10_n02504458_3399.png
subject-03,1,1042,1.18395113945007,cat,bird,1.5,1042_hp_s03_1.5_bird_10_n01818515_42621.png
subject-03,1,1043,0.816025972366333,bear,bear,3,1043_hp_s03_3_bear_10_n02134084_2970.png
subject-03,1,1044,1.11142086982727,bird,oven,0.55,1044_hp_s03_0.55_oven_10_n04111531_190.png
subject-03,1,1045,1.01962113380432,car,bird,0.7,1045_hp_s03_0.7_bird_10_n01796340_5262.png
subject-03,1,1046,1.08904886245728,car,knife,0.45,1046_hp_s03_0.45_knife_10_n03041632_32004.png
subject-03,1,1047,1.17106604576111,bird,bird,3,1047_hp_s03_3_bird_10_n02028035_521.png
subject-03,1,1048,0.879170179367065,keyboard,bicycle,0.45,1048_hp_s03_0.45_bicycle_10_n02835271_672.png
subject-03,1,1049,0.942713975906372,bicycle,bicycle,0.7,1049_hp_s03_0.7_bicycle_10_n02835271_20175.png
subject-03,1,1050,0.916159152984619,boat,bicycle,0.45,1050_hp_s03_0.45_bicycle_10_n03792782_67327.png
subject-03,1,1051,0.990149974822998,cat,boat,0.45,1051_hp_s03_0.45_boat_10_n03344393_4827.png
subject-03,1,1052,0.601913928985596,oven,clock,0.4,1052_hp_s03_0.4_clock_10_n04548280_1126.png
subject-03,1,1053,0.861954927444458,airplane,airplane,3,1053_hp_s03_3_airplane_10_n02690373_3860.png
subject-03,1,1054,0.905740022659302,bird,elephant,0.7,1054_hp_s03_0.7_elephant_10_n02504458_5308.png
subject-03,1,1055,1.15745496749878,knife,knife,3,1055_hp_s03_3_knife_10_n03041632_41493.png
subject-03,1,1056,0.797195911407471,car,elephant,0.55,1056_hp_s03_0.55_elephant_10_n02504013_933.png
subject-03,1,1057,0.710922002792358,cat,bottle,0.45,1057_hp_s03_0.45_bottle_10_n04591713_807.png
subject-03,1,1058,1.03877806663513,cat,dog,1.5,1058_hp_s03_1.5_dog_10_n02097474_9488.png
subject-03,1,1059,1.22466206550598,elephant,keyboard,0.4,1059_hp_s03_0.4_keyboard_10_n03085013_2362.png
subject-03,1,1060,0.850401878356934,airplane,airplane,1,1060_hp_s03_1_airplane_10_n02690373_3435.png
subject-03,1,1061,1.04037404060364,car,elephant,0.55,1061_hp_s03_0.55_elephant_10_n02504013_7422.png
subject-03,1,1062,1.0462601184845,truck,boat,0.45,1062_hp_s03_0.45_boat_10_n03344393_11788.png
subject-03,1,1063,1.18578004837036,bottle,bottle,1.5,1063_hp_s03_1.5_bottle_10_n03983396_12916.png
