subj,Session,trial,rt,object_response,category,condition,imagename
subject-01,1,1,1.33161187171936,clock,boat,0.7,0001_hp_s01_0.7_boat_10_n03662601_12531.png
subject-01,1,2,1.31354904174805,cat,chair,0.7,0002_hp_s01_0.7_chair_10_n04429376_22819.png
subject-01,1,3,1.48744010925293,clock,elephant,0.45,0003_hp_s01_0.45_elephant_10_n02504458_582.png
subject-01,1,4,1.27708792686462,cat,bicycle,0.7,0004_hp_s01_0.7_bicycle_10_n03792782_41173.png
subject-01,1,5,1.22888779640198,dog,cat,1.5,0005_hp_s01_1.5_cat_10_n02123597_7071.png
subject-01,1,6,1.13466596603394,elephant,cat,0.4,0006_hp_s01_0.4_cat_10_n02123394_2386.png
subject-01,1,7,0.784698009490967,oven,oven,inf,0007_hp_s01_inf_oven_10_n04111531_2201.png
subject-01,1,8,1.05839705467224,clock,cat,0.45,0008_hp_s01_0.45_cat_10_n02125311_43276.png
subject-01,1,9,1.37825107574463,cat,dog,0.45,0009_hp_s01_0.45_dog_10_n02111500_2439.png
subject-01,1,10,1.37640190124512,elephant,bicycle,0.4,0010_hp_s01_0.4_bicycle_10_n02835271_12599.png
subject-01,1,11,0.813792943954468,bear,dog,0.45,0011_hp_s01_0.45_dog_10_n02096585_391.png
subject-01,1,12,0.821681022644043,car,car,0.7,0012_hp_s01_0.7_car_10_n04285008_12138.png
subject-01,1,13,1.14953589439392,oven,car,0.7,0013_hp_s01_0.7_car_10_n02814533_44083.png
subject-01,1,14,0.877212047576904,oven,oven,inf,0014_hp_s01_inf_oven_10_n04111531_2447.png
subject-01,1,15,1.03508806228638,cat,chair,0.55,0015_hp_s01_0.55_chair_10_n03376595_9524.png
subject-01,1,16,1.16496801376343,knife,elephant,0.55,0016_hp_s01_0.55_elephant_10_n02504458_3092.png
subject-01,1,17,0.900614976882935,boat,truck,0.4,0017_hp_s01_0.4_truck_10_n04467665_42126.png
subject-01,1,18,0.828555107116699,elephant,elephant,inf,0018_hp_s01_inf_elephant_10_n02504458_12303.png
subject-01,1,19,1.35020279884338,airplane,clock,0.4,0019_hp_s01_0.4_clock_10_n04548280_7243.png
subject-01,1,20,0.934334993362427,clock,airplane,0.4,0020_hp_s01_0.4_airplane_10_n02690373_6978.png
subject-01,1,21,0.658405065536499,boat,boat,3,0021_hp_s01_3_boat_10_n04612504_4773.png
subject-01,1,22,0.915749073028564,bottle,bottle,inf,0022_hp_s01_inf_bottle_10_n04560804_5979.png
subject-01,1,23,1.04974389076233,airplane,airplane,3,0023_hp_s01_3_airplane_10_n02690373_21922.png
subject-01,1,24,0.729462862014771,clock,bird,0.4,0024_hp_s01_0.4_bird_10_n01820546_6431.png
subject-01,1,25,0.947345972061157,bird,bird,inf,0025_hp_s01_inf_bird_10_n01795545_9555.png
subject-01,1,26,0.866863965988159,truck,truck,3,0026_hp_s01_3_truck_10_n04467665_45796.png
subject-01,1,27,0.852933168411255,oven,oven,1,0027_hp_s01_1_oven_10_n04111531_5906.png
subject-01,1,28,1.05255794525146,bear,bicycle,0.45,0028_hp_s01_0.45_bicycle_10_n03792782_6133.png
subject-01,1,29,1.1404139995575,boat,keyboard,1,0029_hp_s01_1_keyboard_10_n04505470_4741.png
subject-01,1,30,0.788296222686768,car,car,1.5,0030_hp_s01_1.5_car_10_n02814533_5085.png
subject-01,1,31,0.920476913452148,bicycle,chair,0.4,0031_hp_s01_0.4_chair_10_n04429376_10628.png
subject-01,1,32,1.18394780158997,knife,clock,0.55,0032_hp_s01_0.55_clock_10_n02708093_5311.png
subject-01,1,33,1.10565710067749,truck,chair,0.55,0033_hp_s01_0.55_chair_10_n03376595_10460.png
subject-01,1,34,1.40351319313049,bear,bear,3,0034_hp_s01_3_bear_10_n02133161_1118.png
subject-01,1,35,1.32548308372498,knife,knife,3,0035_hp_s01_3_knife_10_n03041632_11603.png
subject-01,1,36,1.01510906219482,bicycle,dog,0.4,0036_hp_s01_0.4_dog_10_n02108422_7493.png
subject-01,1,37,0.64508581161499,keyboard,keyboard,3,0037_hp_s01_3_keyboard_10_n04505470_550.png
subject-01,1,38,1.09674000740051,chair,dog,1.5,0038_hp_s01_1.5_dog_10_n02097047_1003.png
subject-01,1,39,0.876855850219727,cat,bird,1.5,0039_hp_s01_1.5_bird_10_n01616318_9819.png
subject-01,1,40,0.694605112075806,bird,cat,0.55,0040_hp_s01_0.55_cat_10_n02123597_1016.png
subject-01,1,41,1.29237604141235,elephant,bear,1,0041_hp_s01_1_bear_10_n02134418_971.png
subject-01,1,42,1.09394502639771,bear,bear,0.7,0042_hp_s01_0.7_bear_10_n02132136_10944.png
subject-01,1,43,1.42183995246887,bicycle,elephant,1,0043_hp_s01_1_elephant_10_n02504458_4439.png
subject-01,1,44,0.907504081726074,clock,keyboard,0.4,0044_hp_s01_0.4_keyboard_10_n03085013_2362.png
subject-01,1,45,0.843537092208862,bear,dog,1.5,0045_hp_s01_1.5_dog_10_n02097474_9488.png
subject-01,1,46,0.609333038330078,clock,clock,inf,0046_hp_s01_inf_clock_10_n04548280_3308.png
subject-01,1,47,0.721056938171387,bear,bear,1.5,0047_hp_s01_1.5_bear_10_n02133161_334.png
subject-01,1,48,1.00894284248352,bicycle,knife,0.45,0048_hp_s01_0.45_knife_10_n03041632_6708.png
subject-01,1,49,0.936664819717407,car,car,0.55,0049_hp_s01_0.55_car_10_n02814533_81092.png
subject-01,1,50,0.790495872497559,truck,bottle,0.45,0050_hp_s01_0.45_bottle_10_n03937543_11897.png
subject-01,1,51,0.836272001266479,airplane,airplane,3,0051_hp_s01_3_airplane_10_n02690373_4429.png
subject-01,1,52,0.968047142028809,bicycle,knife,0.4,0052_hp_s01_0.4_knife_10_n03041632_22964.png
subject-01,1,53,1.46793103218079,bottle,knife,1.5,0053_hp_s01_1.5_knife_10_n03041632_33075.png
subject-01,1,54,1.1537139415741,car,bird,0.7,0054_hp_s01_0.7_bird_10_n02006656_1412.png
subject-01,1,55,0.529587030410767,clock,clock,1,0055_hp_s01_1_clock_10_n02708093_3173.png
subject-01,1,56,0.857502937316895,bear,keyboard,0.45,0056_hp_s01_0.45_keyboard_10_n03085013_22016.png
subject-01,1,57,0.469176054000854,boat,elephant,0.55,0057_hp_s01_0.55_elephant_10_n02504458_11214.png
subject-01,1,58,0.965159893035889,bicycle,chair,0.7,0058_hp_s01_0.7_chair_10_n04099969_13775.png
subject-01,1,59,0.762722969055176,truck,bicycle,0.4,0059_hp_s01_0.4_bicycle_10_n02835271_8098.png
subject-01,1,60,0.447094202041626,oven,clock,0.4,0060_hp_s01_0.4_clock_10_n04548280_1126.png
subject-01,1,61,0.57685399055481,cat,bicycle,0.45,0061_hp_s01_0.45_bicycle_10_n02835271_2050.png
subject-01,1,62,0.694178104400635,boat,oven,1,0062_hp_s01_1_oven_10_n04111531_891.png
subject-01,1,63,1.4922149181366,keyboard,bottle,0.7,0063_hp_s01_0.7_bottle_10_n02823428_6201.png
subject-01,1,64,0.907884120941162,bottle,bicycle,0.7,0064_hp_s01_0.7_bicycle_10_n02835271_20175.png
subject-01,1,65,0.875595092773438,cat,cat,3,0065_hp_s01_3_cat_10_n02123597_13175.png
subject-01,1,66,0.805455923080444,car,dog,0.4,0066_hp_s01_0.4_dog_10_n02085936_4391.png
subject-01,1,67,0.679321050643921,airplane,airplane,1.5,0067_hp_s01_1.5_airplane_10_n02690373_8846.png
subject-01,1,68,0.993043899536133,dog,cat,1.5,0068_hp_s01_1.5_cat_10_n02123597_10301.png
subject-01,1,69,1.03490209579468,car,elephant,0.7,0069_hp_s01_0.7_elephant_10_n02504458_6135.png
subject-01,1,70,0.72870922088623,bicycle,keyboard,0.45,0070_hp_s01_0.45_keyboard_10_n03085013_22585.png
subject-01,1,71,0.834434986114502,bear,bird,1,0071_hp_s01_1_bird_10_n02017213_1150.png
subject-01,1,72,1.17041087150574,bottle,bottle,3,0072_hp_s01_3_bottle_10_n04560804_30885.png
subject-01,1,73,0.682253837585449,bicycle,bicycle,inf,0073_hp_s01_inf_bicycle_10_n02835271_9191.png
subject-01,1,74,0.969993829727173,oven,truck,inf,0074_hp_s01_inf_truck_10_n03796401_7699.png
subject-01,1,75,0.839849948883057,knife,knife,1.5,0075_hp_s01_1.5_knife_10_n03041632_50332.png
subject-01,1,76,0.647603988647461,boat,knife,0.55,0076_hp_s01_0.55_knife_10_n03041632_36247.png
subject-01,1,77,0.793586015701294,cat,knife,1.5,0077_hp_s01_1.5_knife_10_n03041632_23667.png
subject-01,1,78,1.3635630607605,dog,dog,3,0078_hp_s01_3_dog_10_n02102973_7028.png
subject-01,1,79,0.801182985305786,boat,oven,0.55,0079_hp_s01_0.55_oven_10_n04111531_9867.png
subject-01,1,80,1.1648268699646,car,car,0.55,0080_hp_s01_0.55_car_10_n02814533_8121.png
subject-01,1,81,0.742288827896118,boat,boat,0.55,0081_hp_s01_0.55_boat_10_n03662601_5210.png
subject-01,1,82,0.554098129272461,car,car,1.5,0082_hp_s01_1.5_car_10_n03100240_6192.png
subject-01,1,83,0.841916084289551,airplane,oven,0.45,0083_hp_s01_0.45_oven_10_n04111531_9314.png
subject-01,1,84,0.61397910118103,oven,cat,0.4,0084_hp_s01_0.4_cat_10_n02123045_5189.png
subject-01,1,85,0.973520040512085,clock,truck,0.7,0085_hp_s01_0.7_truck_10_n04467665_30189.png
subject-01,1,86,0.743441104888916,airplane,airplane,1.5,0086_hp_s01_1.5_airplane_10_n02690373_3377.png
subject-01,1,87,0.6231849193573,clock,oven,0.4,0087_hp_s01_0.4_oven_10_n04111531_1750.png
subject-01,1,88,1.32706689834595,knife,dog,inf,0088_hp_s01_inf_dog_10_n02097047_2877.png
subject-01,1,89,0.64492392539978,cat,cat,inf,0089_hp_s01_inf_cat_10_n02124075_15171.png
subject-01,1,90,0.718625068664551,boat,car,0.4,0090_hp_s01_0.4_car_10_n03100240_23060.png
subject-01,1,91,1.17059683799744,bottle,knife,inf,0091_hp_s01_inf_knife_10_n03041632_20595.png
subject-01,1,92,1.01423907279968,bear,knife,0.45,0092_hp_s01_0.45_knife_10_n03041632_2184.png
subject-01,1,93,0.782478094100952,car,knife,0.4,0093_hp_s01_0.4_knife_10_n03041632_42162.png
subject-01,1,94,0.843881130218506,clock,elephant,1,0094_hp_s01_1_elephant_10_n02504458_3535.png
subject-01,1,95,0.791938066482544,bird,bird,inf,0095_hp_s01_inf_bird_10_n02056570_11311.png
subject-01,1,96,0.963698148727417,bicycle,chair,0.4,0096_hp_s01_0.4_chair_10_n03376595_4121.png
subject-01,1,97,1.50003504753113,dog,dog,1,0097_hp_s01_1_dog_10_n02086240_3572.png
subject-01,1,98,0.675018072128296,elephant,elephant,inf,0098_hp_s01_inf_elephant_10_n02504013_4523.png
subject-01,1,99,0.816980838775635,keyboard,chair,inf,0099_hp_s01_inf_chair_10_n04429376_7902.png
subject-01,1,100,0.890610218048096,truck,bird,0.45,0100_hp_s01_0.45_bird_10_n01530575_14402.png
subject-01,1,101,0.716495990753174,bear,bottle,0.55,0101_hp_s01_0.55_bottle_10_n02823428_11140.png
subject-01,1,102,0.716439008712769,car,airplane,0.55,0102_hp_s01_0.55_airplane_10_n02690373_7685.png
subject-01,1,103,1.02811717987061,oven,boat,0.45,0103_hp_s01_0.45_boat_10_n03344393_4827.png
subject-01,1,104,1.15188407897949,dog,dog,0.7,0104_hp_s01_0.7_dog_10_n02088364_8674.png
subject-01,1,105,0.814188957214355,bicycle,knife,0.45,0105_hp_s01_0.45_knife_10_n03041632_32004.png
subject-01,1,106,0.697723150253296,keyboard,keyboard,3,0106_hp_s01_3_keyboard_10_n03085013_22949.png
subject-01,1,107,NaN,na,knife,0.7,0107_hp_s01_0.7_knife_10_n03041632_4044.png
subject-01,1,108,0.653311967849731,airplane,airplane,1.5,0108_hp_s01_1.5_airplane_10_n02690373_6455.png
subject-01,1,109,0.635177850723267,car,airplane,0.55,0109_hp_s01_0.55_airplane_10_n02690373_19646.png
subject-01,1,110,0.518861055374146,boat,boat,inf,0110_hp_s01_inf_boat_10_n04612504_1692.png
subject-01,1,111,0.684585809707642,truck,cat,0.55,0111_hp_s01_0.55_cat_10_n02124075_853.png
subject-01,1,112,1.03453898429871,airplane,boat,1,0112_hp_s01_1_boat_10_n04273569_6071.png
subject-01,1,113,1.01836705207825,cat,bird,1.5,0113_hp_s01_1.5_bird_10_n01616318_1214.png
subject-01,1,114,1.03630709648132,car,car,1.5,0114_hp_s01_1.5_car_10_n02814533_14627.png
subject-01,1,115,0.968063116073608,bear,keyboard,0.7,0115_hp_s01_0.7_keyboard_10_n03085013_1483.png
subject-01,1,116,0.614104986190796,cat,airplane,0.55,0116_hp_s01_0.55_airplane_10_n02690373_7401.png
subject-01,1,117,0.465901851654053,oven,keyboard,0.55,0117_hp_s01_0.55_keyboard_10_n03085013_6963.png
subject-01,1,118,0.957519054412842,knife,knife,3,0118_hp_s01_3_knife_10_n03041632_1407.png
subject-01,1,119,0.80107593536377,elephant,elephant,1.5,0119_hp_s01_1.5_elephant_10_n02504458_5137.png
subject-01,1,120,0.665047883987427,clock,clock,inf,0120_hp_s01_inf_clock_10_n02708093_6635.png
subject-01,1,121,0.985087156295776,truck,oven,0.4,0121_hp_s01_0.4_oven_10_n04111531_5927.png
subject-01,1,122,0.608618974685669,clock,clock,inf,0122_hp_s01_inf_clock_10_n02708093_2043.png
subject-01,1,123,0.968583822250366,bear,airplane,0.4,0123_hp_s01_0.4_airplane_10_n02690373_7300.png
subject-01,1,124,0.576235055923462,car,oven,0.55,0124_hp_s01_0.55_oven_10_n04111531_190.png
subject-01,1,125,1.06032395362854,bird,dog,3,0125_hp_s01_3_dog_10_n02091244_8497.png
subject-01,1,126,0.924217939376831,boat,bicycle,0.7,0126_hp_s01_0.7_bicycle_10_n03792782_15932.png
subject-01,1,127,0.605751991271973,cat,bear,0.4,0127_hp_s01_0.4_bear_10_n02133161_463.png
subject-01,1,128,0.713572978973389,clock,cat,0.7,0128_hp_s01_0.7_cat_10_n02123045_11126.png
subject-01,1,129,0.791256904602051,bottle,clock,0.7,0129_hp_s01_0.7_clock_10_n04548280_8646.png
subject-01,1,130,0.611056089401245,cat,bottle,0.55,0130_hp_s01_0.55_bottle_10_n03983396_11597.png
subject-01,1,131,0.874795198440552,truck,truck,3,0131_hp_s01_3_truck_10_n03417042_212.png
subject-01,1,132,1.03682088851929,keyboard,keyboard,1,0132_hp_s01_1_keyboard_10_n04505470_1724.png
subject-01,1,133,0.746578216552734,car,chair,1,0133_hp_s01_1_chair_10_n04099969_14028.png
subject-01,1,134,0.910429000854492,knife,cat,0.45,0134_hp_s01_0.45_cat_10_n02124075_2138.png
subject-01,1,135,1.15253901481628,airplane,boat,inf,0135_hp_s01_inf_boat_10_n03662601_3145.png
subject-01,1,136,0.854140043258667,cat,cat,3,0136_hp_s01_3_cat_10_n02123045_1120.png
subject-01,1,137,0.679812908172607,boat,boat,inf,0137_hp_s01_inf_boat_10_n04612504_31305.png
subject-01,1,138,1.00560402870178,knife,chair,1,0138_hp_s01_1_chair_10_n04099969_4275.png
subject-01,1,139,0.951595067977905,car,keyboard,0.4,0139_hp_s01_0.4_keyboard_10_n03085013_23005.png
subject-01,1,140,0.849346876144409,airplane,airplane,1,0140_hp_s01_1_airplane_10_n02690373_9618.png
subject-01,1,141,0.660942077636719,bottle,knife,0.55,0141_hp_s01_0.55_knife_10_n03041632_17338.png
subject-01,1,142,0.598717927932739,chair,clock,0.45,0142_hp_s01_0.45_clock_10_n04548280_8225.png
subject-01,1,143,0.646800994873047,car,car,inf,0143_hp_s01_inf_car_10_n03100240_8907.png
subject-01,1,144,0.934782981872559,chair,chair,1.5,0144_hp_s01_1.5_chair_10_n03376595_6865.png
subject-01,1,145,0.768529891967773,truck,bicycle,0.45,0145_hp_s01_0.45_bicycle_10_n03792782_44296.png
subject-01,1,146,0.698200941085815,boat,boat,1.5,0146_hp_s01_1.5_boat_10_n04273569_1233.png
subject-01,1,147,0.911792993545532,bird,bird,1,0147_hp_s01_1_bird_10_n01824575_12784.png
subject-01,1,148,1.30802512168884,boat,boat,3,0148_hp_s01_3_boat_10_n03344393_408.png
subject-01,1,149,0.871508121490479,airplane,airplane,1,0149_hp_s01_1_airplane_10_n02690373_220.png
subject-01,1,150,1.09521508216858,bicycle,chair,3,0150_hp_s01_3_chair_10_n04429376_10546.png
subject-01,1,151,0.875041007995605,boat,oven,0.7,0151_hp_s01_0.7_oven_10_n04111531_4749.png
subject-01,1,152,0.695252895355225,car,truck,0.4,0152_hp_s01_0.4_truck_10_n03417042_18124.png
subject-01,1,153,0.678898811340332,clock,clock,3,0153_hp_s01_3_clock_10_n03196217_7353.png
subject-01,1,154,0.886531114578247,bicycle,dog,0.7,0154_hp_s01_0.7_dog_10_n02098286_2699.png
subject-01,1,155,1.02257418632507,bear,truck,0.4,0155_hp_s01_0.4_truck_10_n03796401_3651.png
subject-01,1,156,0.686121940612793,truck,bottle,0.4,0156_hp_s01_0.4_bottle_10_n03983396_4165.png
subject-01,1,157,0.990267038345337,bottle,knife,1,0157_hp_s01_1_knife_10_n03041632_25257.png
subject-01,1,158,0.589800119400024,chair,chair,3,0158_hp_s01_3_chair_10_n04099969_1229.png
subject-01,1,159,1.23957395553589,bear,bird,inf,0159_hp_s01_inf_bird_10_n01798484_518.png
subject-01,1,160,0.755450010299683,bird,bird,inf,0160_hp_s01_inf_bird_10_n01797886_1953.png
subject-01,1,161,0.686645030975342,bird,bird,3,0161_hp_s01_3_bird_10_n01820546_228.png
subject-01,1,162,NaN,na,bear,1.5,0162_hp_s01_1.5_bear_10_n02134418_2666.png
subject-01,1,163,0.534305095672607,boat,boat,1.5,0163_hp_s01_1.5_boat_10_n03344393_7659.png
subject-01,1,164,0.790066003799438,oven,oven,1.5,0164_hp_s01_1.5_oven_10_n04111531_1752.png
subject-01,1,165,1.02405595779419,bear,dog,inf,0165_hp_s01_inf_dog_10_n02091032_8873.png
subject-01,1,166,0.821742057800293,bicycle,oven,0.7,0166_hp_s01_0.7_oven_10_n04111531_14559.png
subject-01,1,167,1.14153909683228,dog,cat,0.7,0167_hp_s01_0.7_cat_10_n02123045_114.png
subject-01,1,168,0.663506984710693,cat,cat,3,0168_hp_s01_3_cat_10_n02123597_13865.png
subject-01,1,169,0.695346117019653,boat,knife,0.55,0169_hp_s01_0.55_knife_10_n03041632_13478.png
subject-01,1,170,0.693186044692993,airplane,elephant,0.55,0170_hp_s01_0.55_elephant_10_n02504458_2618.png
subject-01,1,171,1.16882419586182,chair,truck,1,0171_hp_s01_1_truck_10_n04467665_56954.png
subject-01,1,172,0.706722021102905,bicycle,chair,1,0172_hp_s01_1_chair_10_n04429376_1791.png
subject-01,1,173,1.11064887046814,bottle,bottle,3,0173_hp_s01_3_bottle_10_n04560804_33214.png
subject-01,1,174,1.15646290779114,airplane,knife,inf,0174_hp_s01_inf_knife_10_n03041632_48816.png
subject-01,1,175,0.596206188201904,cat,cat,3,0175_hp_s01_3_cat_10_n02123394_2274.png
subject-01,1,176,0.749926090240479,truck,truck,1.5,0176_hp_s01_1.5_truck_10_n03796401_1326.png
subject-01,1,177,0.648178100585938,boat,knife,0.55,0177_hp_s01_0.55_knife_10_n03041632_11887.png
subject-01,1,178,0.647902965545654,cat,dog,0.7,0178_hp_s01_0.7_dog_10_n02113978_8008.png
subject-01,1,179,0.77137303352356,oven,cat,0.4,0179_hp_s01_0.4_cat_10_n02123045_4812.png
subject-01,1,180,0.953191041946411,bear,bird,inf,0180_hp_s01_inf_bird_10_n01833805_3578.png
subject-01,1,181,0.975311994552612,truck,truck,1,0181_hp_s01_1_truck_10_n03417042_3398.png
subject-01,1,182,0.808797836303711,oven,bird,0.7,0182_hp_s01_0.7_bird_10_n02007558_4566.png
subject-01,1,183,0.696703910827637,clock,knife,0.45,0183_hp_s01_0.45_knife_10_n03041632_3516.png
subject-01,1,184,0.542788028717041,cat,cat,1.5,0184_hp_s01_1.5_cat_10_n02124075_14965.png
subject-01,1,185,0.542172908782959,boat,bird,0.4,0185_hp_s01_0.4_bird_10_n01843065_2176.png
subject-01,1,186,0.884193897247314,knife,knife,3,0186_hp_s01_3_knife_10_n03041632_21034.png
subject-01,1,187,0.706202983856201,keyboard,keyboard,1.5,0187_hp_s01_1.5_keyboard_10_n03085013_24026.png
subject-01,1,188,0.795957088470459,clock,bottle,0.55,0188_hp_s01_0.55_bottle_10_n04560804_14395.png
subject-01,1,189,0.987437009811401,oven,boat,0.45,0189_hp_s01_0.45_boat_10_n02951358_11567.png
subject-01,1,190,0.811300992965698,car,chair,0.4,0190_hp_s01_0.4_chair_10_n03376595_17747.png
subject-01,1,191,1.03531885147095,bird,bottle,inf,0191_hp_s01_inf_bottle_10_n04591713_5563.png
subject-01,1,192,0.842815160751343,airplane,airplane,3,0192_hp_s01_3_airplane_10_n02690373_7496.png
subject-01,1,193,0.903146982192993,airplane,airplane,3,0193_hp_s01_3_airplane_10_n02690373_4465.png
subject-01,1,194,0.752539157867432,bottle,bear,0.4,0194_hp_s01_0.4_bear_10_n02134418_119.png
subject-01,1,195,0.880367040634155,bear,bear,1.5,0195_hp_s01_1.5_bear_10_n02133161_1970.png
subject-01,1,196,1.08632898330688,bird,bird,1.5,0196_hp_s01_1.5_bird_10_n02018795_5488.png
subject-01,1,197,0.919907093048096,car,bird,0.45,0197_hp_s01_0.45_bird_10_n01796340_1877.png
subject-01,1,198,0.951857089996338,bottle,airplane,0.4,0198_hp_s01_0.4_airplane_10_n02690373_4964.png
subject-01,1,199,0.919595003128052,chair,bottle,0.4,0199_hp_s01_0.4_bottle_10_n04591713_1762.png
subject-01,1,200,0.771472930908203,car,car,1,0200_hp_s01_1_car_10_n03100240_6059.png
subject-01,1,201,0.833606004714966,chair,chair,inf,0201_hp_s01_inf_chair_10_n03376595_10769.png
subject-01,1,202,0.709070920944214,oven,oven,inf,0202_hp_s01_inf_oven_10_n04111531_1723.png
subject-01,1,203,0.564886093139648,clock,bicycle,0.45,0203_hp_s01_0.45_bicycle_10_n02835271_3570.png
subject-01,1,204,0.526704788208008,boat,knife,0.4,0204_hp_s01_0.4_knife_10_n03041632_83826.png
subject-01,1,205,0.508416891098022,cat,keyboard,0.7,0205_hp_s01_0.7_keyboard_10_n03085013_20673.png
subject-01,1,206,0.676667928695679,knife,knife,1,0206_hp_s01_1_knife_10_n03041632_27575.png
subject-01,1,207,0.7761549949646,bird,bird,1.5,0207_hp_s01_1.5_bird_10_n01558993_14305.png
subject-01,1,208,0.765926837921143,bear,bird,0.4,0208_hp_s01_0.4_bird_10_n01537544_18123.png
subject-01,1,209,0.661870956420898,bicycle,bicycle,3,0209_hp_s01_3_bicycle_10_n02835271_4307.png
subject-01,1,210,1.16372513771057,car,car,0.7,0210_hp_s01_0.7_car_10_n04285008_6320.png
subject-01,1,211,1.05730700492859,truck,elephant,0.7,0211_hp_s01_0.7_elephant_10_n02504458_1327.png
subject-01,1,212,0.86710786819458,cat,bottle,1,0212_hp_s01_1_bottle_10_n04560804_1813.png
subject-01,1,213,1.2148871421814,cat,cat,1,0213_hp_s01_1_cat_10_n02124075_10085.png
subject-01,1,214,1.49999904632568,bottle,clock,inf,0214_hp_s01_inf_clock_10_n03196217_2853.png
subject-01,1,215,0.818698883056641,knife,boat,1.5,0215_hp_s01_1.5_boat_10_n04273569_10149.png
subject-01,1,216,0.688531160354614,chair,chair,3,0216_hp_s01_3_chair_10_n03376595_17859.png
subject-01,1,217,0.742272138595581,car,dog,0.55,0217_hp_s01_0.55_dog_10_n02101556_7581.png
subject-01,1,218,0.763914108276367,dog,cat,0.4,0218_hp_s01_0.4_cat_10_n02125311_8522.png
subject-01,1,219,0.859784841537476,airplane,clock,0.45,0219_hp_s01_0.45_clock_10_n04548280_4345.png
subject-01,1,220,0.73362398147583,truck,truck,inf,0220_hp_s01_inf_truck_10_n04467665_4088.png
subject-01,1,221,1.49741697311401,dog,dog,inf,0221_hp_s01_inf_dog_10_n02102040_1100.png
subject-01,1,222,0.80128002166748,bicycle,bicycle,0.55,0222_hp_s01_0.55_bicycle_10_n03792782_15557.png
subject-01,1,223,0.805016994476318,bird,car,3,0223_hp_s01_3_car_10_n04285008_12767.png
subject-01,1,224,NaN,na,boat,0.4,0224_hp_s01_0.4_boat_10_n03662601_2438.png
subject-01,1,225,0.81464695930481,truck,truck,inf,0225_hp_s01_inf_truck_10_n03417042_6419.png
subject-01,1,226,0.870445966720581,bear,chair,0.45,0226_hp_s01_0.45_chair_10_n04099969_9891.png
subject-01,1,227,0.902392148971558,cat,cat,inf,0227_hp_s01_inf_cat_10_n02123045_8543.png
subject-01,1,228,0.928102016448975,car,cat,0.55,0228_hp_s01_0.55_cat_10_n02123045_7342.png
subject-01,1,229,1.02790284156799,airplane,bird,0.55,0229_hp_s01_0.55_bird_10_n02018207_10814.png
subject-01,1,230,0.931758880615234,airplane,airplane,3,0230_hp_s01_3_airplane_10_n02690373_20033.png
subject-01,1,231,1.03147292137146,clock,truck,0.55,0231_hp_s01_0.55_truck_10_n04467665_13645.png
subject-01,1,232,0.789353847503662,airplane,airplane,1.5,0232_hp_s01_1.5_airplane_10_n02690373_5015.png
subject-01,1,233,1.1592800617218,airplane,chair,1.5,0233_hp_s01_1.5_chair_10_n03376595_6173.png
subject-01,1,234,1.40112209320068,knife,knife,1.5,0234_hp_s01_1.5_knife_10_n03041632_91967.png
subject-01,1,235,0.914683103561401,elephant,elephant,inf,0235_hp_s01_inf_elephant_10_n02504458_1271.png
subject-01,1,236,0.912597894668579,bear,cat,0.7,0236_hp_s01_0.7_cat_10_n02123597_1684.png
subject-01,1,237,0.886604070663452,cat,dog,0.55,0237_hp_s01_0.55_dog_10_n02091831_3628.png
subject-01,1,238,0.752021074295044,car,truck,0.45,0238_hp_s01_0.45_truck_10_n04467665_64540.png
subject-01,1,239,0.714062929153442,airplane,airplane,1,0239_hp_s01_1_airplane_10_n02690373_3289.png
subject-01,1,240,0.999802827835083,bear,boat,3,0240_hp_s01_3_boat_10_n04273569_16949.png
subject-01,1,241,0.817857980728149,boat,bicycle,1,0241_hp_s01_1_bicycle_10_n03792782_15174.png
subject-01,1,242,0.723839998245239,bottle,bottle,1.5,0242_hp_s01_1.5_bottle_10_n03937543_146.png
subject-01,1,243,0.827551126480103,bird,chair,0.45,0243_hp_s01_0.45_chair_10_n04429376_694.png
subject-01,1,244,0.795323848724365,car,keyboard,0.4,0244_hp_s01_0.4_keyboard_10_n03085013_19407.png
subject-01,1,245,0.565154075622559,truck,oven,0.45,0245_hp_s01_0.45_oven_10_n04111531_4955.png
subject-01,1,246,0.754959106445312,dog,dog,1.5,0246_hp_s01_1.5_dog_10_n02099712_1825.png
subject-01,1,247,0.910849094390869,bear,bear,0.55,0247_hp_s01_0.55_bear_10_n02134084_14031.png
subject-01,1,248,0.884650945663452,bicycle,car,0.45,0248_hp_s01_0.45_car_10_n02814533_70922.png
subject-01,1,249,0.704491138458252,knife,elephant,0.45,0249_hp_s01_0.45_elephant_10_n02504458_217.png
subject-01,1,250,0.952264070510864,car,car,inf,0250_hp_s01_inf_car_10_n02814533_27824.png
subject-01,1,251,0.790405988693237,keyboard,keyboard,0.7,0251_hp_s01_0.7_keyboard_10_n03085013_24257.png
subject-01,1,252,0.767799139022827,elephant,elephant,3,0252_hp_s01_3_elephant_10_n02504013_2269.png
subject-01,1,253,0.59777307510376,clock,bear,0.45,0253_hp_s01_0.45_bear_10_n02134418_1798.png
subject-01,1,254,0.945517063140869,bicycle,dog,0.45,0254_hp_s01_0.45_dog_10_n02111129_6881.png
subject-01,1,255,0.719391822814941,truck,truck,1.5,0255_hp_s01_1.5_truck_10_n04467665_67315.png
subject-01,1,256,0.671109914779663,cat,elephant,0.55,0256_hp_s01_0.55_elephant_10_n02504013_3688.png
subject-01,1,257,0.983031034469604,truck,truck,1.5,0257_hp_s01_1.5_truck_10_n04467665_38886.png
subject-01,1,258,1.02289485931396,bottle,bottle,inf,0258_hp_s01_inf_bottle_10_n04557648_4250.png
subject-01,1,259,0.788464069366455,bicycle,chair,0.45,0259_hp_s01_0.45_chair_10_n04099969_4053.png
subject-01,1,260,1.00444602966309,bear,knife,0.7,0260_hp_s01_0.7_knife_10_n03041632_5727.png
subject-01,1,261,1.15208196640015,knife,dog,1,0261_hp_s01_1_dog_10_n02091134_4525.png
subject-01,1,262,0.899908065795898,keyboard,keyboard,inf,0262_hp_s01_inf_keyboard_10_n04505470_4685.png
subject-01,1,263,0.789753913879395,clock,boat,0.4,0263_hp_s01_0.4_boat_10_n02951358_6637.png
subject-01,1,264,0.851632118225098,dog,dog,1.5,0264_hp_s01_1.5_dog_10_n02093256_11232.png
subject-01,1,265,1.50013709068298,boat,elephant,inf,0265_hp_s01_inf_elephant_10_n02504013_816.png
subject-01,1,266,1.13306784629822,elephant,bear,1.5,0266_hp_s01_1.5_bear_10_n02134084_1484.png
subject-01,1,267,0.697164058685303,clock,boat,0.45,0267_hp_s01_0.45_boat_10_n04273569_15859.png
subject-01,1,268,0.827296018600464,bicycle,bicycle,3,0268_hp_s01_3_bicycle_10_n02835271_7311.png
subject-01,1,269,0.640697002410889,cat,cat,1,0269_hp_s01_1_cat_10_n02123045_2339.png
subject-01,1,270,1.04856085777283,truck,elephant,0.45,0270_hp_s01_0.45_elephant_10_n02504458_4448.png
subject-01,1,271,0.71825909614563,car,car,1,0271_hp_s01_1_car_10_n03100240_9955.png
subject-01,1,272,0.770303010940552,boat,truck,0.55,0272_hp_s01_0.55_truck_10_n03417042_7310.png
subject-01,1,273,0.75980281829834,airplane,chair,0.55,0273_hp_s01_0.55_chair_10_n04099969_20421.png
subject-01,1,274,0.843924999237061,bottle,boat,0.45,0274_hp_s01_0.45_boat_10_n04612504_4581.png
subject-01,1,275,1.26344394683838,bear,bear,1,0275_hp_s01_1_bear_10_n02134418_4515.png
subject-01,1,276,0.707372903823853,truck,truck,0.7,0276_hp_s01_0.7_truck_10_n03796401_1082.png
subject-01,1,277,1.50014901161194,bicycle,bicycle,1,0277_hp_s01_1_bicycle_10_n03792782_8176.png
subject-01,1,278,0.643088817596436,boat,oven,0.4,0278_hp_s01_0.4_oven_10_n04111531_5463.png
subject-01,1,279,0.798826932907104,bear,elephant,1.5,0279_hp_s01_1.5_elephant_10_n02504013_4166.png
subject-01,1,280,0.570625782012939,cat,airplane,0.7,0280_hp_s01_0.7_airplane_10_n02690373_18295.png
subject-01,1,281,1.21048998832703,cat,cat,0.45,0281_hp_s01_0.45_cat_10_n02124075_1460.png
subject-01,1,282,0.938272953033447,clock,bird,0.55,0282_hp_s01_0.55_bird_10_n02028035_17759.png
subject-01,1,283,1.40615797042847,bicycle,chair,3,0283_hp_s01_3_chair_10_n02791124_6654.png
subject-01,1,284,1.06986212730408,truck,truck,0.7,0284_hp_s01_0.7_truck_10_n04467665_22974.png
subject-01,1,285,0.757814884185791,bird,clock,0.55,0285_hp_s01_0.55_clock_10_n03196217_2983.png
subject-01,1,286,0.655795097351074,oven,knife,inf,0286_hp_s01_inf_knife_10_n03041632_23968.png
subject-01,1,287,0.961206912994385,airplane,keyboard,0.4,0287_hp_s01_0.4_keyboard_10_n03085013_23519.png
subject-01,1,288,0.657143831253052,bottle,bottle,1.5,0288_hp_s01_1.5_bottle_10_n04591713_14895.png
subject-01,1,289,0.818781852722168,truck,elephant,1,0289_hp_s01_1_elephant_10_n02504013_3969.png
subject-01,1,290,1.05073189735413,elephant,bear,3,0290_hp_s01_3_bear_10_n02134418_3723.png
subject-01,1,291,0.948530197143555,chair,keyboard,0.45,0291_hp_s01_0.45_keyboard_10_n04505470_709.png
subject-01,1,292,0.924307823181152,knife,knife,1.5,0292_hp_s01_1.5_knife_10_n03041632_379.png
subject-01,1,293,0.942257881164551,airplane,oven,3,0293_hp_s01_3_oven_10_n04111531_13128.png
subject-01,1,294,1.10781192779541,truck,elephant,0.55,0294_hp_s01_0.55_elephant_10_n02504013_933.png
subject-01,1,295,0.753962993621826,airplane,airplane,inf,0295_hp_s01_inf_airplane_10_n02690373_17603.png
subject-01,1,296,0.909508228302002,knife,airplane,0.45,0296_hp_s01_0.45_airplane_10_n02690373_5177.png
subject-01,1,297,1.03923082351685,clock,chair,1.5,0297_hp_s01_1.5_chair_10_n04429376_28121.png
subject-01,1,298,0.749185085296631,car,truck,0.55,0298_hp_s01_0.55_truck_10_n03417042_6517.png
subject-01,1,299,1.03915500640869,dog,chair,0.55,0299_hp_s01_0.55_chair_10_n03376595_5503.png
subject-01,1,300,0.602788209915161,clock,clock,1.5,0300_hp_s01_1.5_clock_10_n03196217_7918.png
subject-01,1,301,0.686583042144775,car,car,1,0301_hp_s01_1_car_10_n04285008_7751.png
subject-01,1,302,0.638507127761841,boat,clock,0.4,0302_hp_s01_0.4_clock_10_n03196217_2628.png
subject-01,1,303,1.35625314712524,cat,bird,0.55,0303_hp_s01_0.55_bird_10_n01833805_6395.png
subject-01,1,304,0.738440990447998,oven,boat,0.4,0304_hp_s01_0.4_boat_10_n03344393_6015.png
subject-01,1,305,1.19416093826294,keyboard,elephant,1.5,0305_hp_s01_1.5_elephant_10_n02504013_2739.png
subject-01,1,306,0.777836084365845,airplane,keyboard,0.45,0306_hp_s01_0.45_keyboard_10_n03085013_23316.png
subject-01,1,307,0.703904867172241,airplane,airplane,1,0307_hp_s01_1_airplane_10_n02690373_20350.png
subject-01,1,308,0.617326974868774,clock,clock,3,0308_hp_s01_3_clock_10_n02708093_3484.png
subject-01,1,309,0.685132026672363,bear,bicycle,0.55,0309_hp_s01_0.55_bicycle_10_n03792782_10185.png
subject-01,1,310,0.878936052322388,knife,knife,3,0310_hp_s01_3_knife_10_n03041632_42196.png
subject-01,1,311,0.706892013549805,bird,bird,inf,0311_hp_s01_inf_bird_10_n01855672_6132.png
subject-01,1,312,0.704961061477661,bear,bottle,0.4,0312_hp_s01_0.4_bottle_10_n03983396_3047.png
subject-01,1,313,1.03267002105713,car,bottle,0.4,0313_hp_s01_0.4_bottle_10_n04557648_2093.png
subject-01,1,314,0.718085050582886,chair,keyboard,0.55,0314_hp_s01_0.55_keyboard_10_n04505470_7686.png
subject-01,1,315,0.970311164855957,cat,bear,1.5,0315_hp_s01_1.5_bear_10_n02132136_5051.png
subject-01,1,316,0.881682872772217,bear,bear,1,0316_hp_s01_1_bear_10_n02134418_24559.png
subject-01,1,317,0.70750093460083,clock,oven,0.55,0317_hp_s01_0.55_oven_10_n04111531_3702.png
subject-01,1,318,0.935908079147339,car,bicycle,1,0318_hp_s01_1_bicycle_10_n02835271_24230.png
subject-01,1,319,0.893229007720947,keyboard,keyboard,1.5,0319_hp_s01_1.5_keyboard_10_n03085013_2272.png
subject-01,1,320,0.805009126663208,oven,keyboard,0.55,0320_hp_s01_0.55_keyboard_10_n03085013_23201.png
subject-01,1,321,0.61362099647522,boat,boat,1.5,0321_hp_s01_1.5_boat_10_n04273569_9803.png
subject-01,1,322,0.563246965408325,clock,boat,0.4,0322_hp_s01_0.4_boat_10_n04612504_29813.png
subject-01,1,323,1.16322994232178,clock,clock,1,0323_hp_s01_1_clock_10_n02708093_1291.png
subject-01,1,324,0.746964931488037,bicycle,oven,0.4,0324_hp_s01_0.4_oven_10_n04111531_1794.png
subject-01,1,325,0.489326000213623,bear,bear,0.4,0325_hp_s01_0.4_bear_10_n02132136_5612.png
subject-01,1,326,0.708765983581543,boat,boat,1.5,0326_hp_s01_1.5_boat_10_n04273569_3401.png
subject-01,1,327,0.696484088897705,cat,cat,3,0327_hp_s01_3_cat_10_n02125311_16544.png
subject-01,1,328,0.706214904785156,boat,clock,1.5,0328_hp_s01_1.5_clock_10_n03196217_10717.png
subject-01,1,329,0.782505035400391,elephant,bear,3,0329_hp_s01_3_bear_10_n02134418_47.png
subject-01,1,330,1.14007210731506,boat,bottle,3,0330_hp_s01_3_bottle_10_n04591713_4380.png
subject-01,1,331,0.463872194290161,oven,chair,0.55,0331_hp_s01_0.55_chair_10_n04429376_8710.png
subject-01,1,332,0.597440004348755,bicycle,bicycle,3,0332_hp_s01_3_bicycle_10_n02835271_781.png
subject-01,1,333,NaN,na,bear,1.5,0333_hp_s01_1.5_bear_10_n02134418_875.png
subject-01,1,334,0.665101051330566,boat,dog,0.55,0334_hp_s01_0.55_dog_10_n02094433_10343.png
subject-01,1,335,0.649014949798584,airplane,airplane,3,0335_hp_s01_3_airplane_10_n02690373_1053.png
subject-01,1,336,0.508795976638794,airplane,airplane,3,0336_hp_s01_3_airplane_10_n02690373_18848.png
subject-01,1,337,0.704916000366211,keyboard,keyboard,3,0337_hp_s01_3_keyboard_10_n03085013_18741.png
subject-01,1,338,1.47641015052795,bear,bear,inf,0338_hp_s01_inf_bear_10_n02134418_3152.png
subject-01,1,339,0.670238971710205,boat,bicycle,1.5,0339_hp_s01_1.5_bicycle_10_n03792782_14557.png
subject-01,1,340,0.574175119400024,clock,bird,0.7,0340_hp_s01_0.7_bird_10_n01796340_5262.png
subject-01,1,341,1.04192090034485,bicycle,bicycle,1,0341_hp_s01_1_bicycle_10_n03792782_4559.png
subject-01,1,342,1.14159798622131,oven,bear,0.45,0342_hp_s01_0.45_bear_10_n02134084_3177.png
subject-01,1,343,0.843374967575073,boat,elephant,0.4,0343_hp_s01_0.4_elephant_10_n02504458_5008.png
subject-01,1,344,0.871448993682861,keyboard,oven,3,0344_hp_s01_3_oven_10_n04111531_7955.png
subject-01,1,345,0.867599964141846,bicycle,bicycle,inf,0345_hp_s01_inf_bicycle_10_n02835271_13793.png
subject-01,1,346,0.776818990707397,oven,keyboard,0.45,0346_hp_s01_0.45_keyboard_10_n03085013_14810.png
subject-01,1,347,0.762862920761108,car,car,0.7,0347_hp_s01_0.7_car_10_n02814533_39933.png
subject-01,1,348,1.10473704338074,bird,bird,1,0348_hp_s01_1_bird_10_n02027492_4897.png
subject-01,1,349,1.07025003433228,oven,keyboard,3,0349_hp_s01_3_keyboard_10_n03085013_23776.png
subject-01,1,350,0.788232803344727,car,car,1.5,0350_hp_s01_1.5_car_10_n02814533_31493.png
subject-01,1,351,NaN,na,boat,1.5,0351_hp_s01_1.5_boat_10_n03344393_7631.png
subject-01,1,352,0.703773975372314,clock,bicycle,0.4,0352_hp_s01_0.4_bicycle_10_n02835271_1261.png
subject-01,1,353,0.671509027481079,keyboard,clock,1,0353_hp_s01_1_clock_10_n03196217_1850.png
subject-01,1,354,0.911471128463745,bear,bear,inf,0354_hp_s01_inf_bear_10_n02132136_22387.png
subject-01,1,355,0.777322053909302,airplane,airplane,1.5,0355_hp_s01_1.5_airplane_10_n02690373_2316.png
subject-01,1,356,0.622915983200073,clock,cat,0.7,0356_hp_s01_0.7_cat_10_n02123597_3634.png
subject-01,1,357,0.824851036071777,car,bird,0.45,0357_hp_s01_0.45_bird_10_n02018207_4151.png
subject-01,1,358,0.606647968292236,cat,knife,0.7,0358_hp_s01_0.7_knife_10_n03041632_94155.png
subject-01,1,359,0.464431047439575,oven,bottle,0.45,0359_hp_s01_0.45_bottle_10_n04560804_7509.png
subject-01,1,360,0.698364019393921,clock,cat,0.4,0360_hp_s01_0.4_cat_10_n02123045_12748.png
subject-01,1,361,0.744014978408813,bear,elephant,0.7,0361_hp_s01_0.7_elephant_10_n02504013_6.png
subject-01,1,362,0.459988117218018,boat,elephant,0.4,0362_hp_s01_0.4_elephant_10_n02504013_1492.png
subject-01,1,363,0.622159957885742,cat,dog,0.4,0363_hp_s01_0.4_dog_10_n02107142_27162.png
subject-01,1,364,0.555481910705566,oven,bear,0.7,0364_hp_s01_0.7_bear_10_n02134418_962.png
subject-01,1,365,0.543271780014038,clock,truck,0.7,0365_hp_s01_0.7_truck_10_n03417042_9693.png
subject-01,1,366,1.03723001480103,car,oven,1,0366_hp_s01_1_oven_10_n04111531_2116.png
subject-01,1,367,0.806845903396606,keyboard,keyboard,inf,0367_hp_s01_inf_keyboard_10_n03085013_20460.png
subject-01,1,368,0.918921947479248,bear,bird,0.45,0368_hp_s01_0.45_bird_10_n01796340_6191.png
subject-01,1,369,0.728550910949707,oven,oven,1.5,0369_hp_s01_1.5_oven_10_n04111531_8046.png
subject-01,1,370,0.808393001556396,truck,boat,0.45,0370_hp_s01_0.45_boat_10_n03344393_11788.png
subject-01,1,371,0.980211019515991,cat,cat,inf,0371_hp_s01_inf_cat_10_n02123394_2765.png
subject-01,1,372,0.735985994338989,clock,bicycle,0.4,0372_hp_s01_0.4_bicycle_10_n03792782_26834.png
subject-01,1,373,0.485984086990356,boat,cat,1.5,0373_hp_s01_1.5_cat_10_n02125311_37036.png
subject-01,1,374,0.931465148925781,car,bicycle,0.7,0374_hp_s01_0.7_bicycle_10_n03792782_4067.png
subject-01,1,375,0.889539003372192,bear,bear,inf,0375_hp_s01_inf_bear_10_n02134418_3886.png
subject-01,1,376,1.01555609703064,elephant,dog,0.7,0376_hp_s01_0.7_dog_10_n02110185_9014.png
subject-01,1,377,0.724931001663208,oven,bear,inf,0377_hp_s01_inf_bear_10_n02134084_14888.png
subject-01,1,378,0.842829942703247,clock,truck,1.5,0378_hp_s01_1.5_truck_10_n03417042_5249.png
subject-01,1,379,0.756660938262939,boat,oven,1,0379_hp_s01_1_oven_10_n04111531_10711.png
subject-01,1,380,0.772861957550049,car,car,1.5,0380_hp_s01_1.5_car_10_n04285008_15271.png
subject-01,1,381,0.654592990875244,airplane,cat,0.45,0381_hp_s01_0.45_cat_10_n02123597_12232.png
subject-01,1,382,0.804217100143433,bear,clock,3,0382_hp_s01_3_clock_10_n04548280_8083.png
subject-01,1,383,0.888086080551147,cat,chair,0.45,0383_hp_s01_0.45_chair_10_n04099969_8946.png
subject-01,1,384,0.907697916030884,keyboard,keyboard,0.7,0384_hp_s01_0.7_keyboard_10_n03085013_21973.png
subject-01,1,385,0.969925880432129,chair,bottle,0.7,0385_hp_s01_0.7_bottle_10_n04560804_15225.png
subject-01,1,386,0.945416212081909,cat,cat,inf,0386_hp_s01_inf_cat_10_n02123045_10395.png
subject-01,1,387,0.803092002868652,clock,truck,0.45,0387_hp_s01_0.45_truck_10_n03417042_4188.png
subject-01,1,388,0.729107141494751,keyboard,keyboard,1.5,0388_hp_s01_1.5_keyboard_10_n03085013_21615.png
subject-01,1,389,1.08091497421265,knife,knife,inf,0389_hp_s01_inf_knife_10_n03041632_26989.png
subject-01,1,390,0.558689117431641,boat,airplane,0.55,0390_hp_s01_0.55_airplane_10_n02690373_16986.png
subject-01,1,391,0.616316080093384,bicycle,bicycle,inf,0391_hp_s01_inf_bicycle_10_n02835271_9067.png
subject-01,1,392,0.7623610496521,clock,dog,0.45,0392_hp_s01_0.45_dog_10_n02106382_9188.png
subject-01,1,393,0.63608717918396,boat,boat,inf,0393_hp_s01_inf_boat_10_n02951358_3205.png
subject-01,1,394,0.783983945846558,cat,knife,0.4,0394_hp_s01_0.4_knife_10_n03041632_45270.png
subject-01,1,395,0.577898979187012,car,car,inf,0395_hp_s01_inf_car_10_n03100240_6376.png
subject-01,1,396,0.797585010528564,car,truck,1,0396_hp_s01_1_truck_10_n03796401_430.png
subject-01,1,397,0.883287906646729,cat,knife,0.7,0397_hp_s01_0.7_knife_10_n03041632_24181.png
subject-01,1,398,0.7292640209198,boat,bear,1,0398_hp_s01_1_bear_10_n02134084_16190.png
subject-01,1,399,0.710809946060181,bottle,bear,0.55,0399_hp_s01_0.55_bear_10_n02132136_7253.png
subject-01,1,400,0.826723098754883,bicycle,boat,1,0400_hp_s01_1_boat_10_n03662601_34676.png
subject-01,1,401,0.841135025024414,clock,knife,0.55,0401_hp_s01_0.55_knife_10_n03041632_81471.png
subject-01,1,402,0.664847850799561,keyboard,cat,0.7,0402_hp_s01_0.7_cat_10_n02123597_3822.png
subject-01,1,403,0.694821119308472,keyboard,keyboard,1.5,0403_hp_s01_1.5_keyboard_10_n03085013_4823.png
subject-01,1,404,0.716875076293945,airplane,dog,0.4,0404_hp_s01_0.4_dog_10_n02108551_8385.png
subject-01,1,405,0.49432110786438,clock,cat,0.7,0405_hp_s01_0.7_cat_10_n02124075_8732.png
subject-01,1,406,0.79208517074585,dog,dog,3,0406_hp_s01_3_dog_10_n02093428_17625.png
subject-01,1,407,NaN,na,chair,inf,0407_hp_s01_inf_chair_10_n02791124_6999.png
subject-01,1,408,1.26567196846008,bird,bird,3,0408_hp_s01_3_bird_10_n02028035_521.png
subject-01,1,409,1.00151991844177,car,truck,0.4,0409_hp_s01_0.4_truck_10_n03417042_750.png
subject-01,1,410,0.679429054260254,airplane,airplane,inf,0410_hp_s01_inf_airplane_10_n02690373_5779.png
subject-01,1,411,0.919184923171997,cat,cat,1.5,0411_hp_s01_1.5_cat_10_n02123045_7154.png
subject-01,1,412,0.878882884979248,bottle,bottle,1.5,0412_hp_s01_1.5_bottle_10_n04591713_6958.png
subject-01,1,413,0.94720196723938,clock,bird,1.5,0413_hp_s01_1.5_bird_10_n01818515_42621.png
subject-01,1,414,0.772601127624512,truck,truck,inf,0414_hp_s01_inf_truck_10_n03796401_1330.png
subject-01,1,415,0.686517953872681,bird,bird,1.5,0415_hp_s01_1.5_bird_10_n01843065_6365.png
subject-01,1,416,0.804614067077637,bottle,bottle,1.5,0416_hp_s01_1.5_bottle_10_n03983396_11898.png
subject-01,1,417,0.976169109344482,cat,bird,3,0417_hp_s01_3_bird_10_n01530575_3831.png
subject-01,1,418,0.659838914871216,bird,bottle,0.4,0418_hp_s01_0.4_bottle_10_n03983396_8837.png
subject-01,1,419,0.70189094543457,car,car,0.7,0419_hp_s01_0.7_car_10_n02814533_90798.png
subject-01,1,420,0.613544940948486,bird,bird,3,0420_hp_s01_3_bird_10_n01819313_3440.png
subject-01,1,421,0.653331995010376,boat,dog,0.55,0421_hp_s01_0.55_dog_10_n02090721_4433.png
subject-01,1,422,0.863232135772705,cat,elephant,3,0422_hp_s01_3_elephant_10_n02504013_9566.png
subject-01,1,423,0.80695104598999,bear,dog,1.5,0423_hp_s01_1.5_dog_10_n02105251_6599.png
subject-01,1,424,0.892854928970337,car,chair,0.7,0424_hp_s01_0.7_chair_10_n02791124_5759.png
subject-01,1,425,0.948684930801392,elephant,elephant,inf,0425_hp_s01_inf_elephant_10_n02504458_150.png
subject-01,1,426,0.81657886505127,truck,clock,0.45,0426_hp_s01_0.45_clock_10_n04548280_10040.png
subject-01,1,427,0.786635875701904,truck,elephant,0.7,0427_hp_s01_0.7_elephant_10_n02504458_155.png
subject-01,1,428,0.810104846954346,cat,knife,1,0428_hp_s01_1_knife_10_n03041632_48062.png
subject-01,1,429,1.34788608551025,truck,truck,1.5,0429_hp_s01_1.5_truck_10_n04467665_40361.png
subject-01,1,430,0.735615968704224,boat,bird,0.45,0430_hp_s01_0.45_bird_10_n01614925_7608.png
subject-01,1,431,0.475349187850952,airplane,bear,0.45,0431_hp_s01_0.45_bear_10_n02133161_2749.png
subject-01,1,432,1.10532903671265,oven,boat,0.55,0432_hp_s01_0.55_boat_10_n04612504_654.png
subject-01,1,433,0.667048931121826,bottle,bottle,1,0433_hp_s01_1_bottle_10_n04579145_287.png
subject-01,1,434,1.27923893928528,bear,bear,3,0434_hp_s01_3_bear_10_n02133161_1423.png
subject-01,1,435,1.05505299568176,boat,bicycle,0.7,0435_hp_s01_0.7_bicycle_10_n02835271_4656.png
subject-01,1,436,1.05446314811707,chair,clock,0.7,0436_hp_s01_0.7_clock_10_n02708093_3688.png
subject-01,1,437,0.872385025024414,oven,airplane,inf,0437_hp_s01_inf_airplane_10_n02690373_10278.png
subject-01,1,438,0.854130983352661,airplane,car,0.4,0438_hp_s01_0.4_car_10_n04285008_11133.png
subject-01,1,439,0.491923093795776,clock,knife,1,0439_hp_s01_1_knife_10_n03041632_4214.png
subject-01,1,440,0.733690023422241,oven,oven,inf,0440_hp_s01_inf_oven_10_n04111531_7741.png
subject-01,1,441,0.75753378868103,bicycle,bicycle,3,0441_hp_s01_3_bicycle_10_n03792782_4472.png
subject-01,1,442,0.997375965118408,bear,bird,0.7,0442_hp_s01_0.7_bird_10_n01798484_18666.png
subject-01,1,443,1.00907015800476,oven,keyboard,1.5,0443_hp_s01_1.5_keyboard_10_n04505470_5059.png
subject-01,1,444,0.768978118896484,cat,elephant,0.55,0444_hp_s01_0.55_elephant_10_n02504013_2369.png
subject-01,1,445,0.828851938247681,bottle,bottle,3,0445_hp_s01_3_bottle_10_n02823428_10796.png
subject-01,1,446,0.642525911331177,cat,oven,3,0446_hp_s01_3_oven_10_n04111531_4421.png
subject-01,1,447,1.14837503433228,bicycle,bicycle,inf,0447_hp_s01_inf_bicycle_10_n02835271_7303.png
subject-01,1,448,1.31230807304382,chair,chair,inf,0448_hp_s01_inf_chair_10_n02791124_7877.png
subject-01,1,449,1.20021891593933,bottle,bottle,1.5,0449_hp_s01_1.5_bottle_10_n04560804_12099.png
subject-01,1,450,1.3161199092865,boat,boat,1,0450_hp_s01_1_boat_10_n03662601_18924.png
subject-01,1,451,1.21165800094604,bird,bottle,1,0451_hp_s01_1_bottle_10_n04591713_4206.png
subject-01,1,452,1.44770193099976,clock,clock,0.55,0452_hp_s01_0.55_clock_10_n04548280_6689.png
subject-01,1,453,0.601387977600098,boat,dog,0.4,0453_hp_s01_0.4_dog_10_n02090721_5305.png
subject-01,1,454,0.623178005218506,cat,clock,0.7,0454_hp_s01_0.7_clock_10_n03196217_1746.png
subject-01,1,455,0.416836023330688,oven,keyboard,3,0455_hp_s01_3_keyboard_10_n04505470_7721.png
subject-01,1,456,0.618707895278931,car,clock,0.55,0456_hp_s01_0.55_clock_10_n04548280_3248.png
subject-01,1,457,0.668540000915527,bird,bird,inf,0457_hp_s01_inf_bird_10_n01534433_28009.png
subject-01,1,458,0.822427988052368,cat,chair,0.4,0458_hp_s01_0.4_chair_10_n04099969_142.png
subject-01,1,459,0.626238107681274,bottle,bicycle,0.55,0459_hp_s01_0.55_bicycle_10_n03792782_7092.png
subject-01,1,460,0.570017099380493,chair,keyboard,0.45,0460_hp_s01_0.45_keyboard_10_n03085013_25559.png
subject-01,1,461,1.02572798728943,keyboard,elephant,0.7,0461_hp_s01_0.7_elephant_10_n02504013_9144.png
subject-01,1,462,1.16564106941223,airplane,clock,0.45,0462_hp_s01_0.45_clock_10_n03196217_2003.png
subject-01,1,463,0.731430053710938,car,elephant,1,0463_hp_s01_1_elephant_10_n02504013_3169.png
subject-01,1,464,1.13711500167847,oven,dog,0.55,0464_hp_s01_0.55_dog_10_n02089867_6424.png
subject-01,1,465,1.50003480911255,keyboard,keyboard,1,0465_hp_s01_1_keyboard_10_n03085013_22494.png
subject-01,1,466,0.578958988189697,clock,dog,0.4,0466_hp_s01_0.4_dog_10_n02106662_37555.png
subject-01,1,467,0.796955108642578,car,car,0.55,0467_hp_s01_0.55_car_10_n02814533_4726.png
subject-01,1,468,0.648399829864502,cat,elephant,0.45,0468_hp_s01_0.45_elephant_10_n02504458_1473.png
subject-01,1,469,0.83420991897583,chair,bottle,0.55,0469_hp_s01_0.55_bottle_10_n04557648_3350.png
subject-01,1,470,0.818169116973877,bottle,knife,0.4,0470_hp_s01_0.4_knife_10_n03041632_31909.png
subject-01,1,471,0.855966091156006,bear,truck,0.4,0471_hp_s01_0.4_truck_10_n04467665_70880.png
subject-01,1,472,0.905770063400269,airplane,dog,0.45,0472_hp_s01_0.45_dog_10_n02097209_7557.png
subject-01,1,473,0.847522020339966,chair,oven,1,0473_hp_s01_1_oven_10_n04111531_4438.png
subject-01,1,474,1.00938510894775,knife,airplane,0.7,0474_hp_s01_0.7_airplane_10_n02690373_194.png
subject-01,1,475,0.983067035675049,bicycle,bicycle,1.5,0475_hp_s01_1.5_bicycle_10_n02835271_6953.png
subject-01,1,476,0.822848081588745,car,oven,0.45,0476_hp_s01_0.45_oven_10_n04111531_14435.png
subject-01,1,477,0.79288911819458,bear,elephant,1.5,0477_hp_s01_1.5_elephant_10_n02504013_5192.png
subject-01,1,478,1.02693700790405,car,chair,0.7,0478_hp_s01_0.7_chair_10_n03376595_3566.png
subject-01,1,479,0.852797031402588,oven,truck,1,0479_hp_s01_1_truck_10_n03417042_22709.png
subject-01,1,480,NaN,na,keyboard,inf,0480_hp_s01_inf_keyboard_10_n04505470_4603.png
subject-01,1,481,0.650514125823975,car,car,0.55,0481_hp_s01_0.55_car_10_n03100240_1794.png
subject-01,1,482,0.672466039657593,cat,elephant,0.7,0482_hp_s01_0.7_elephant_10_n02504458_1233.png
subject-01,1,483,0.562107086181641,chair,airplane,0.45,0483_hp_s01_0.45_airplane_10_n02690373_3047.png
subject-01,1,484,0.710376024246216,oven,elephant,0.55,0484_hp_s01_0.55_elephant_10_n02504013_7422.png
subject-01,1,485,0.547764778137207,clock,bicycle,0.45,0485_hp_s01_0.45_bicycle_10_n03792782_16034.png
subject-01,1,486,0.721660137176514,bicycle,bicycle,3,0486_hp_s01_3_bicycle_10_n02835271_11922.png
subject-01,1,487,0.621609926223755,car,truck,0.7,0487_hp_s01_0.7_truck_10_n03796401_6526.png
subject-01,1,488,0.851346015930176,boat,boat,3,0488_hp_s01_3_boat_10_n03662601_1834.png
subject-01,1,489,1.21327185630798,cat,dog,0.7,0489_hp_s01_0.7_dog_10_n02100236_619.png
subject-01,1,490,0.992817878723145,dog,truck,0.45,0490_hp_s01_0.45_truck_10_n04467665_21266.png
subject-01,1,491,0.786799907684326,elephant,chair,0.55,0491_hp_s01_0.55_chair_10_n04099969_18220.png
subject-01,1,492,1.0985689163208,keyboard,keyboard,1.5,0492_hp_s01_1.5_keyboard_10_n03085013_4157.png
subject-01,1,493,0.61437201499939,clock,bicycle,0.4,0493_hp_s01_0.4_bicycle_10_n03792782_1276.png
subject-01,1,494,0.588225126266479,boat,boat,3,0494_hp_s01_3_boat_10_n03344393_1987.png
subject-01,1,495,0.698043823242188,bear,boat,0.45,0495_hp_s01_0.45_boat_10_n03344393_381.png
subject-01,1,496,0.501892805099487,clock,clock,inf,0496_hp_s01_inf_clock_10_n02708093_8390.png
subject-01,1,497,0.791409969329834,keyboard,keyboard,0.55,0497_hp_s01_0.55_keyboard_10_n04505470_1043.png
subject-01,1,498,0.863516092300415,knife,dog,0.55,0498_hp_s01_0.55_dog_10_n02100877_1902.png
subject-01,1,499,0.725379943847656,clock,knife,1.5,0499_hp_s01_1.5_knife_10_n03041632_55083.png
subject-01,1,500,0.738857984542847,truck,truck,1.5,0500_hp_s01_1.5_truck_10_n04467665_45872.png
subject-01,1,501,1.00689601898193,bear,boat,0.7,0501_hp_s01_0.7_boat_10_n04273569_3244.png
subject-01,1,502,0.620563983917236,car,bear,0.45,0502_hp_s01_0.45_bear_10_n02134418_2157.png
subject-01,1,503,0.674409151077271,bottle,bottle,3,0503_hp_s01_3_bottle_10_n04591713_17618.png
subject-01,1,504,0.920114994049072,dog,cat,1,0504_hp_s01_1_cat_10_n02125311_8496.png
subject-01,1,505,1.2742760181427,car,car,inf,0505_hp_s01_inf_car_10_n02814533_3560.png
subject-01,1,506,0.823811054229736,car,truck,0.7,0506_hp_s01_0.7_truck_10_n03417042_751.png
subject-01,1,507,1.36359000205994,bear,keyboard,inf,0507_hp_s01_inf_keyboard_10_n03085013_23213.png
subject-01,1,508,0.813430070877075,bicycle,bicycle,0.4,0508_hp_s01_0.4_bicycle_10_n03792782_19709.png
subject-01,1,509,1.10930800437927,oven,oven,inf,0509_hp_s01_inf_oven_10_n04111531_3076.png
subject-01,1,510,0.749064207077026,boat,knife,0.4,0510_hp_s01_0.4_knife_10_n03041632_14774.png
subject-01,1,511,0.824954032897949,car,car,0.7,0511_hp_s01_0.7_car_10_n03100240_7703.png
subject-01,1,512,0.600652933120728,airplane,bear,0.55,0512_hp_s01_0.55_bear_10_n02134084_13434.png
subject-01,1,513,0.706671953201294,dog,dog,inf,0513_hp_s01_inf_dog_10_n02111500_4280.png
subject-01,1,514,0.758337020874023,keyboard,bear,0.55,0514_hp_s01_0.55_bear_10_n02132136_23853.png
subject-01,1,515,0.690229177474976,bicycle,bicycle,1.5,0515_hp_s01_1.5_bicycle_10_n03792782_17193.png
subject-01,1,516,0.946008205413818,dog,dog,1,0516_hp_s01_1_dog_10_n02102177_5770.png
subject-01,1,517,0.723540782928467,bird,bear,0.7,0517_hp_s01_0.7_bear_10_n02132136_2279.png
subject-01,1,518,1.05174612998962,bear,bear,inf,0518_hp_s01_inf_bear_10_n02134084_6910.png
subject-01,1,519,1.24733090400696,elephant,oven,0.7,0519_hp_s01_0.7_oven_10_n04111531_9041.png
subject-01,1,520,0.737200021743774,keyboard,cat,1,0520_hp_s01_1_cat_10_n02123159_5424.png
subject-01,1,521,0.611078977584839,oven,bicycle,0.45,0521_hp_s01_0.45_bicycle_10_n02835271_672.png
subject-01,1,522,0.430869102478027,clock,airplane,0.45,0522_hp_s01_0.45_airplane_10_n02690373_18111.png
subject-01,1,523,0.938999176025391,boat,clock,1,0523_hp_s01_1_clock_10_n04548280_3013.png
subject-01,1,524,0.714480876922607,clock,dog,0.45,0524_hp_s01_0.45_dog_10_n02094258_4142.png
subject-01,1,525,0.618376016616821,clock,clock,3,0525_hp_s01_3_clock_10_n04548280_6919.png
subject-01,1,526,0.860023975372314,bicycle,cat,0.4,0526_hp_s01_0.4_cat_10_n02124075_16814.png
subject-01,1,527,0.937731981277466,car,clock,1,0527_hp_s01_1_clock_10_n04548280_3342.png
subject-01,1,528,0.551979064941406,boat,boat,1,0528_hp_s01_1_boat_10_n04612504_31680.png
subject-01,1,529,0.76958703994751,keyboard,keyboard,inf,0529_hp_s01_inf_keyboard_10_n03085013_7962.png
subject-01,1,530,0.651460886001587,bicycle,bicycle,3,0530_hp_s01_3_bicycle_10_n02835271_949.png
subject-01,1,531,0.74726390838623,keyboard,keyboard,1,0531_hp_s01_1_keyboard_10_n04505470_4228.png
subject-01,1,532,1.45688796043396,oven,boat,0.7,0532_hp_s01_0.7_boat_10_n03344393_3219.png
subject-01,1,533,0.826687097549438,bicycle,elephant,3,0533_hp_s01_3_elephant_10_n02504458_3399.png
subject-01,1,534,0.700631141662598,bird,bird,0.55,0534_hp_s01_0.55_bird_10_n01616318_12459.png
subject-01,1,535,1.11231994628906,car,elephant,0.4,0535_hp_s01_0.4_elephant_10_n02504013_1846.png
subject-01,1,536,0.858120203018188,truck,bicycle,0.55,0536_hp_s01_0.55_bicycle_10_n03792782_5097.png
subject-01,1,537,1.28800296783447,bottle,bottle,3,0537_hp_s01_3_bottle_10_n02823428_5115.png
subject-01,1,538,0.765857934951782,keyboard,keyboard,inf,0538_hp_s01_inf_keyboard_10_n03085013_21282.png
subject-01,1,539,0.959907054901123,bicycle,oven,0.4,0539_hp_s01_0.4_oven_10_n04111531_1815.png
subject-01,1,540,0.841500043869019,truck,chair,1,0540_hp_s01_1_chair_10_n02791124_5268.png
subject-01,1,541,0.79133415222168,airplane,airplane,0.55,0541_hp_s01_0.55_airplane_10_n02690373_3035.png
subject-01,1,542,0.661036014556885,dog,dog,inf,0542_hp_s01_inf_dog_10_n02107683_1460.png
subject-01,1,543,1.1848680973053,boat,boat,inf,0543_hp_s01_inf_boat_10_n02951358_31813.png
subject-01,1,544,0.92065691947937,oven,bird,0.4,0544_hp_s01_0.4_bird_10_n01797886_16808.png
subject-01,1,545,0.956454038619995,elephant,elephant,0.45,0545_hp_s01_0.45_elephant_10_n02504458_4767.png
subject-01,1,546,1.02837204933167,knife,knife,3,0546_hp_s01_3_knife_10_n03041632_41493.png
subject-01,1,547,1.17649507522583,elephant,elephant,3,0547_hp_s01_3_elephant_10_n02504458_3329.png
subject-01,1,548,1.50008010864258,cat,cat,0.45,0548_hp_s01_0.45_cat_10_n02124075_12467.png
subject-01,1,549,1.08384299278259,bird,truck,0.7,0549_hp_s01_0.7_truck_10_n03417042_6467.png
subject-01,1,550,0.643708944320679,airplane,airplane,inf,0550_hp_s01_inf_airplane_10_n02690373_734.png
subject-01,1,551,0.85733699798584,clock,car,0.4,0551_hp_s01_0.4_car_10_n02814533_85296.png
subject-01,1,552,0.655260801315308,bicycle,elephant,0.7,0552_hp_s01_0.7_elephant_10_n02504013_18005.png
subject-01,1,553,0.789196968078613,truck,clock,0.45,0553_hp_s01_0.45_clock_10_n02708093_1495.png
subject-01,1,554,1.05899906158447,car,car,1.5,0554_hp_s01_1.5_car_10_n04285008_3462.png
subject-01,1,555,0.778908014297485,bottle,truck,0.4,0555_hp_s01_0.4_truck_10_n03417042_22297.png
subject-01,1,556,0.84455394744873,knife,chair,3,0556_hp_s01_3_chair_10_n04429376_7279.png
subject-01,1,557,0.998466014862061,bicycle,bicycle,3,0557_hp_s01_3_bicycle_10_n02835271_6919.png
subject-01,1,558,0.949953079223633,bear,oven,0.55,0558_hp_s01_0.55_oven_10_n04111531_2260.png
subject-01,1,559,1.04182696342468,elephant,bear,0.7,0559_hp_s01_0.7_bear_10_n02134084_5794.png
subject-01,1,560,0.875638961791992,car,airplane,0.7,0560_hp_s01_0.7_airplane_10_n02690373_10397.png
subject-01,1,561,0.625243186950684,boat,elephant,0.4,0561_hp_s01_0.4_elephant_10_n02504458_2041.png
subject-01,1,562,0.625009059906006,oven,chair,1,0562_hp_s01_1_chair_10_n04429376_7732.png
subject-01,1,563,0.698525905609131,cat,airplane,0.4,0563_hp_s01_0.4_airplane_10_n02690373_4788.png
subject-01,1,564,0.584167957305908,bird,dog,0.55,0564_hp_s01_0.55_dog_10_n02097474_2799.png
subject-01,1,565,0.696095943450928,cat,bear,1.5,0565_hp_s01_1.5_bear_10_n02134084_17849.png
subject-01,1,566,0.749903917312622,dog,dog,inf,0566_hp_s01_inf_dog_10_n02086646_7064.png
subject-01,1,567,0.769690036773682,bear,truck,0.55,0567_hp_s01_0.55_truck_10_n03417042_7061.png
subject-01,1,568,0.773727893829346,knife,bird,1,0568_hp_s01_1_bird_10_n01820546_3605.png
subject-01,1,569,0.683342933654785,car,bear,0.4,0569_hp_s01_0.4_bear_10_n02133161_2813.png
subject-01,1,570,0.803395986557007,keyboard,bear,0.45,0570_hp_s01_0.45_bear_10_n02132136_16636.png
subject-01,1,571,0.878973007202148,oven,oven,1.5,0571_hp_s01_1.5_oven_10_n04111531_14959.png
subject-01,1,572,0.725190162658691,elephant,cat,0.45,0572_hp_s01_0.45_cat_10_n02124075_5453.png
subject-01,1,573,0.564902067184448,cat,cat,1,0573_hp_s01_1_cat_10_n02124075_11528.png
subject-01,1,574,0.582489013671875,cat,cat,1,0574_hp_s01_1_cat_10_n02123159_3454.png
subject-01,1,575,1.01226091384888,truck,bird,0.45,0575_hp_s01_0.45_bird_10_n02025239_2227.png
subject-01,1,576,0.790002107620239,bicycle,chair,0.7,0576_hp_s01_0.7_chair_10_n03376595_12256.png
subject-01,1,577,0.843913078308105,clock,clock,1.5,0577_hp_s01_1.5_clock_10_n02708093_6591.png
subject-01,1,578,0.767644166946411,oven,chair,0.55,0578_hp_s01_0.55_chair_10_n04099969_34144.png
subject-01,1,579,0.743806123733521,keyboard,bear,0.55,0579_hp_s01_0.55_bear_10_n02132136_3563.png
subject-01,1,580,0.679412126541138,boat,elephant,1,0580_hp_s01_1_elephant_10_n02504013_6671.png
subject-01,1,581,0.827630043029785,oven,keyboard,0.7,0581_hp_s01_0.7_keyboard_10_n03085013_22067.png
subject-01,1,582,0.971158981323242,truck,truck,inf,0582_hp_s01_inf_truck_10_n03796401_1458.png
subject-01,1,583,0.642698049545288,clock,bottle,0.45,0583_hp_s01_0.45_bottle_10_n04591713_807.png
subject-01,1,584,0.703011989593506,car,car,1,0584_hp_s01_1_car_10_n02814533_22693.png
subject-01,1,585,NaN,na,car,0.7,0585_hp_s01_0.7_car_10_n02814533_5278.png
subject-01,1,586,0.816213130950928,boat,boat,1.5,0586_hp_s01_1.5_boat_10_n03662601_10240.png
subject-01,1,587,0.637899160385132,airplane,airplane,inf,0587_hp_s01_inf_airplane_10_n02690373_9673.png
subject-01,1,588,0.725661039352417,airplane,bird,0.7,0588_hp_s01_0.7_bird_10_n02009229_6029.png
subject-01,1,589,0.645495891571045,bear,clock,0.4,0589_hp_s01_0.4_clock_10_n02708093_2580.png
subject-01,1,590,0.937558889389038,bicycle,elephant,0.4,0590_hp_s01_0.4_elephant_10_n02504013_295.png
subject-01,1,591,1.38926911354065,clock,car,0.7,0591_hp_s01_0.7_car_10_n04285008_9893.png
subject-01,1,592,1.23132014274597,chair,chair,1.5,0592_hp_s01_1.5_chair_10_n03376595_6850.png
subject-01,1,593,1.20494604110718,boat,boat,3,0593_hp_s01_3_boat_10_n03662601_15713.png
subject-01,1,594,1.09471106529236,chair,clock,0.4,0594_hp_s01_0.4_clock_10_n04548280_9867.png
subject-01,1,595,0.740659952163696,airplane,airplane,1.5,0595_hp_s01_1.5_airplane_10_n02690373_1450.png
subject-01,1,596,0.898362874984741,bear,bicycle,0.45,0596_hp_s01_0.45_bicycle_10_n03792782_7787.png
subject-01,1,597,0.754170894622803,clock,chair,0.45,0597_hp_s01_0.45_chair_10_n04099969_1219.png
subject-01,1,598,0.871969938278198,bicycle,keyboard,0.55,0598_hp_s01_0.55_keyboard_10_n03085013_8325.png
subject-01,1,599,0.635781049728394,truck,bicycle,0.55,0599_hp_s01_0.55_bicycle_10_n02835271_14732.png
subject-01,1,600,0.765460968017578,airplane,airplane,1.5,0600_hp_s01_1.5_airplane_10_n02690373_4176.png
subject-01,1,601,1.325443983078,cat,bird,1,0601_hp_s01_1_bird_10_n01534433_905.png
subject-01,1,602,0.993221998214722,clock,truck,1.5,0602_hp_s01_1.5_truck_10_n04467665_45306.png
subject-01,1,603,0.752925872802734,elephant,elephant,3,0603_hp_s01_3_elephant_10_n02504458_1617.png
subject-01,1,604,0.886754035949707,keyboard,oven,0.45,0604_hp_s01_0.45_oven_10_n04111531_4148.png
subject-01,1,605,0.994534969329834,boat,bird,0.55,0605_hp_s01_0.55_bird_10_n02009912_91.png
subject-01,1,606,0.88239598274231,knife,knife,3,0606_hp_s01_3_knife_10_n03041632_33739.png
subject-01,1,607,0.858271837234497,airplane,airplane,1,0607_hp_s01_1_airplane_10_n02690373_9318.png
subject-01,1,608,0.773912906646729,oven,bird,0.4,0608_hp_s01_0.4_bird_10_n01828970_8669.png
subject-01,1,609,1.12392616271973,boat,truck,1.5,0609_hp_s01_1.5_truck_10_n04467665_58762.png
subject-01,1,610,0.927807807922363,car,car,3,0610_hp_s01_3_car_10_n03100240_11417.png
subject-01,1,611,0.727455854415894,bicycle,bicycle,inf,0611_hp_s01_inf_bicycle_10_n03792782_16179.png
subject-01,1,612,0.619135856628418,car,car,1,0612_hp_s01_1_car_10_n04285008_8444.png
subject-01,1,613,0.803197145462036,cat,chair,inf,0613_hp_s01_inf_chair_10_n02791124_3240.png
subject-01,1,614,0.542939901351929,clock,bicycle,0.7,0614_hp_s01_0.7_bicycle_10_n02835271_1035.png
subject-01,1,615,0.684587001800537,boat,bicycle,0.55,0615_hp_s01_0.55_bicycle_10_n02835271_6167.png
subject-01,1,616,0.860625982284546,bottle,bottle,3,0616_hp_s01_3_bottle_10_n02823428_6830.png
subject-01,1,617,0.776149034500122,truck,knife,0.45,0617_hp_s01_0.45_knife_10_n03041632_17349.png
subject-01,1,618,0.758131980895996,airplane,airplane,inf,0618_hp_s01_inf_airplane_10_n02690373_2024.png
subject-01,1,619,0.720319032669067,clock,bottle,1,0619_hp_s01_1_bottle_10_n02823428_8034.png
subject-01,1,620,1.18197703361511,oven,chair,1,0620_hp_s01_1_chair_10_n02791124_6786.png
subject-01,1,621,0.901676893234253,bicycle,chair,0.45,0621_hp_s01_0.45_chair_10_n03376595_10689.png
subject-01,1,622,0.549378871917725,cat,knife,0.4,0622_hp_s01_0.4_knife_10_n03041632_22734.png
subject-01,1,623,0.907244920730591,car,oven,0.4,0623_hp_s01_0.4_oven_10_n04111531_10521.png
subject-01,1,624,1.49999618530273,airplane,bird,inf,0624_hp_s01_inf_bird_10_n02007558_37147.png
subject-01,1,625,0.720928192138672,cat,oven,3,0625_hp_s01_3_oven_10_n04111531_14753.png
subject-01,1,626,0.590655088424683,oven,bottle,0.7,0626_hp_s01_0.7_bottle_10_n03983396_4990.png
subject-01,1,627,0.576252222061157,boat,cat,0.45,0627_hp_s01_0.45_cat_10_n02125311_25104.png
subject-01,1,628,0.902235984802246,bicycle,truck,0.55,0628_hp_s01_0.55_truck_10_n03417042_5600.png
subject-01,1,629,1.24412298202515,clock,cat,0.55,0629_hp_s01_0.55_cat_10_n02125311_34158.png
subject-01,1,630,0.795867204666138,boat,knife,1,0630_hp_s01_1_knife_10_n03041632_41077.png
subject-01,1,631,0.817809820175171,chair,bicycle,0.45,0631_hp_s01_0.45_bicycle_10_n03792782_19295.png
subject-01,1,632,1.05947804450989,bear,elephant,1,0632_hp_s01_1_elephant_10_n02504013_7500.png
subject-01,1,633,0.935364007949829,truck,chair,0.4,0633_hp_s01_0.4_chair_10_n04429376_20837.png
subject-01,1,634,1.22110199928284,bird,oven,0.55,0634_hp_s01_0.55_oven_10_n04111531_2371.png
subject-01,1,635,1.27295303344727,bird,bear,0.45,0635_hp_s01_0.45_bear_10_n02132136_2108.png
subject-01,1,636,0.688673973083496,car,airplane,0.55,0636_hp_s01_0.55_airplane_10_n02690373_7600.png
subject-01,1,637,0.752447128295898,airplane,bicycle,0.4,0637_hp_s01_0.4_bicycle_10_n03792782_8329.png
subject-01,1,638,0.608376979827881,chair,airplane,0.7,0638_hp_s01_0.7_airplane_10_n02690373_9712.png
subject-01,1,639,1.05424308776855,car,car,inf,0639_hp_s01_inf_car_10_n02814533_43694.png
subject-01,1,640,0.852146148681641,boat,bird,0.4,0640_hp_s01_0.4_bird_10_n01828970_454.png
subject-01,1,641,0.846450090408325,cat,bear,1,0641_hp_s01_1_bear_10_n02132136_1141.png
subject-01,1,642,0.608074903488159,clock,clock,0.7,0642_hp_s01_0.7_clock_10_n03196217_6217.png
subject-01,1,643,0.76598596572876,bicycle,truck,1,0643_hp_s01_1_truck_10_n03417042_4520.png
subject-01,1,644,0.771675825119019,dog,dog,3,0644_hp_s01_3_dog_10_n02093256_2633.png
subject-01,1,645,0.589622020721436,car,dog,0.4,0645_hp_s01_0.4_dog_10_n02108000_7066.png
subject-01,1,646,1.24176812171936,dog,dog,1.5,0646_hp_s01_1.5_dog_10_n02099601_2805.png
subject-01,1,647,0.813302993774414,dog,dog,3,0647_hp_s01_3_dog_10_n02091244_3193.png
subject-01,1,648,1.35093402862549,bird,bicycle,1.5,0648_hp_s01_1.5_bicycle_10_n02835271_358.png
subject-01,1,649,0.708757877349854,knife,boat,0.7,0649_hp_s01_0.7_boat_10_n03344393_9459.png
subject-01,1,650,0.724563121795654,car,truck,1,0650_hp_s01_1_truck_10_n04467665_5053.png
subject-01,1,651,0.598321914672852,truck,truck,0.45,0651_hp_s01_0.45_truck_10_n04467665_36855.png
subject-01,1,652,0.580419063568115,oven,car,0.45,0652_hp_s01_0.45_car_10_n02814533_72255.png
subject-01,1,653,0.600399971008301,airplane,airplane,1.5,0653_hp_s01_1.5_airplane_10_n02690373_5789.png
subject-01,1,654,0.723859071731567,clock,oven,0.4,0654_hp_s01_0.4_oven_10_n04111531_9224.png
subject-01,1,655,0.699617147445679,bird,bird,inf,0655_hp_s01_inf_bird_10_n01798484_4076.png
subject-01,1,656,0.595653057098389,oven,boat,1,0656_hp_s01_1_boat_10_n04612504_1869.png
subject-01,1,657,0.819273948669434,boat,cat,0.45,0657_hp_s01_0.45_cat_10_n02123394_7335.png
subject-01,1,658,0.795114994049072,boat,boat,1,0658_hp_s01_1_boat_10_n04612504_11379.png
subject-01,1,659,0.762938976287842,bicycle,bicycle,1,0659_hp_s01_1_bicycle_10_n03792782_18496.png
subject-01,1,660,0.874711990356445,bear,bear,inf,0660_hp_s01_inf_bear_10_n02133161_8471.png
subject-01,1,661,0.740534067153931,keyboard,keyboard,0.7,0661_hp_s01_0.7_keyboard_10_n04505470_3929.png
subject-01,1,662,0.534183025360107,car,car,0.55,0662_hp_s01_0.55_car_10_n03100240_6822.png
subject-01,1,663,0.50223708152771,airplane,keyboard,0.4,0663_hp_s01_0.4_keyboard_10_n04505470_207.png
subject-01,1,664,0.90236496925354,clock,elephant,0.55,0664_hp_s01_0.55_elephant_10_n02504458_7221.png
subject-01,1,665,1.44183301925659,bottle,bottle,1.5,0665_hp_s01_1.5_bottle_10_n03983396_2091.png
subject-01,1,666,0.809680938720703,boat,knife,0.4,0666_hp_s01_0.4_knife_10_n03041632_30602.png
subject-01,1,667,0.72147798538208,car,oven,0.45,0667_hp_s01_0.45_oven_10_n04111531_7050.png
subject-01,1,668,1.50011301040649,bird,car,0.45,0668_hp_s01_0.45_car_10_n02814533_30383.png
subject-01,1,669,1.1752769947052,cat,cat,0.7,0669_hp_s01_0.7_cat_10_n02124075_7680.png
subject-01,1,670,0.590934038162231,oven,oven,0.55,0670_hp_s01_0.55_oven_10_n04111531_3265.png
subject-01,1,671,0.876880168914795,keyboard,oven,1.5,0671_hp_s01_1.5_oven_10_n04111531_49.png
subject-01,1,672,0.752478122711182,chair,chair,inf,0672_hp_s01_inf_chair_10_n02791124_8099.png
subject-01,1,673,1.36628389358521,oven,bottle,0.7,0673_hp_s01_0.7_bottle_10_n03937543_9606.png
subject-01,1,674,1.19213581085205,cat,cat,inf,0674_hp_s01_inf_cat_10_n02123045_4644.png
subject-01,1,675,0.817945003509521,bicycle,chair,0.55,0675_hp_s01_0.55_chair_10_n03376595_12251.png
subject-01,1,676,0.925747871398926,car,chair,0.7,0676_hp_s01_0.7_chair_10_n04429376_52822.png
subject-01,1,677,1.01589202880859,keyboard,chair,1.5,0677_hp_s01_1.5_chair_10_n04429376_55898.png
subject-01,1,678,0.869592189788818,truck,bicycle,1.5,0678_hp_s01_1.5_bicycle_10_n03792782_5106.png
subject-01,1,679,0.7571861743927,car,bear,0.4,0679_hp_s01_0.4_bear_10_n02134418_5735.png
subject-01,1,680,0.703073024749756,bird,oven,0.45,0680_hp_s01_0.45_oven_10_n04111531_3348.png
subject-01,1,681,0.766834020614624,cat,boat,0.7,0681_hp_s01_0.7_boat_10_n04612504_37043.png
subject-01,1,682,1.29445791244507,car,car,inf,0682_hp_s01_inf_car_10_n02814533_40315.png
subject-01,1,683,1.40653705596924,bird,clock,0.45,0683_hp_s01_0.45_clock_10_n04548280_3782.png
subject-01,1,684,0.800112009048462,knife,knife,1.5,0684_hp_s01_1.5_knife_10_n03041632_36907.png
subject-01,1,685,1.17408204078674,car,car,inf,0685_hp_s01_inf_car_10_n04285008_6587.png
subject-01,1,686,0.927994012832642,boat,oven,0.45,0686_hp_s01_0.45_oven_10_n04111531_9498.png
subject-01,1,687,0.741806030273438,cat,clock,0.7,0687_hp_s01_0.7_clock_10_n03196217_3361.png
subject-01,1,688,1.01350712776184,chair,truck,0.45,0688_hp_s01_0.45_truck_10_n04467665_40002.png
subject-01,1,689,0.807302951812744,keyboard,keyboard,0.7,0689_hp_s01_0.7_keyboard_10_n03085013_20805.png
subject-01,1,690,0.739083051681519,clock,clock,3,0690_hp_s01_3_clock_10_n04548280_9816.png
subject-01,1,691,1.0509021282196,airplane,truck,0.4,0691_hp_s01_0.4_truck_10_n03417042_2293.png
subject-01,1,692,0.826796054840088,dog,dog,1.5,0692_hp_s01_1.5_dog_10_n02086910_730.png
subject-01,1,693,1.24454092979431,car,truck,3,0693_hp_s01_3_truck_10_n04467665_25059.png
subject-01,1,694,0.730282783508301,keyboard,keyboard,3,0694_hp_s01_3_keyboard_10_n03085013_5738.png
subject-01,1,695,0.907958984375,car,bottle,0.7,0695_hp_s01_0.7_bottle_10_n04557648_3775.png
subject-01,1,696,1.50014901161194,clock,bear,0.45,0696_hp_s01_0.45_bear_10_n02134084_22801.png
subject-01,1,697,1.36760711669922,airplane,airplane,3,0697_hp_s01_3_airplane_10_n02690373_3468.png
subject-01,1,698,0.895601987838745,truck,clock,0.45,0698_hp_s01_0.45_clock_10_n04548280_4713.png
subject-01,1,699,0.545497894287109,oven,bird,0.4,0699_hp_s01_0.4_bird_10_n02051845_3351.png
subject-01,1,700,0.771275997161865,clock,elephant,3,0700_hp_s01_3_elephant_10_n02504458_6762.png
subject-01,1,701,0.995122909545898,boat,bicycle,0.4,0701_hp_s01_0.4_bicycle_10_n03792782_2327.png
subject-01,1,702,0.660824775695801,cat,bicycle,3,0702_hp_s01_3_bicycle_10_n03792782_19985.png
subject-01,1,703,1.12265515327454,bear,bear,3,0703_hp_s01_3_bear_10_n02134084_2970.png
subject-01,1,704,1.0685510635376,car,truck,0.55,0704_hp_s01_0.55_truck_10_n03417042_10642.png
subject-01,1,705,1.16011190414429,boat,boat,3,0705_hp_s01_3_boat_10_n03662601_3938.png
subject-01,1,706,0.888021945953369,boat,chair,0.4,0706_hp_s01_0.4_chair_10_n02791124_9414.png
subject-01,1,707,0.584173917770386,cat,clock,0.55,0707_hp_s01_0.55_clock_10_n04548280_3605.png
subject-01,1,708,0.573612928390503,boat,bottle,0.7,0708_hp_s01_0.7_bottle_10_n04579145_2196.png
subject-01,1,709,0.659989833831787,bottle,knife,0.7,0709_hp_s01_0.7_knife_10_n03041632_5801.png
subject-01,1,710,1.06535911560059,chair,boat,0.4,0710_hp_s01_0.4_boat_10_n02951358_11867.png
subject-01,1,711,0.821082830429077,clock,clock,1,0711_hp_s01_1_clock_10_n02708093_3266.png
subject-01,1,712,1.42887401580811,oven,bicycle,0.55,0712_hp_s01_0.55_bicycle_10_n03792782_4251.png
subject-01,1,713,1.00895094871521,dog,bear,1,0713_hp_s01_1_bear_10_n02132136_11125.png
subject-01,1,714,1.34454202651978,elephant,elephant,3,0714_hp_s01_3_elephant_10_n02504458_6821.png
subject-01,1,715,1.50002694129944,clock,truck,3,0715_hp_s01_3_truck_10_n04467665_77214.png
subject-01,1,716,1.30624914169312,bear,clock,1.5,0716_hp_s01_1.5_clock_10_n03196217_10190.png
subject-01,1,717,0.82804799079895,elephant,elephant,inf,0717_hp_s01_inf_elephant_10_n02504458_1506.png
subject-01,1,718,0.800209045410156,boat,boat,inf,0718_hp_s01_inf_boat_10_n02951358_4189.png
subject-01,1,719,0.771590948104858,oven,bear,0.55,0719_hp_s01_0.55_bear_10_n02132136_9311.png
subject-01,1,720,0.533512115478516,clock,airplane,inf,0720_hp_s01_inf_airplane_10_n02690373_5564.png
subject-01,1,721,0.635322093963623,clock,airplane,0.45,0721_hp_s01_0.45_airplane_10_n02690373_798.png
subject-01,1,722,NaN,na,airplane,0.7,0722_hp_s01_0.7_airplane_10_n02690373_9642.png
subject-01,1,723,0.6248619556427,boat,bear,0.7,0723_hp_s01_0.7_bear_10_n02132136_19995.png
subject-01,1,724,0.730724811553955,bicycle,bicycle,inf,0724_hp_s01_inf_bicycle_10_n02835271_14914.png
subject-01,1,725,0.532668113708496,boat,chair,0.55,0725_hp_s01_0.55_chair_10_n03376595_1862.png
subject-01,1,726,0.544315099716187,bottle,bird,0.55,0726_hp_s01_0.55_bird_10_n01824575_8564.png
subject-01,1,727,0.610411167144775,knife,knife,inf,0727_hp_s01_inf_knife_10_n03041632_40450.png
subject-01,1,728,0.558206081390381,truck,chair,0.45,0728_hp_s01_0.45_chair_10_n03376595_8196.png
subject-01,1,729,0.765746831893921,boat,boat,inf,0729_hp_s01_inf_boat_10_n03662601_5968.png
subject-01,1,730,0.789638042449951,oven,car,0.55,0730_hp_s01_0.55_car_10_n03100240_3241.png
subject-01,1,731,0.651427030563354,cat,cat,inf,0731_hp_s01_inf_cat_10_n02125311_18354.png
subject-01,1,732,0.835623025894165,dog,oven,0.55,0732_hp_s01_0.55_oven_10_n04111531_11505.png
subject-01,1,733,0.541311979293823,clock,clock,1,0733_hp_s01_1_clock_10_n04548280_4229.png
subject-01,1,734,0.670997858047485,oven,car,0.55,0734_hp_s01_0.55_car_10_n02814533_12532.png
subject-01,1,735,1.44460201263428,chair,chair,1.5,0735_hp_s01_1.5_chair_10_n03376595_99.png
subject-01,1,736,0.592435121536255,boat,keyboard,0.4,0736_hp_s01_0.4_keyboard_10_n04505470_9762.png
subject-01,1,737,1.37825703620911,bear,bear,3,0737_hp_s01_3_bear_10_n02132136_7647.png
subject-01,1,738,0.790005922317505,clock,bottle,0.45,0738_hp_s01_0.45_bottle_10_n04560804_19619.png
subject-01,1,739,0.709868907928467,car,truck,0.7,0739_hp_s01_0.7_truck_10_n03417042_4292.png
subject-01,1,740,0.74777889251709,clock,elephant,0.4,0740_hp_s01_0.4_elephant_10_n02504458_3163.png
subject-01,1,741,0.753866910934448,elephant,elephant,1.5,0741_hp_s01_1.5_elephant_10_n02504458_7144.png
subject-01,1,742,0.683345794677734,oven,bear,0.55,0742_hp_s01_0.55_bear_10_n02133161_4049.png
subject-01,1,743,0.8231041431427,bear,bottle,0.7,0743_hp_s01_0.7_bottle_10_n04591713_7074.png
subject-01,1,744,0.907380104064941,elephant,bear,inf,0744_hp_s01_inf_bear_10_n02132136_13370.png
subject-01,1,745,0.563311100006104,clock,clock,inf,0745_hp_s01_inf_clock_10_n03196217_4844.png
subject-01,1,746,0.656718969345093,car,car,3,0746_hp_s01_3_car_10_n04285008_5467.png
subject-01,1,747,NaN,na,chair,1,0747_hp_s01_1_chair_10_n04429376_24578.png
subject-01,1,748,1.1623809337616,bird,bird,3,0748_hp_s01_3_bird_10_n02037110_11362.png
subject-01,1,749,0.619997978210449,boat,boat,3,0749_hp_s01_3_boat_10_n03344393_5801.png
subject-01,1,750,0.58578896522522,clock,airplane,0.7,0750_hp_s01_0.7_airplane_10_n02690373_8611.png
subject-01,1,751,0.657841920852661,truck,elephant,0.7,0751_hp_s01_0.7_elephant_10_n02504013_21877.png
subject-01,1,752,0.673650979995728,car,keyboard,1,0752_hp_s01_1_keyboard_10_n03085013_20483.png
subject-01,1,753,0.705243110656738,airplane,bottle,0.7,0753_hp_s01_0.7_bottle_10_n04579145_3660.png
subject-01,1,754,0.603029012680054,truck,truck,inf,0754_hp_s01_inf_truck_10_n04467665_83611.png
subject-01,1,755,0.642936944961548,keyboard,cat,0.4,0755_hp_s01_0.4_cat_10_n02123159_6381.png
subject-01,1,756,0.77672815322876,knife,truck,0.55,0756_hp_s01_0.55_truck_10_n04467665_67853.png
subject-01,1,757,0.494635105133057,boat,keyboard,0.55,0757_hp_s01_0.55_keyboard_10_n03085013_24510.png
subject-01,1,758,0.89828085899353,airplane,airplane,1,0758_hp_s01_1_airplane_10_n02690373_4202.png
subject-01,1,759,0.830358028411865,bicycle,bicycle,inf,0759_hp_s01_inf_bicycle_10_n02835271_8512.png
subject-01,1,760,0.688014030456543,bird,bird,1.5,0760_hp_s01_1.5_bird_10_n01537544_1126.png
subject-01,1,761,0.891824960708618,car,bicycle,0.55,0761_hp_s01_0.55_bicycle_10_n02835271_12123.png
subject-01,1,762,NaN,na,oven,0.7,0762_hp_s01_0.7_oven_10_n04111531_537.png
subject-01,1,763,0.84931492805481,elephant,elephant,1,0763_hp_s01_1_elephant_10_n02504013_6904.png
subject-01,1,764,0.507369041442871,truck,bottle,0.55,0764_hp_s01_0.55_bottle_10_n03937543_4098.png
subject-01,1,765,0.563130855560303,clock,bottle,0.4,0765_hp_s01_0.4_bottle_10_n04591713_7528.png
subject-01,1,766,0.782905101776123,elephant,elephant,inf,0766_hp_s01_inf_elephant_10_n02504013_648.png
subject-01,1,767,0.736594915390015,chair,chair,inf,0767_hp_s01_inf_chair_10_n03376595_9926.png
subject-01,1,768,0.632375001907349,airplane,oven,1,0768_hp_s01_1_oven_10_n04111531_5781.png
subject-01,1,769,0.750434160232544,bicycle,chair,3,0769_hp_s01_3_chair_10_n02791124_1023.png
subject-01,1,770,0.688117980957031,dog,dog,inf,0770_hp_s01_inf_dog_10_n02099429_1915.png
subject-01,1,771,0.863870859146118,airplane,bear,0.7,0771_hp_s01_0.7_bear_10_n02134084_5004.png
subject-01,1,772,0.625762939453125,car,knife,0.55,0772_hp_s01_0.55_knife_10_n03041632_86554.png
subject-01,1,773,NaN,na,oven,inf,0773_hp_s01_inf_oven_10_n04111531_5802.png
subject-01,1,774,0.769479036331177,car,car,3,0774_hp_s01_3_car_10_n04285008_6030.png
subject-01,1,775,0.71148419380188,knife,knife,1,0775_hp_s01_1_knife_10_n03041632_39836.png
subject-01,1,776,0.729377031326294,bear,oven,1.5,0776_hp_s01_1.5_oven_10_n04111531_6810.png
subject-01,1,777,0.686936140060425,car,car,3,0777_hp_s01_3_car_10_n03100240_2420.png
subject-01,1,778,0.496592044830322,keyboard,keyboard,3,0778_hp_s01_3_keyboard_10_n03085013_19401.png
subject-01,1,779,0.634454011917114,chair,chair,inf,0779_hp_s01_inf_chair_10_n04099969_7399.png
subject-01,1,780,0.540179967880249,cat,keyboard,0.4,0780_hp_s01_0.4_keyboard_10_n03085013_20736.png
subject-01,1,781,0.425969123840332,oven,oven,0.7,0781_hp_s01_0.7_oven_10_n04111531_686.png
subject-01,1,782,0.455981969833374,truck,bear,0.45,0782_hp_s01_0.45_bear_10_n02132136_2875.png
subject-01,1,783,0.931733846664429,bicycle,bicycle,1,0783_hp_s01_1_bicycle_10_n02835271_1525.png
subject-01,1,784,0.791546106338501,elephant,elephant,inf,0784_hp_s01_inf_elephant_10_n02504013_6769.png
subject-01,1,785,0.783554077148438,oven,cat,3,0785_hp_s01_3_cat_10_n02124075_9613.png
subject-01,1,786,1.09307098388672,cat,cat,0.55,0786_hp_s01_0.55_cat_10_n02125311_15099.png
subject-01,1,787,1.19302296638489,bicycle,truck,1,0787_hp_s01_1_truck_10_n04467665_7069.png
subject-01,1,788,0.714607954025269,dog,dog,inf,0788_hp_s01_inf_dog_10_n02108915_11897.png
subject-01,1,789,0.680452108383179,clock,bottle,0.4,0789_hp_s01_0.4_bottle_10_n04557648_1107.png
subject-01,1,790,0.71042799949646,boat,bottle,0.55,0790_hp_s01_0.55_bottle_10_n03937543_2874.png
subject-01,1,791,0.740067005157471,keyboard,truck,0.45,0791_hp_s01_0.45_truck_10_n04467665_46192.png
subject-01,1,792,0.995916843414307,elephant,elephant,0.4,0792_hp_s01_0.4_elephant_10_n02504458_63.png
subject-01,1,793,0.559803009033203,chair,oven,0.45,0793_hp_s01_0.45_oven_10_n04111531_4346.png
subject-01,1,794,0.86356782913208,knife,chair,0.45,0794_hp_s01_0.45_chair_10_n03376595_14970.png
subject-01,1,795,1.20722222328186,bicycle,airplane,0.45,0795_hp_s01_0.45_airplane_10_n02690373_8204.png
subject-01,1,796,0.667181015014648,bear,airplane,0.4,0796_hp_s01_0.4_airplane_10_n02690373_20042.png
subject-01,1,797,0.936956882476807,airplane,bottle,0.4,0797_hp_s01_0.4_bottle_10_n03983396_1151.png
subject-01,1,798,0.630979061126709,oven,dog,0.7,0798_hp_s01_0.7_dog_10_n02096051_988.png
subject-01,1,799,0.480792999267578,boat,boat,0.4,0799_hp_s01_0.4_boat_10_n03344393_7394.png
subject-01,1,800,0.506845951080322,clock,clock,1.5,0800_hp_s01_1.5_clock_10_n03196217_8943.png
subject-01,1,801,0.61561393737793,boat,bicycle,0.55,0801_hp_s01_0.55_bicycle_10_n03792782_9412.png
subject-01,1,802,0.549190998077393,cat,bear,3,0802_hp_s01_3_bear_10_n02132136_2236.png
subject-01,1,803,0.773208856582642,dog,cat,1,0803_hp_s01_1_cat_10_n02125311_12070.png
subject-01,1,804,0.590864896774292,cat,cat,3,0804_hp_s01_3_cat_10_n02124075_5631.png
subject-01,1,805,0.552547931671143,bear,dog,0.7,0805_hp_s01_0.7_dog_10_n02101006_16129.png
subject-01,1,806,0.52849292755127,boat,boat,0.4,0806_hp_s01_0.4_boat_10_n03344393_4509.png
subject-01,1,807,0.846735954284668,bird,bird,3,0807_hp_s01_3_bird_10_n01514859_8585.png
subject-01,1,808,0.698160171508789,car,bird,0.4,0808_hp_s01_0.4_bird_10_n02011460_19684.png
subject-01,1,809,0.831876993179321,airplane,boat,0.4,0809_hp_s01_0.4_boat_10_n02951358_343.png
subject-01,1,810,1.18781781196594,truck,keyboard,1.5,0810_hp_s01_1.5_keyboard_10_n04505470_5275.png
subject-01,1,811,0.591447114944458,car,elephant,0.55,0811_hp_s01_0.55_elephant_10_n02504013_407.png
subject-01,1,812,0.979367971420288,bird,bird,3,0812_hp_s01_3_bird_10_n02037110_32120.png
subject-01,1,813,0.759162902832031,clock,clock,1,0813_hp_s01_1_clock_10_n03196217_5079.png
subject-01,1,814,0.704943895339966,bird,bird,inf,0814_hp_s01_inf_bird_10_n01820546_6625.png
subject-01,1,815,0.672899007797241,bicycle,cat,0.7,0815_hp_s01_0.7_cat_10_n02123597_22264.png
subject-01,1,816,0.63878321647644,oven,elephant,1,0816_hp_s01_1_elephant_10_n02504458_6248.png
subject-01,1,817,1.47843408584595,knife,knife,0.7,0817_hp_s01_0.7_knife_10_n03041632_91582.png
subject-01,1,818,0.624579906463623,bottle,bottle,1.5,0818_hp_s01_1.5_bottle_10_n04579145_1174.png
subject-01,1,819,1.26194405555725,bear,car,0.4,0819_hp_s01_0.4_car_10_n03100240_6836.png
subject-01,1,820,1.09376788139343,car,truck,1.5,0820_hp_s01_1.5_truck_10_n03417042_1770.png
subject-01,1,821,0.577784061431885,clock,cat,0.55,0821_hp_s01_0.55_cat_10_n02125311_22122.png
subject-01,1,822,0.887537956237793,keyboard,keyboard,1.5,0822_hp_s01_1.5_keyboard_10_n03085013_23583.png
subject-01,1,823,0.705619812011719,bottle,bottle,inf,0823_hp_s01_inf_bottle_10_n03983396_4996.png
subject-01,1,824,0.793142795562744,bird,bird,3,0824_hp_s01_3_bird_10_n01828970_15425.png
subject-01,1,825,0.632859945297241,truck,truck,inf,0825_hp_s01_inf_truck_10_n03417042_8518.png
subject-01,1,826,0.51318883895874,boat,boat,inf,0826_hp_s01_inf_boat_10_n03662601_4295.png
subject-01,1,827,0.982564926147461,keyboard,keyboard,0.7,0827_hp_s01_0.7_keyboard_10_n04505470_4569.png
subject-01,1,828,0.622246026992798,clock,airplane,0.7,0828_hp_s01_0.7_airplane_10_n02690373_6328.png
subject-01,1,829,0.564245939254761,boat,cat,0.55,0829_hp_s01_0.55_cat_10_n02123045_5080.png
subject-01,1,830,1.16207003593445,knife,oven,3,0830_hp_s01_3_oven_10_n04111531_4826.png
subject-01,1,831,0.925656080245972,keyboard,oven,0.7,0831_hp_s01_0.7_oven_10_n04111531_8688.png
subject-01,1,832,0.997507095336914,bicycle,bear,1,0832_hp_s01_1_bear_10_n02134084_3795.png
subject-01,1,833,0.79548192024231,clock,clock,0.55,0833_hp_s01_0.55_clock_10_n02708093_5236.png
subject-01,1,834,0.823627948760986,keyboard,keyboard,inf,0834_hp_s01_inf_keyboard_10_n04505470_4138.png
subject-01,1,835,0.720961093902588,car,keyboard,0.4,0835_hp_s01_0.4_keyboard_10_n03085013_20923.png
subject-01,1,836,0.726840019226074,cat,oven,0.55,0836_hp_s01_0.55_oven_10_n04111531_3082.png
subject-01,1,837,NaN,na,airplane,0.7,0837_hp_s01_0.7_airplane_10_n02690373_6739.png
subject-01,1,838,1.50008702278137,bear,dog,3,0838_hp_s01_3_dog_10_n02098286_4467.png
subject-01,1,839,0.662255048751831,boat,oven,0.4,0839_hp_s01_0.4_oven_10_n04111531_1330.png
subject-01,1,840,0.414111137390137,cat,chair,0.7,0840_hp_s01_0.7_chair_10_n03376595_11839.png
subject-01,1,841,0.638028144836426,oven,dog,1,0841_hp_s01_1_dog_10_n02088238_2234.png
subject-01,1,842,0.869693994522095,knife,knife,3,0842_hp_s01_3_knife_10_n03041632_31363.png
subject-01,1,843,0.827435970306396,clock,clock,inf,0843_hp_s01_inf_clock_10_n02708093_6918.png
subject-01,1,844,0.713330030441284,bottle,bottle,inf,0844_hp_s01_inf_bottle_10_n04557648_91.png
subject-01,1,845,1.06505417823792,car,car,3,0845_hp_s01_3_car_10_n03100240_1879.png
subject-01,1,846,0.85877799987793,clock,clock,inf,0846_hp_s01_inf_clock_10_n04548280_7930.png
subject-01,1,847,0.624636888504028,bird,bird,3,0847_hp_s01_3_bird_10_n01560419_1738.png
subject-01,1,848,0.774482011795044,bicycle,bicycle,1.5,0848_hp_s01_1.5_bicycle_10_n02835271_1874.png
subject-01,1,849,1.36632299423218,airplane,car,0.45,0849_hp_s01_0.45_car_10_n03100240_12361.png
subject-01,1,850,0.814153909683228,truck,bicycle,0.7,0850_hp_s01_0.7_bicycle_10_n02835271_31150.png
subject-01,1,851,0.829920053482056,elephant,bottle,inf,0851_hp_s01_inf_bottle_10_n02823428_4245.png
subject-01,1,852,0.913652896881104,dog,car,0.45,0852_hp_s01_0.45_car_10_n03100240_1856.png
subject-01,1,853,1.27761292457581,boat,keyboard,1.5,0853_hp_s01_1.5_keyboard_10_n03085013_26556.png
subject-01,1,854,0.753375053405762,airplane,elephant,0.45,0854_hp_s01_0.45_elephant_10_n02504458_4137.png
subject-01,1,855,0.703240156173706,cat,cat,inf,0855_hp_s01_inf_cat_10_n02123045_12659.png
subject-01,1,856,0.677114963531494,car,boat,0.45,0856_hp_s01_0.45_boat_10_n03662601_14982.png
subject-01,1,857,1.31485891342163,airplane,airplane,1,0857_hp_s01_1_airplane_10_n02690373_10210.png
subject-01,1,858,1.49063181877136,car,airplane,0.45,0858_hp_s01_0.45_airplane_10_n02690373_18871.png
subject-01,1,859,1.02863502502441,truck,chair,3,0859_hp_s01_3_chair_10_n04429376_22344.png
subject-01,1,860,1.2463800907135,bear,bear,inf,0860_hp_s01_inf_bear_10_n02134084_24136.png
subject-01,1,861,0.93655800819397,bicycle,bicycle,1.5,0861_hp_s01_1.5_bicycle_10_n03792782_11945.png
subject-01,1,862,1.32800483703613,airplane,bottle,0.45,0862_hp_s01_0.45_bottle_10_n04591713_2581.png
subject-01,1,863,1.44591498374939,clock,airplane,0.45,0863_hp_s01_0.45_airplane_10_n02690373_2692.png
subject-01,1,864,0.727688074111938,car,boat,0.4,0864_hp_s01_0.4_boat_10_n04273569_3978.png
subject-01,1,865,0.753898859024048,chair,truck,0.4,0865_hp_s01_0.4_truck_10_n03796401_4423.png
subject-01,1,866,0.613147020339966,keyboard,bird,0.4,0866_hp_s01_0.4_bird_10_n02002556_121.png
subject-01,1,867,0.783061027526855,keyboard,keyboard,1,0867_hp_s01_1_keyboard_10_n03085013_24115.png
subject-01,1,868,0.782729148864746,airplane,bird,0.55,0868_hp_s01_0.55_bird_10_n02033041_2082.png
subject-01,1,869,0.576681852340698,truck,car,0.45,0869_hp_s01_0.45_car_10_n04285008_3911.png
subject-01,1,870,0.698878049850464,bottle,bottle,0.4,0870_hp_s01_0.4_bottle_10_n02823428_11.png
subject-01,1,871,0.762263059616089,knife,knife,inf,0871_hp_s01_inf_knife_10_n03041632_46422.png
subject-01,1,872,0.928071022033691,truck,oven,0.7,0872_hp_s01_0.7_oven_10_n04111531_9838.png
subject-01,1,873,0.611908912658691,airplane,airplane,3,0873_hp_s01_3_airplane_10_n02690373_3860.png
subject-01,1,874,0.723615169525146,clock,bicycle,0.7,0874_hp_s01_0.7_bicycle_10_n02835271_12666.png
subject-01,1,875,0.607365846633911,airplane,airplane,inf,0875_hp_s01_inf_airplane_10_n02690373_15411.png
subject-01,1,876,0.795724868774414,bicycle,bicycle,0.7,0876_hp_s01_0.7_bicycle_10_n02835271_4677.png
subject-01,1,877,0.69948410987854,bird,bird,1,0877_hp_s01_1_bird_10_n02025239_1443.png
subject-01,1,878,0.721041917800903,bicycle,bicycle,3,0878_hp_s01_3_bicycle_10_n03792782_6152.png
subject-01,1,879,0.982874155044556,boat,truck,3,0879_hp_s01_3_truck_10_n03417042_3748.png
subject-01,1,880,1.23476600646973,car,car,1.5,0880_hp_s01_1.5_car_10_n03100240_17028.png
subject-01,1,881,0.676408052444458,airplane,bicycle,0.7,0881_hp_s01_0.7_bicycle_10_n03792782_10655.png
subject-01,1,882,0.596024990081787,oven,oven,1.5,0882_hp_s01_1.5_oven_10_n04111531_1830.png
subject-01,1,883,0.815968990325928,clock,truck,0.45,0883_hp_s01_0.45_truck_10_n03417042_2315.png
subject-01,1,884,0.365892887115479,boat,oven,0.4,0884_hp_s01_0.4_oven_10_n04111531_15569.png
subject-01,1,885,0.449844121932983,cat,cat,0.55,0885_hp_s01_0.55_cat_10_n02123394_3607.png
subject-01,1,886,0.559474945068359,oven,airplane,0.4,0886_hp_s01_0.4_airplane_10_n02690373_191.png
subject-01,1,887,0.743309020996094,car,chair,0.7,0887_hp_s01_0.7_chair_10_n04099969_16512.png
subject-01,1,888,0.704942941665649,truck,truck,3,0888_hp_s01_3_truck_10_n03417042_4614.png
subject-01,1,889,0.922751188278198,airplane,airplane,3,0889_hp_s01_3_airplane_10_n02690373_3153.png
subject-01,1,890,0.658992052078247,boat,boat,3,0890_hp_s01_3_boat_10_n03662601_2197.png
subject-01,1,891,0.522336959838867,car,car,1.5,0891_hp_s01_1.5_car_10_n02814533_4501.png
subject-01,1,892,1.00846409797668,bicycle,knife,3,0892_hp_s01_3_knife_10_n03041632_18468.png
subject-01,1,893,0.732280015945435,boat,oven,0.7,0893_hp_s01_0.7_oven_10_n04111531_8117.png
subject-01,1,894,0.708367824554443,bottle,bottle,inf,0894_hp_s01_inf_bottle_10_n04560804_16526.png
subject-01,1,895,0.96766996383667,truck,boat,3,0895_hp_s01_3_boat_10_n03662601_34042.png
subject-01,1,896,0.615681171417236,boat,airplane,0.55,0896_hp_s01_0.55_airplane_10_n02690373_1663.png
subject-01,1,897,0.715354919433594,boat,truck,0.45,0897_hp_s01_0.45_truck_10_n03417042_5809.png
subject-01,1,898,0.729257106781006,keyboard,knife,0.55,0898_hp_s01_0.55_knife_10_n03041632_5302.png
subject-01,1,899,0.788964033126831,bottle,oven,0.55,0899_hp_s01_0.55_oven_10_n04111531_3977.png
subject-01,1,900,1.02258396148682,bottle,chair,inf,0900_hp_s01_inf_chair_10_n03376595_9165.png
subject-01,1,901,0.902606010437012,car,car,inf,0901_hp_s01_inf_car_10_n04285008_8921.png
subject-01,1,902,0.818290948867798,cat,bicycle,0.4,0902_hp_s01_0.4_bicycle_10_n02835271_9280.png
subject-01,1,903,0.784080982208252,oven,clock,0.4,0903_hp_s01_0.4_clock_10_n02708093_3743.png
subject-01,1,904,0.806033849716187,clock,boat,0.55,0904_hp_s01_0.55_boat_10_n04273569_18089.png
subject-01,1,905,0.902212142944336,boat,truck,0.45,0905_hp_s01_0.45_truck_10_n03417042_2603.png
subject-01,1,906,0.707529067993164,keyboard,keyboard,0.45,0906_hp_s01_0.45_keyboard_10_n03085013_5622.png
subject-01,1,907,0.759541034698486,chair,truck,0.55,0907_hp_s01_0.55_truck_10_n04467665_22585.png
subject-01,1,908,1.00336289405823,airplane,bird,1,0908_hp_s01_1_bird_10_n01560419_3160.png
subject-01,1,909,NaN,na,knife,1.5,0909_hp_s01_1.5_knife_10_n03041632_13518.png
subject-01,1,910,0.739190101623535,bicycle,dog,0.45,0910_hp_s01_0.45_dog_10_n02099712_1184.png
subject-01,1,911,0.544713020324707,clock,bicycle,0.4,0911_hp_s01_0.4_bicycle_10_n02835271_1918.png
subject-01,1,912,0.614563941955566,airplane,car,0.4,0912_hp_s01_0.4_car_10_n02814533_87793.png
subject-01,1,913,1.06674790382385,car,bear,0.7,0913_hp_s01_0.7_bear_10_n02133161_4161.png
subject-01,1,914,0.728146076202393,chair,bird,0.7,0914_hp_s01_0.7_bird_10_n02009229_851.png
subject-01,1,915,0.977905988693237,bicycle,bicycle,inf,0915_hp_s01_inf_bicycle_10_n02835271_1299.png
subject-01,1,916,1.22775197029114,truck,truck,3,0916_hp_s01_3_truck_10_n03796401_7487.png
subject-01,1,917,1.01992201805115,keyboard,airplane,0.45,0917_hp_s01_0.45_airplane_10_n02690373_1547.png
subject-01,1,918,0.785208940505981,elephant,boat,0.55,0918_hp_s01_0.55_boat_10_n04273569_29711.png
subject-01,1,919,0.775330066680908,chair,oven,1,0919_hp_s01_1_oven_10_n04111531_2458.png
subject-01,1,920,0.76490306854248,bicycle,knife,1.5,0920_hp_s01_1.5_knife_10_n03041632_1201.png
subject-01,1,921,0.581179857254028,cat,oven,3,0921_hp_s01_3_oven_10_n04111531_2042.png
subject-01,1,922,0.744553089141846,clock,clock,1,0922_hp_s01_1_clock_10_n04548280_8668.png
subject-01,1,923,0.750298023223877,clock,cat,0.7,0923_hp_s01_0.7_cat_10_n02123159_7161.png
subject-01,1,924,0.906122922897339,airplane,airplane,0.7,0924_hp_s01_0.7_airplane_10_n02690373_3313.png
subject-01,1,925,0.644305944442749,car,elephant,0.45,0925_hp_s01_0.45_elephant_10_n02504458_6472.png
subject-01,1,926,0.889899969100952,bicycle,dog,1.5,0926_hp_s01_1.5_dog_10_n02110063_11495.png
subject-01,1,927,0.617710113525391,truck,boat,0.55,0927_hp_s01_0.55_boat_10_n03344393_4502.png
subject-01,1,928,0.945591926574707,chair,chair,1.5,0928_hp_s01_1.5_chair_10_n03376595_2646.png
subject-01,1,929,0.671306133270264,chair,chair,1,0929_hp_s01_1_chair_10_n04099969_1040.png
subject-01,1,930,1.3550820350647,boat,bottle,0.45,0930_hp_s01_0.45_bottle_10_n04557648_413.png
subject-01,1,931,1.42478799819946,cat,oven,3,0931_hp_s01_3_oven_10_n04111531_2066.png
subject-01,1,932,0.886643886566162,bicycle,bicycle,1.5,0932_hp_s01_1.5_bicycle_10_n03792782_66837.png
subject-01,1,933,1.16443109512329,boat,bottle,0.45,0933_hp_s01_0.45_bottle_10_n04591713_475.png
subject-01,1,934,0.580292940139771,clock,boat,1.5,0934_hp_s01_1.5_boat_10_n02951358_30635.png
subject-01,1,935,1.28018522262573,bottle,chair,1.5,0935_hp_s01_1.5_chair_10_n02791124_2825.png
subject-01,1,936,1.20007801055908,elephant,elephant,inf,0936_hp_s01_inf_elephant_10_n02504013_5839.png
subject-01,1,937,0.837733030319214,clock,clock,1.5,0937_hp_s01_1.5_clock_10_n04548280_5843.png
subject-01,1,938,1.15969491004944,chair,car,0.45,0938_hp_s01_0.45_car_10_n04285008_12457.png
subject-01,1,939,0.861448049545288,bottle,bottle,1.5,0939_hp_s01_1.5_bottle_10_n03983396_12916.png
subject-01,1,940,1.05922889709473,oven,oven,inf,0940_hp_s01_inf_oven_10_n04111531_8959.png
subject-01,1,941,0.705052137374878,clock,dog,0.4,0941_hp_s01_0.4_dog_10_n02107908_10107.png
subject-01,1,942,1.08903479576111,oven,oven,3,0942_hp_s01_3_oven_10_n04111531_1313.png
subject-01,1,943,0.574584007263184,car,bear,0.55,0943_hp_s01_0.55_bear_10_n02133161_489.png
subject-01,1,944,0.728403091430664,cat,knife,0.7,0944_hp_s01_0.7_knife_10_n03041632_39739.png
subject-01,1,945,0.570413112640381,airplane,knife,0.45,0945_hp_s01_0.45_knife_10_n03041632_26933.png
subject-01,1,946,0.736466884613037,bear,bear,3,0946_hp_s01_3_bear_10_n02132136_17524.png
subject-01,1,947,0.873878955841064,clock,keyboard,0.45,0947_hp_s01_0.45_keyboard_10_n03085013_11399.png
subject-01,1,948,1.50004506111145,boat,boat,inf,0948_hp_s01_inf_boat_10_n04273569_3409.png
subject-01,1,949,0.667437076568604,clock,dog,0.45,0949_hp_s01_0.45_dog_10_n02111500_2111.png
subject-01,1,950,1.47531294822693,clock,chair,0.45,0950_hp_s01_0.45_chair_10_n03376595_9851.png
subject-01,1,951,1.09505987167358,oven,bear,0.55,0951_hp_s01_0.55_bear_10_n02134084_1949.png
subject-01,1,952,0.931073188781738,chair,airplane,0.4,0952_hp_s01_0.4_airplane_10_n02690373_7055.png
subject-01,1,953,1.40465211868286,bottle,clock,0.7,0953_hp_s01_0.7_clock_10_n03196217_219.png
subject-01,1,954,1.28249096870422,bird,knife,0.4,0954_hp_s01_0.4_knife_10_n03041632_32197.png
subject-01,1,955,1.24440121650696,car,dog,1,0955_hp_s01_1_dog_10_n02105162_1601.png
subject-01,1,956,0.774324178695679,cat,cat,inf,0956_hp_s01_inf_cat_10_n02125311_1746.png
subject-01,1,957,0.957993984222412,chair,knife,0.45,0957_hp_s01_0.45_knife_10_n03041632_56172.png
subject-01,1,958,0.554015159606934,keyboard,airplane,0.4,0958_hp_s01_0.4_airplane_10_n02690373_17718.png
subject-01,1,959,0.583648920059204,clock,bird,0.45,0959_hp_s01_0.45_bird_10_n01855032_4295.png
subject-01,1,960,0.637404918670654,boat,car,0.55,0960_hp_s01_0.55_car_10_n02814533_6178.png
subject-01,1,961,0.738040924072266,clock,knife,0.45,0961_hp_s01_0.45_knife_10_n03041632_4443.png
subject-01,1,962,1.00967502593994,cat,cat,1.5,0962_hp_s01_1.5_cat_10_n02125311_4034.png
subject-01,1,963,1.48521208763123,bicycle,clock,0.7,0963_hp_s01_0.7_clock_10_n02708093_7821.png
subject-01,1,964,0.529169082641602,truck,truck,inf,0964_hp_s01_inf_truck_10_n04467665_55193.png
subject-01,1,965,0.663083076477051,cat,cat,1.5,0965_hp_s01_1.5_cat_10_n02123394_3813.png
subject-01,1,966,0.644828081130981,car,cat,0.55,0966_hp_s01_0.55_cat_10_n02123159_5429.png
subject-01,1,967,0.642403125762939,cat,cat,1.5,0967_hp_s01_1.5_cat_10_n02123045_12040.png
subject-01,1,968,0.782299995422363,chair,chair,1,0968_hp_s01_1_chair_10_n02791124_2689.png
subject-01,1,969,0.672075986862183,bird,bird,1,0969_hp_s01_1_bird_10_n01860187_1191.png
subject-01,1,970,0.658077001571655,truck,truck,3,0970_hp_s01_3_truck_10_n03417042_3821.png
subject-01,1,971,0.639623880386353,airplane,dog,0.4,0971_hp_s01_0.4_dog_10_n02112350_279.png
subject-01,1,972,0.619582891464233,keyboard,cat,0.55,0972_hp_s01_0.55_cat_10_n02123159_8240.png
subject-01,1,973,1.29563307762146,bird,clock,1.5,0973_hp_s01_1.5_clock_10_n04548280_6122.png
subject-01,1,974,0.675419092178345,car,car,1,0974_hp_s01_1_car_10_n04285008_9452.png
subject-01,1,975,0.866786956787109,truck,truck,inf,0975_hp_s01_inf_truck_10_n04467665_33086.png
subject-01,1,976,0.966795921325684,elephant,elephant,1,0976_hp_s01_1_elephant_10_n02504458_6301.png
subject-01,1,977,NaN,na,boat,0.55,0977_hp_s01_0.55_boat_10_n03344393_4349.png
subject-01,1,978,0.638784885406494,boat,boat,0.7,0978_hp_s01_0.7_boat_10_n03344393_3345.png
subject-01,1,979,0.916214942932129,bear,bear,inf,0979_hp_s01_inf_bear_10_n02133161_4580.png
subject-01,1,980,0.709975004196167,cat,cat,1,0980_hp_s01_1_cat_10_n02123159_4376.png
subject-01,1,981,0.731939077377319,keyboard,clock,0.45,0981_hp_s01_0.45_clock_10_n04548280_2399.png
subject-01,1,982,0.586085081100464,bicycle,bicycle,inf,0982_hp_s01_inf_bicycle_10_n03792782_6512.png
subject-01,1,983,0.831405162811279,knife,knife,1,0983_hp_s01_1_knife_10_n03041632_12707.png
subject-01,1,984,1.23135805130005,keyboard,bottle,1,0984_hp_s01_1_bottle_10_n04591713_1649.png
subject-01,1,985,0.589282035827637,boat,boat,1.5,0985_hp_s01_1.5_boat_10_n02951358_2813.png
subject-01,1,986,0.628812789916992,clock,boat,0.55,0986_hp_s01_0.55_boat_10_n02951358_9884.png
subject-01,1,987,0.518622159957886,boat,boat,0.7,0987_hp_s01_0.7_boat_10_n03344393_2941.png
subject-01,1,988,0.790454864501953,bird,cat,0.45,0988_hp_s01_0.45_cat_10_n02125311_20316.png
subject-01,1,989,0.940356969833374,dog,cat,3,0989_hp_s01_3_cat_10_n02124075_7144.png
subject-01,1,990,0.928037881851196,oven,cat,3,0990_hp_s01_3_cat_10_n02124075_14326.png
subject-01,1,991,0.663913011550903,car,car,0.7,0991_hp_s01_0.7_car_10_n02814533_62413.png
subject-01,1,992,0.829874038696289,car,keyboard,3,0992_hp_s01_3_keyboard_10_n03085013_20186.png
subject-01,1,993,0.929741144180298,oven,chair,0.4,0993_hp_s01_0.4_chair_10_n03376595_7699.png
subject-01,1,994,0.763338088989258,dog,dog,3,0994_hp_s01_3_dog_10_n02100735_8835.png
subject-01,1,995,1.43949294090271,knife,knife,inf,0995_hp_s01_inf_knife_10_n03041632_23736.png
subject-01,1,996,0.838886976242065,cat,truck,3,0996_hp_s01_3_truck_10_n03417042_411.png
subject-01,1,997,0.593165874481201,bicycle,bicycle,1,0997_hp_s01_1_bicycle_10_n02835271_6906.png
subject-01,1,998,0.68671703338623,car,bear,0.7,0998_hp_s01_0.7_bear_10_n02134084_1867.png
subject-01,1,999,1.09268188476562,oven,bottle,0.55,0999_hp_s01_0.55_bottle_10_n02823428_1078.png
subject-01,1,1000,0.80820894241333,clock,truck,0.55,1000_hp_s01_0.55_truck_10_n03796401_21954.png
subject-01,1,1001,0.782423973083496,airplane,cat,0.45,1001_hp_s01_0.45_cat_10_n02123394_2084.png
subject-01,1,1002,0.704065799713135,airplane,airplane,1.5,1002_hp_s01_1.5_airplane_10_n02690373_787.png
subject-01,1,1003,0.755842924118042,airplane,airplane,1.5,1003_hp_s01_1.5_airplane_10_n02690373_4148.png
subject-01,1,1004,0.929913997650146,oven,chair,0.7,1004_hp_s01_0.7_chair_10_n04429376_30610.png
subject-01,1,1005,0.865345001220703,chair,keyboard,1,1005_hp_s01_1_keyboard_10_n04505470_7421.png
subject-01,1,1006,0.711190938949585,bird,bird,1.5,1006_hp_s01_1.5_bird_10_n02013706_848.png
subject-01,1,1007,0.567180871963501,bird,bird,1.5,1007_hp_s01_1.5_bird_10_n01828970_9006.png
subject-01,1,1008,1.33482313156128,cat,oven,0.4,1008_hp_s01_0.4_oven_10_n04111531_669.png
subject-01,1,1009,0.776531934738159,car,bird,0.55,1009_hp_s01_0.55_bird_10_n02006656_11566.png
subject-01,1,1010,0.644373893737793,truck,elephant,0.4,1010_hp_s01_0.4_elephant_10_n02504013_3979.png
subject-01,1,1011,0.960213899612427,bottle,keyboard,0.7,1011_hp_s01_0.7_keyboard_10_n04505470_4966.png
subject-01,1,1012,NaN,na,bottle,0.45,1012_hp_s01_0.45_bottle_10_n03937543_2327.png
subject-01,1,1013,1.03387904167175,oven,elephant,0.7,1013_hp_s01_0.7_elephant_10_n02504013_10331.png
subject-01,1,1014,1.22360992431641,elephant,elephant,1.5,1014_hp_s01_1.5_elephant_10_n02504013_701.png
subject-01,1,1015,0.883702039718628,car,bird,0.4,1015_hp_s01_0.4_bird_10_n01829413_5849.png
subject-01,1,1016,0.935244083404541,bird,bear,inf,1016_hp_s01_inf_bear_10_n02134084_3695.png
subject-01,1,1017,0.607048988342285,cat,cat,1.5,1017_hp_s01_1.5_cat_10_n02123045_6144.png
subject-01,1,1018,0.886806011199951,airplane,airplane,0.7,1018_hp_s01_0.7_airplane_10_n02690373_18506.png
subject-01,1,1019,0.787043809890747,truck,clock,1.5,1019_hp_s01_1.5_clock_10_n02708093_3750.png
subject-01,1,1020,0.692683219909668,oven,airplane,0.45,1020_hp_s01_0.45_airplane_10_n02690373_111.png
subject-01,1,1021,0.620322942733765,oven,oven,3,1021_hp_s01_3_oven_10_n04111531_7298.png
subject-01,1,1022,0.816174030303955,clock,clock,inf,1022_hp_s01_inf_clock_10_n03196217_1550.png
subject-01,1,1023,0.687885999679565,keyboard,chair,1,1023_hp_s01_1_chair_10_n04429376_2349.png
subject-01,1,1024,1.06165385246277,truck,airplane,1,1024_hp_s01_1_airplane_10_n02690373_1167.png
subject-01,1,1025,0.741307020187378,elephant,elephant,0.7,1025_hp_s01_0.7_elephant_10_n02504458_5308.png
subject-01,1,1026,0.837363004684448,bear,bear,1,1026_hp_s01_1_bear_10_n02132136_10559.png
subject-01,1,1027,0.619086980819702,clock,clock,0.7,1027_hp_s01_0.7_clock_10_n04548280_5038.png
subject-01,1,1028,0.814892053604126,car,car,0.4,1028_hp_s01_0.4_car_10_n03100240_8885.png
subject-01,1,1029,1.09305691719055,bird,bicycle,1,1029_hp_s01_1_bicycle_10_n02835271_17509.png
subject-01,1,1030,0.948664903640747,bottle,clock,0.7,1030_hp_s01_0.7_clock_10_n02708093_3301.png
subject-01,1,1031,0.930299043655396,oven,bear,1.5,1031_hp_s01_1.5_bear_10_n02134084_12917.png
subject-01,1,1032,1.20029783248901,bear,bear,1.5,1032_hp_s01_1.5_bear_10_n02133161_13077.png
subject-01,1,1033,0.704164028167725,keyboard,bear,3,1033_hp_s01_3_bear_10_n02132136_15681.png
subject-01,1,1034,0.693943023681641,clock,clock,3,1034_hp_s01_3_clock_10_n04548280_5013.png
subject-01,1,1035,0.817561864852905,bird,dog,1,1035_hp_s01_1_dog_10_n02091032_8024.png
subject-01,1,1036,1.09355497360229,car,bottle,inf,1036_hp_s01_inf_bottle_10_n04591713_2052.png
subject-01,1,1037,0.775501012802124,bottle,clock,0.55,1037_hp_s01_0.55_clock_10_n03196217_8072.png
subject-01,1,1038,0.971406936645508,car,car,3,1038_hp_s01_3_car_10_n02814533_10135.png
subject-01,1,1039,0.718924999237061,car,car,1,1039_hp_s01_1_car_10_n02814533_5183.png
subject-01,1,1040,0.990936994552612,cat,bird,0.7,1040_hp_s01_0.7_bird_10_n01855032_3713.png
subject-01,1,1041,0.590348958969116,car,car,3,1041_hp_s01_3_car_10_n03100240_5796.png
subject-01,1,1042,0.680417060852051,car,keyboard,0.7,1042_hp_s01_0.7_keyboard_10_n03085013_25800.png
subject-01,1,1043,0.875880002975464,airplane,oven,1.5,1043_hp_s01_1.5_oven_10_n04111531_8344.png
subject-01,1,1044,0.677749872207642,oven,bottle,1,1044_hp_s01_1_bottle_10_n03983396_2054.png
subject-01,1,1045,0.793596029281616,elephant,elephant,3,1045_hp_s01_3_elephant_10_n02504013_6742.png
subject-01,1,1046,0.541406869888306,bear,knife,0.7,1046_hp_s01_0.7_knife_10_n03041632_24461.png
subject-01,1,1047,0.413065910339355,clock,bicycle,0.45,1047_hp_s01_0.45_bicycle_10_n02835271_4682.png
subject-01,1,1048,0.411046981811523,oven,car,0.4,1048_hp_s01_0.4_car_10_n03100240_20489.png
subject-01,1,1049,0.700809001922607,bottle,bicycle,0.55,1049_hp_s01_0.55_bicycle_10_n03792782_10876.png
subject-01,1,1050,0.872629880905151,knife,oven,inf,1050_hp_s01_inf_oven_10_n04111531_13456.png
subject-01,1,1051,1.08836698532104,clock,clock,0.55,1051_hp_s01_0.55_clock_10_n03196217_1454.png
subject-01,1,1052,0.626415014266968,bicycle,bird,0.45,1052_hp_s01_0.45_bird_10_n01797886_3046.png
subject-01,1,1053,0.705995798110962,bear,oven,1,1053_hp_s01_1_oven_10_n04111531_15943.png
subject-01,1,1054,0.483808040618896,cat,bottle,0.55,1054_hp_s01_0.55_bottle_10_n04560804_13142.png
subject-01,1,1055,0.915754079818726,elephant,elephant,1.5,1055_hp_s01_1.5_elephant_10_n02504013_4560.png
subject-01,1,1056,0.727581024169922,bear,keyboard,0.55,1056_hp_s01_0.55_keyboard_10_n03085013_10035.png
subject-01,1,1057,0.88525915145874,car,truck,0.7,1057_hp_s01_0.7_truck_10_n03796401_7199.png
subject-01,1,1058,0.725175857543945,bottle,bottle,1,1058_hp_s01_1_bottle_10_n04560804_15923.png
