subj,Session,trial,rt,object_response,category,condition,imagename
subject-04,1,1,1.03202104568481,boat,chair,0.45,0001_hp_s04_0.45_chair_10_n04429376_694.png
subject-04,1,2,0.95622992515564,truck,truck,1.5,0002_hp_s04_1.5_truck_10_n04467665_38886.png
subject-04,1,3,0.958188056945801,clock,bird,0.45,0003_hp_s04_0.45_bird_10_n01797886_3046.png
subject-04,1,4,0.917410850524902,dog,dog,1,0004_hp_s04_1_dog_10_n02105505_7816.png
subject-04,1,5,0.845407962799072,bicycle,bicycle,0.7,0005_hp_s04_0.7_bicycle_10_n02835271_4656.png
subject-04,1,6,0.875,car,car,1,0006_hp_s04_1_car_10_n04285008_5788.png
subject-04,1,7,1.25690698623657,cat,bear,0.45,0007_hp_s04_0.45_bear_10_n02134418_7067.png
subject-04,1,8,1.30092215538025,car,dog,0.55,0008_hp_s04_0.55_dog_10_n02109525_13146.png
subject-04,1,9,0.89652681350708,bear,bear,3,0009_hp_s04_3_bear_10_n02134418_47.png
subject-04,1,10,0.854450941085815,car,oven,0.55,0010_hp_s04_0.55_oven_10_n04111531_2371.png
subject-04,1,11,0.950107097625732,bird,bird,1.5,0011_hp_s04_1.5_bird_10_n01843065_6365.png
subject-04,1,12,1.22811484336853,car,boat,0.4,0012_hp_s04_0.4_boat_10_n03344393_4509.png
subject-04,1,13,0.935755014419556,bear,bear,1,0013_hp_s04_1_bear_10_n02132136_10559.png
subject-04,1,14,0.839622974395752,keyboard,keyboard,inf,0014_hp_s04_inf_keyboard_10_n04505470_4138.png
subject-04,1,15,0.999476909637451,boat,truck,1,0015_hp_s04_1_truck_10_n04467665_56754.png
subject-04,1,16,0.98955512046814,bear,bear,1,0016_hp_s04_1_bear_10_n02132136_11125.png
subject-04,1,17,1.3389949798584,truck,keyboard,0.55,0017_hp_s04_0.55_keyboard_10_n03085013_21301.png
subject-04,1,18,1.2872838973999,truck,bear,0.45,0018_hp_s04_0.45_bear_10_n02134418_2157.png
subject-04,1,19,0.924682140350342,elephant,elephant,inf,0019_hp_s04_inf_elephant_10_n02504458_12303.png
subject-04,1,20,0.848499059677124,bird,bird,3,0020_hp_s04_3_bird_10_n02037110_11362.png
subject-04,1,21,0.964359998703003,knife,knife,3,0021_hp_s04_3_knife_10_n03041632_41493.png
subject-04,1,22,1.18805813789368,keyboard,keyboard,1,0022_hp_s04_1_keyboard_10_n04505470_1724.png
subject-04,1,23,0.841925859451294,airplane,airplane,1.5,0023_hp_s04_1.5_airplane_10_n02690373_787.png
subject-04,1,24,1.06973218917847,bicycle,elephant,1,0024_hp_s04_1_elephant_10_n02504458_3535.png
subject-04,1,25,0.755546092987061,chair,knife,0.55,0025_hp_s04_0.55_knife_10_n03041632_20217.png
subject-04,1,26,0.987184047698975,car,oven,0.45,0026_hp_s04_0.45_oven_10_n04111531_4955.png
subject-04,1,27,1.06919503211975,truck,boat,1,0027_hp_s04_1_boat_10_n04612504_11379.png
subject-04,1,28,1.20900106430054,car,cat,0.45,0028_hp_s04_0.45_cat_10_n02125311_43276.png
subject-04,1,29,1.28318381309509,airplane,airplane,0.45,0029_hp_s04_0.45_airplane_10_n02690373_3047.png
subject-04,1,30,1.12454605102539,truck,boat,0.55,0030_hp_s04_0.55_boat_10_n03344393_4349.png
subject-04,1,31,0.970358848571777,knife,knife,3,0031_hp_s04_3_knife_10_n03041632_24998.png
subject-04,1,32,1.0861349105835,bicycle,elephant,0.45,0032_hp_s04_0.45_elephant_10_n02504458_4137.png
subject-04,1,33,1.25392413139343,car,dog,0.7,0033_hp_s04_0.7_dog_10_n02088364_8674.png
subject-04,1,34,1.03387999534607,bicycle,boat,1,0034_hp_s04_1_boat_10_n02951358_7320.png
subject-04,1,35,1.16154098510742,car,cat,0.55,0035_hp_s04_0.55_cat_10_n02123159_5429.png
subject-04,1,36,1.05565190315247,keyboard,bicycle,0.4,0036_hp_s04_0.4_bicycle_10_n03792782_2327.png
subject-04,1,37,1.41126108169556,cat,cat,1,0037_hp_s04_1_cat_10_n02124075_10085.png
subject-04,1,38,1.07320880889893,bicycle,knife,0.7,0038_hp_s04_0.7_knife_10_n03041632_91582.png
subject-04,1,39,1.34486413002014,knife,oven,1.5,0039_hp_s04_1.5_oven_10_n04111531_15616.png
subject-04,1,40,1.36475396156311,clock,car,0.4,0040_hp_s04_0.4_car_10_n04285008_11133.png
subject-04,1,41,1.28860306739807,elephant,keyboard,0.4,0041_hp_s04_0.4_keyboard_10_n03085013_20462.png
subject-04,1,42,0.638328075408936,clock,clock,1.5,0042_hp_s04_1.5_clock_10_n04548280_5843.png
subject-04,1,43,1.20621800422668,car,elephant,0.45,0043_hp_s04_0.45_elephant_10_n02504458_1473.png
subject-04,1,44,0.953929901123047,bird,bird,3,0044_hp_s04_3_bird_10_n01530575_3831.png
subject-04,1,45,0.949787139892578,oven,elephant,0.55,0045_hp_s04_0.55_elephant_10_n02504458_11214.png
subject-04,1,46,0.905590057373047,knife,knife,inf,0046_hp_s04_inf_knife_10_n03041632_22286.png
subject-04,1,47,1.02735781669617,dog,dog,1.5,0047_hp_s04_1.5_dog_10_n02093256_11232.png
subject-04,1,48,0.983374834060669,cat,bottle,0.45,0048_hp_s04_0.45_bottle_10_n03937543_438.png
subject-04,1,49,1.0751359462738,airplane,knife,0.4,0049_hp_s04_0.4_knife_10_n03041632_83826.png
subject-04,1,50,1.26902890205383,bicycle,knife,0.45,0050_hp_s04_0.45_knife_10_n03041632_3516.png
subject-04,1,51,1.00471496582031,car,cat,0.55,0051_hp_s04_0.55_cat_10_n02123045_5080.png
subject-04,1,52,1.08877897262573,cat,bird,0.7,0052_hp_s04_0.7_bird_10_n01798484_18666.png
subject-04,1,53,1.00445318222046,cat,dog,0.7,0053_hp_s04_0.7_dog_10_n02098286_2699.png
subject-04,1,54,1.40616011619568,bird,knife,0.45,0054_hp_s04_0.45_knife_10_n03041632_2184.png
subject-04,1,55,1.0821750164032,car,cat,0.55,0055_hp_s04_0.55_cat_10_n02125311_22122.png
subject-04,1,56,0.601953983306885,boat,boat,inf,0056_hp_s04_inf_boat_10_n02951358_3205.png
subject-04,1,57,0.907967090606689,chair,chair,inf,0057_hp_s04_inf_chair_10_n03376595_10769.png
subject-04,1,58,1.05536794662476,car,chair,0.7,0058_hp_s04_0.7_chair_10_n03376595_3566.png
subject-04,1,59,1.3491690158844,bird,bear,0.45,0059_hp_s04_0.45_bear_10_n02133161_2749.png
subject-04,1,60,0.654938936233521,boat,boat,3,0060_hp_s04_3_boat_10_n03662601_15713.png
subject-04,1,61,1.14477896690369,clock,knife,1.5,0061_hp_s04_1.5_knife_10_n03041632_1201.png
subject-04,1,62,0.678547143936157,cat,cat,inf,0062_hp_s04_inf_cat_10_n02125311_18354.png
subject-04,1,63,1.1844310760498,bird,knife,1.5,0063_hp_s04_1.5_knife_10_n03041632_23667.png
subject-04,1,64,0.758330821990967,keyboard,keyboard,1.5,0064_hp_s04_1.5_keyboard_10_n04505470_2620.png
subject-04,1,65,0.894141912460327,car,car,1.5,0065_hp_s04_1.5_car_10_n02814533_14627.png
subject-04,1,66,0.875997066497803,bird,bird,1,0066_hp_s04_1_bird_10_n01558993_12930.png
subject-04,1,67,1.17174005508423,clock,bicycle,0.4,0067_hp_s04_0.4_bicycle_10_n03792782_26834.png
subject-04,1,68,0.949815034866333,chair,keyboard,0.45,0068_hp_s04_0.45_keyboard_10_n03085013_22585.png
subject-04,1,69,0.701472043991089,boat,knife,0.45,0069_hp_s04_0.45_knife_10_n03041632_6708.png
subject-04,1,70,0.925220012664795,bottle,bottle,1.5,0070_hp_s04_1.5_bottle_10_n04579145_1174.png
subject-04,1,71,0.764847040176392,cat,clock,0.4,0071_hp_s04_0.4_clock_10_n02708093_2580.png
subject-04,1,72,1.50012111663818,chair,chair,3,0072_hp_s04_3_chair_10_n04429376_7279.png
subject-04,1,73,1.28846001625061,boat,boat,1,0073_hp_s04_1_boat_10_n03662601_18924.png
subject-04,1,74,1.062420129776,car,bottle,0.55,0074_hp_s04_0.55_bottle_10_n03937543_4098.png
subject-04,1,75,1.13013887405396,bird,airplane,0.4,0075_hp_s04_0.4_airplane_10_n02690373_191.png
subject-04,1,76,0.619994878768921,boat,boat,inf,0076_hp_s04_inf_boat_10_n03662601_4295.png
subject-04,1,77,0.767827987670898,clock,bicycle,0.4,0077_hp_s04_0.4_bicycle_10_n02835271_9280.png
subject-04,1,78,0.707553863525391,bear,knife,0.4,0078_hp_s04_0.4_knife_10_n03041632_40508.png
subject-04,1,79,0.767842054367065,airplane,airplane,3,0079_hp_s04_3_airplane_10_n02690373_3860.png
subject-04,1,80,0.953125,car,car,inf,0080_hp_s04_inf_car_10_n02814533_43694.png
subject-04,1,81,1.02569913864136,chair,chair,1.5,0081_hp_s04_1.5_chair_10_n02791124_2825.png
subject-04,1,82,0.921716928482056,oven,bottle,inf,0082_hp_s04_inf_bottle_10_n04591713_2052.png
subject-04,1,83,1.30747318267822,boat,bird,1,0083_hp_s04_1_bird_10_n02017213_1150.png
subject-04,1,84,1.31319999694824,cat,bottle,0.4,0084_hp_s04_0.4_bottle_10_n02823428_11.png
subject-04,1,85,0.950997114181519,bear,bear,0.45,0085_hp_s04_0.45_bear_10_n02134418_1798.png
subject-04,1,86,1.41086006164551,car,knife,0.7,0086_hp_s04_0.7_knife_10_n03041632_5727.png
subject-04,1,87,1.15259099006653,chair,bicycle,1.5,0087_hp_s04_1.5_bicycle_10_n02835271_358.png
subject-04,1,88,1.0724880695343,cat,dog,0.7,0088_hp_s04_0.7_dog_10_n02101006_16129.png
subject-04,1,89,1.20234894752502,boat,boat,0.4,0089_hp_s04_0.4_boat_10_n03344393_6015.png
subject-04,1,90,1.25402212142944,bird,bird,0.45,0090_hp_s04_0.45_bird_10_n01614925_7608.png
subject-04,1,91,1.29234099388123,dog,knife,0.45,0091_hp_s04_0.45_knife_10_n03041632_89912.png
subject-04,1,92,1.04579901695251,keyboard,oven,0.7,0092_hp_s04_0.7_oven_10_n04111531_9838.png
subject-04,1,93,1.32365083694458,oven,oven,1,0093_hp_s04_1_oven_10_n04111531_2116.png
subject-04,1,94,1.5000171661377,chair,oven,0.55,0094_hp_s04_0.55_oven_10_n04111531_3977.png
subject-04,1,95,1.29733395576477,keyboard,knife,1,0095_hp_s04_1_knife_10_n03041632_11797.png
subject-04,1,96,0.966907024383545,car,boat,0.7,0096_hp_s04_0.7_boat_10_n03344393_2941.png
subject-04,1,97,0.908867120742798,bear,clock,1.5,0097_hp_s04_1.5_clock_10_n04548280_6122.png
subject-04,1,98,1.32866811752319,bottle,chair,1,0098_hp_s04_1_chair_10_n02791124_5268.png
subject-04,1,99,0.874407052993774,airplane,airplane,inf,0099_hp_s04_inf_airplane_10_n02690373_17603.png
subject-04,1,100,1.39634704589844,chair,bottle,1,0100_hp_s04_1_bottle_10_n02823428_8034.png
subject-04,1,101,1.18005800247192,boat,bird,0.55,0101_hp_s04_0.55_bird_10_n02028035_17759.png
subject-04,1,102,0.83213996887207,airplane,airplane,inf,0102_hp_s04_inf_airplane_10_n02690373_5779.png
subject-04,1,103,1.39772891998291,bicycle,bird,1,0103_hp_s04_1_bird_10_n01820546_3605.png
subject-04,1,104,0.8399498462677,car,car,0.7,0104_hp_s04_0.7_car_10_n02814533_44083.png
subject-04,1,105,1.5001540184021,dog,oven,0.4,0105_hp_s04_0.4_oven_10_n04111531_5463.png
subject-04,1,106,1.41925406455994,car,airplane,0.45,0106_hp_s04_0.45_airplane_10_n02690373_111.png
subject-04,1,107,0.914759874343872,dog,dog,3,0107_hp_s04_3_dog_10_n02093754_5823.png
subject-04,1,108,NaN,na,airplane,0.7,0108_hp_s04_0.7_airplane_10_n02690373_18506.png
subject-04,1,109,1.00843405723572,car,knife,0.55,0109_hp_s04_0.55_knife_10_n03041632_11887.png
subject-04,1,110,0.880663871765137,bottle,bottle,3,0110_hp_s04_3_bottle_10_n02823428_10796.png
subject-04,1,111,1.22438383102417,cat,clock,0.45,0111_hp_s04_0.45_clock_10_n04548280_2399.png
subject-04,1,112,1.33383417129517,bottle,dog,1.5,0112_hp_s04_1.5_dog_10_n02099712_1825.png
subject-04,1,113,0.825942039489746,knife,knife,1,0113_hp_s04_1_knife_10_n03041632_41077.png
subject-04,1,114,1.10583710670471,boat,bicycle,0.45,0114_hp_s04_0.45_bicycle_10_n02835271_3570.png
subject-04,1,115,1.20534491539001,clock,knife,0.45,0115_hp_s04_0.45_knife_10_n03041632_17349.png
subject-04,1,116,1.14123010635376,bird,bicycle,0.45,0116_hp_s04_0.45_bicycle_10_n02835271_672.png
subject-04,1,117,1.24703502655029,chair,chair,0.55,0117_hp_s04_0.55_chair_10_n03376595_1862.png
subject-04,1,118,0.814793109893799,clock,clock,3,0118_hp_s04_3_clock_10_n03196217_7353.png
subject-04,1,119,0.872926950454712,bird,bird,1,0119_hp_s04_1_bird_10_n01560419_3160.png
subject-04,1,120,0.882609128952026,bicycle,bicycle,3,0120_hp_s04_3_bicycle_10_n02835271_6919.png
subject-04,1,121,0.746438980102539,cat,cat,1.5,0121_hp_s04_1.5_cat_10_n02123159_5934.png
subject-04,1,122,0.886269092559814,dog,dog,1,0122_hp_s04_1_dog_10_n02102177_5770.png
subject-04,1,123,1.3001070022583,car,bird,0.45,0123_hp_s04_0.45_bird_10_n01796340_1877.png
subject-04,1,124,1.36379408836365,bird,boat,0.55,0124_hp_s04_0.55_boat_10_n02951358_9884.png
subject-04,1,125,1.28357601165771,bear,bird,0.4,0125_hp_s04_0.4_bird_10_n01828970_8669.png
subject-04,1,126,1.0776150226593,boat,airplane,0.55,0126_hp_s04_0.55_airplane_10_n02690373_19646.png
subject-04,1,127,1.50010204315186,cat,clock,0.55,0127_hp_s04_0.55_clock_10_n04548280_6689.png
subject-04,1,128,1.46348094940186,car,knife,0.4,0128_hp_s04_0.4_knife_10_n03041632_32197.png
subject-04,1,129,1.16272616386414,chair,chair,1,0129_hp_s04_1_chair_10_n04099969_14028.png
subject-04,1,130,0.824970960617065,knife,knife,inf,0130_hp_s04_inf_knife_10_n03041632_33584.png
subject-04,1,131,1.21430206298828,chair,knife,0.7,0131_hp_s04_0.7_knife_10_n03041632_28710.png
subject-04,1,132,1.49999308586121,bird,bird,0.7,0132_hp_s04_0.7_bird_10_n01855032_1096.png
subject-04,1,133,1.16796016693115,chair,chair,inf,0133_hp_s04_inf_chair_10_n04099969_7399.png
subject-04,1,134,1.07577300071716,boat,bird,0.55,0134_hp_s04_0.55_bird_10_n02033041_2082.png
subject-04,1,135,0.90598201751709,bicycle,bicycle,1,0135_hp_s04_1_bicycle_10_n02835271_17509.png
subject-04,1,136,1.16538000106812,dog,dog,1.5,0136_hp_s04_1.5_dog_10_n02086910_730.png
subject-04,1,137,1.23533606529236,boat,airplane,0.45,0137_hp_s04_0.45_airplane_10_n02690373_5177.png
subject-04,1,138,1.34902405738831,oven,airplane,0.45,0138_hp_s04_0.45_airplane_10_n02690373_8204.png
subject-04,1,139,0.596853017807007,cat,cat,3,0139_hp_s04_3_cat_10_n02123597_13865.png
subject-04,1,140,1.18875122070312,boat,boat,1.5,0140_hp_s04_1.5_boat_10_n04273569_8774.png
subject-04,1,141,1.39432692527771,chair,bottle,0.7,0141_hp_s04_0.7_bottle_10_n04591713_2501.png
subject-04,1,142,1.40054607391357,dog,airplane,0.4,0142_hp_s04_0.4_airplane_10_n02690373_17718.png
subject-04,1,143,1.4140419960022,bear,chair,0.4,0143_hp_s04_0.4_chair_10_n02791124_9414.png
subject-04,1,144,0.958172082901001,cat,chair,0.45,0144_hp_s04_0.45_chair_10_n04099969_9891.png
subject-04,1,145,0.661831140518188,cat,cat,1.5,0145_hp_s04_1.5_cat_10_n02123045_7154.png
subject-04,1,146,0.767905950546265,clock,clock,0.7,0146_hp_s04_0.7_clock_10_n03196217_6217.png
subject-04,1,147,1.18782901763916,boat,car,0.55,0147_hp_s04_0.55_car_10_n02814533_8121.png
subject-04,1,148,0.857316017150879,clock,clock,inf,0148_hp_s04_inf_clock_10_n02708093_8134.png
subject-04,1,149,1.13311004638672,bear,bear,3,0149_hp_s04_3_bear_10_n02133161_1423.png
subject-04,1,150,1.17718315124512,keyboard,keyboard,1,0150_hp_s04_1_keyboard_10_n03085013_24115.png
subject-04,1,151,1.46274995803833,bird,chair,0.45,0151_hp_s04_0.45_chair_10_n04099969_8946.png
subject-04,1,152,0.592385053634644,clock,clock,1,0152_hp_s04_1_clock_10_n02708093_3266.png
subject-04,1,153,1.29477596282959,chair,chair,0.7,0153_hp_s04_0.7_chair_10_n04429376_22819.png
subject-04,1,154,1.15028691291809,car,bicycle,0.55,0154_hp_s04_0.55_bicycle_10_n03792782_7092.png
subject-04,1,155,0.973891019821167,bottle,bottle,1,0155_hp_s04_1_bottle_10_n04591713_1649.png
subject-04,1,156,1.05414795875549,chair,chair,inf,0156_hp_s04_inf_chair_10_n04429376_7902.png
subject-04,1,157,1.37958192825317,car,car,0.45,0157_hp_s04_0.45_car_10_n04285008_12457.png
subject-04,1,158,1.08536410331726,clock,keyboard,0.4,0158_hp_s04_0.4_keyboard_10_n03085013_23519.png
subject-04,1,159,0.9112708568573,clock,bicycle,0.4,0159_hp_s04_0.4_bicycle_10_n02835271_1918.png
subject-04,1,160,0.839239120483398,bottle,bottle,3,0160_hp_s04_3_bottle_10_n04591713_17618.png
subject-04,1,161,1.06420707702637,car,cat,0.4,0161_hp_s04_0.4_cat_10_n02123045_12748.png
subject-04,1,162,0.897942066192627,car,car,1,0162_hp_s04_1_car_10_n04285008_7751.png
subject-04,1,163,0.78392505645752,car,car,1.5,0163_hp_s04_1.5_car_10_n03100240_17028.png
subject-04,1,164,0.991718053817749,oven,oven,3,0164_hp_s04_3_oven_10_n04111531_1313.png
subject-04,1,165,1.50002193450928,cat,bicycle,0.7,0165_hp_s04_0.7_bicycle_10_n03792782_4067.png
subject-04,1,166,1.46965384483337,cat,bird,0.7,0166_hp_s04_0.7_bird_10_n02006656_1412.png
subject-04,1,167,1.36523199081421,elephant,bicycle,0.55,0167_hp_s04_0.55_bicycle_10_n03792782_5097.png
subject-04,1,168,0.608944892883301,clock,clock,1.5,0168_hp_s04_1.5_clock_10_n02708093_6591.png
subject-04,1,169,1.09867405891418,car,keyboard,0.45,0169_hp_s04_0.45_keyboard_10_n03085013_25559.png
subject-04,1,170,0.768399953842163,keyboard,keyboard,inf,0170_hp_s04_inf_keyboard_10_n04505470_4565.png
subject-04,1,171,0.868312835693359,boat,boat,1,0171_hp_s04_1_boat_10_n04612504_31680.png
subject-04,1,172,1.20646500587463,airplane,airplane,0.7,0172_hp_s04_0.7_airplane_10_n02690373_9642.png
subject-04,1,173,1.14009499549866,keyboard,boat,0.45,0173_hp_s04_0.45_boat_10_n03344393_2434.png
subject-04,1,174,1.30181217193604,cat,bottle,0.55,0174_hp_s04_0.55_bottle_10_n04560804_14395.png
subject-04,1,175,0.775576829910278,bicycle,bicycle,3,0175_hp_s04_3_bicycle_10_n03792782_60.png
subject-04,1,176,1.17141914367676,car,dog,0.55,0176_hp_s04_0.55_dog_10_n02097474_2799.png
subject-04,1,177,1.13148713111877,bear,elephant,0.7,0177_hp_s04_0.7_elephant_10_n02504013_9144.png
subject-04,1,178,0.757376909255981,car,car,inf,0178_hp_s04_inf_car_10_n04285008_8921.png
subject-04,1,179,0.910895824432373,oven,boat,0.45,0179_hp_s04_0.45_boat_10_n02951358_23313.png
subject-04,1,180,0.786558151245117,cat,cat,3,0180_hp_s04_3_cat_10_n02123597_13175.png
subject-04,1,181,1.4548978805542,elephant,elephant,1.5,0181_hp_s04_1.5_elephant_10_n02504458_7144.png
subject-04,1,182,1.36627197265625,car,bird,0.55,0182_hp_s04_0.55_bird_10_n02006656_11566.png
subject-04,1,183,1.47220993041992,car,dog,0.45,0183_hp_s04_0.45_dog_10_n02106382_9188.png
subject-04,1,184,1.30390000343323,keyboard,bird,0.45,0184_hp_s04_0.45_bird_10_n01855032_4295.png
subject-04,1,185,1.40369200706482,clock,cat,0.45,0185_hp_s04_0.45_cat_10_n02123394_2084.png
subject-04,1,186,1.27356719970703,airplane,airplane,inf,0186_hp_s04_inf_airplane_10_n02690373_5797.png
subject-04,1,187,0.661436080932617,boat,boat,3,0187_hp_s04_3_boat_10_n03662601_34042.png
subject-04,1,188,1.18115711212158,bicycle,keyboard,0.4,0188_hp_s04_0.4_keyboard_10_n04505470_9762.png
subject-04,1,189,0.709275960922241,bottle,bottle,inf,0189_hp_s04_inf_bottle_10_n04560804_16526.png
subject-04,1,190,1.09888005256653,chair,truck,0.55,0190_hp_s04_0.55_truck_10_n03417042_7061.png
subject-04,1,191,0.578723907470703,clock,clock,inf,0191_hp_s04_inf_clock_10_n03196217_2853.png
subject-04,1,192,0.710307121276855,bear,bear,3,0192_hp_s04_3_bear_10_n02132136_7647.png
subject-04,1,193,1.50017309188843,truck,bicycle,0.45,0193_hp_s04_0.45_bicycle_10_n03792782_19295.png
subject-04,1,194,0.610100984573364,clock,clock,1.5,0194_hp_s04_1.5_clock_10_n04548280_3198.png
subject-04,1,195,1.50008010864258,elephant,bear,0.55,0195_hp_s04_0.55_bear_10_n02134084_1949.png
subject-04,1,196,1.48965907096863,bicycle,elephant,0.55,0196_hp_s04_0.55_elephant_10_n02504458_7221.png
subject-04,1,197,0.883501052856445,bottle,chair,1,0197_hp_s04_1_chair_10_n04429376_7732.png
subject-04,1,198,1.50000405311584,cat,oven,3,0198_hp_s04_3_oven_10_n04111531_13128.png
subject-04,1,199,1.2551691532135,bird,chair,0.55,0199_hp_s04_0.55_chair_10_n04099969_20421.png
subject-04,1,200,0.619017839431763,boat,boat,1.5,0200_hp_s04_1.5_boat_10_n02951358_2813.png
subject-04,1,201,0.694627046585083,bottle,bottle,1.5,0201_hp_s04_1.5_bottle_10_n03937543_146.png
subject-04,1,202,1.28056383132935,cat,boat,0.45,0202_hp_s04_0.45_boat_10_n03344393_381.png
subject-04,1,203,1.29423594474792,bear,clock,0.4,0203_hp_s04_0.4_clock_10_n02708093_2025.png
subject-04,1,204,0.798349142074585,bear,bear,inf,0204_hp_s04_inf_bear_10_n02133161_4580.png
subject-04,1,205,0.636041879653931,oven,oven,inf,0205_hp_s04_inf_oven_10_n04111531_2201.png
subject-04,1,206,1.45374011993408,chair,chair,inf,0206_hp_s04_inf_chair_10_n02791124_7877.png
subject-04,1,207,1.03549098968506,car,airplane,0.45,0207_hp_s04_0.45_airplane_10_n02690373_798.png
subject-04,1,208,0.821280956268311,airplane,airplane,1.5,0208_hp_s04_1.5_airplane_10_n02690373_4148.png
subject-04,1,209,1.4494481086731,bird,bird,1,0209_hp_s04_1_bird_10_n01534433_905.png
subject-04,1,210,1.18121099472046,bear,elephant,1,0210_hp_s04_1_elephant_10_n02504013_7500.png
subject-04,1,211,0.872839212417603,chair,keyboard,0.7,0211_hp_s04_0.7_keyboard_10_n03085013_20673.png
subject-04,1,212,1.17874121665955,cat,bear,1.5,0212_hp_s04_1.5_bear_10_n02132136_5051.png
subject-04,1,213,0.966429948806763,keyboard,keyboard,3,0213_hp_s04_3_keyboard_10_n03085013_20186.png
subject-04,1,214,0.908231019973755,bottle,bottle,inf,0214_hp_s04_inf_bottle_10_n03983396_4996.png
subject-04,1,215,1.35024905204773,boat,boat,0.55,0215_hp_s04_0.55_boat_10_n04273569_18089.png
subject-04,1,216,0.987887859344482,car,car,0.55,0216_hp_s04_0.55_car_10_n03100240_15228.png
subject-04,1,217,0.768024921417236,oven,oven,3,0217_hp_s04_3_oven_10_n04111531_7955.png
subject-04,1,218,1.46761798858643,bear,elephant,1.5,0218_hp_s04_1.5_elephant_10_n02504013_5192.png
subject-04,1,219,0.703336954116821,clock,clock,0.55,0219_hp_s04_0.55_clock_10_n02708093_5236.png
subject-04,1,220,0.537042140960693,boat,boat,3,0220_hp_s04_3_boat_10_n04612504_4773.png
subject-04,1,221,1.15889692306519,cat,bird,0.45,0221_hp_s04_0.45_bird_10_n01795545_3992.png
subject-04,1,222,1.15061497688293,boat,keyboard,0.55,0222_hp_s04_0.55_keyboard_10_n03085013_24510.png
subject-04,1,223,1.38059711456299,clock,keyboard,0.45,0223_hp_s04_0.45_keyboard_10_n04505470_7928.png
subject-04,1,224,1.50004506111145,cat,cat,3,0224_hp_s04_3_cat_10_n02123045_1120.png
subject-04,1,225,1.50016188621521,bear,bear,0.4,0225_hp_s04_0.4_bear_10_n02133161_463.png
subject-04,1,226,1.03395891189575,airplane,airplane,0.7,0226_hp_s04_0.7_airplane_10_n02690373_3313.png
subject-04,1,227,0.663774013519287,car,car,3,0227_hp_s04_3_car_10_n04285008_13104.png
subject-04,1,228,1.18958497047424,chair,car,0.55,0228_hp_s04_0.55_car_10_n02814533_6178.png
subject-04,1,229,0.875515222549438,airplane,airplane,1,0229_hp_s04_1_airplane_10_n02690373_3435.png
subject-04,1,230,0.911727905273438,elephant,elephant,1,0230_hp_s04_1_elephant_10_n02504458_2928.png
subject-04,1,231,1.21291399002075,boat,bicycle,0.7,0231_hp_s04_0.7_bicycle_10_n03792782_10655.png
subject-04,1,232,0.785046815872192,elephant,elephant,3,0232_hp_s04_3_elephant_10_n02504458_1617.png
subject-04,1,233,0.498734951019287,clock,clock,3,0233_hp_s04_3_clock_10_n04548280_9816.png
subject-04,1,234,1.09038496017456,car,truck,0.55,0234_hp_s04_0.55_truck_10_n03417042_6517.png
subject-04,1,235,1.1904571056366,bear,elephant,0.4,0235_hp_s04_0.4_elephant_10_n02504013_1492.png
subject-04,1,236,1.11610913276672,bear,bear,0.7,0236_hp_s04_0.7_bear_10_n02132136_2279.png
subject-04,1,237,1.0980269908905,car,car,0.7,0237_hp_s04_0.7_car_10_n02814533_90798.png
subject-04,1,238,1.34975910186768,oven,dog,0.55,0238_hp_s04_0.55_dog_10_n02100877_1902.png
subject-04,1,239,1.10350799560547,bird,bird,0.55,0239_hp_s04_0.55_bird_10_n01833805_6395.png
subject-04,1,240,1.31941699981689,car,elephant,0.55,0240_hp_s04_0.55_elephant_10_n02504013_3688.png
subject-04,1,241,0.821324825286865,car,car,3,0241_hp_s04_3_car_10_n04285008_6030.png
subject-04,1,242,0.749027013778687,airplane,airplane,1,0242_hp_s04_1_airplane_10_n02690373_3289.png
subject-04,1,243,0.931123018264771,car,chair,0.45,0243_hp_s04_0.45_chair_10_n03376595_10689.png
subject-04,1,244,1.35069489479065,bear,elephant,0.7,0244_hp_s04_0.7_elephant_10_n02504013_21877.png
subject-04,1,245,1.21863508224487,cat,dog,0.7,0245_hp_s04_0.7_dog_10_n02098286_1591.png
subject-04,1,246,0.722434043884277,knife,knife,inf,0246_hp_s04_inf_knife_10_n03041632_40450.png
subject-04,1,247,1.07852602005005,car,elephant,0.45,0247_hp_s04_0.45_elephant_10_n02504458_217.png
subject-04,1,248,1.18407607078552,keyboard,keyboard,inf,0248_hp_s04_inf_keyboard_10_n03085013_23213.png
subject-04,1,249,1.32175612449646,car,bird,0.4,0249_hp_s04_0.4_bird_10_n02051845_3351.png
subject-04,1,250,1.03971314430237,knife,knife,1,0250_hp_s04_1_knife_10_n03041632_4214.png
subject-04,1,251,1.20737600326538,car,clock,0.4,0251_hp_s04_0.4_clock_10_n04548280_7243.png
subject-04,1,252,1.44532084465027,bear,dog,0.45,0252_hp_s04_0.45_dog_10_n02106166_22138.png
subject-04,1,253,1.30910611152649,car,keyboard,0.4,0253_hp_s04_0.4_keyboard_10_n03085013_23005.png
subject-04,1,254,1.39288401603699,bird,truck,0.45,0254_hp_s04_0.45_truck_10_n03417042_5809.png
subject-04,1,255,0.920671939849854,knife,knife,3,0255_hp_s04_3_knife_10_n03041632_21034.png
subject-04,1,256,1.15244102478027,oven,oven,inf,0256_hp_s04_inf_oven_10_n04111531_7741.png
subject-04,1,257,0.966290950775146,truck,truck,1,0257_hp_s04_1_truck_10_n04467665_47602.png
subject-04,1,258,1.15606498718262,boat,bicycle,0.4,0258_hp_s04_0.4_bicycle_10_n02835271_8098.png
subject-04,1,259,0.76996111869812,car,car,3,0259_hp_s04_3_car_10_n03100240_11417.png
subject-04,1,260,1.39385104179382,airplane,elephant,0.4,0260_hp_s04_0.4_elephant_10_n02504013_295.png
subject-04,1,261,0.84349799156189,car,car,3,0261_hp_s04_3_car_10_n03100240_5796.png
subject-04,1,262,1.16133594512939,boat,airplane,0.45,0262_hp_s04_0.45_airplane_10_n02690373_2692.png
subject-04,1,263,0.717603921890259,bottle,bottle,inf,0263_hp_s04_inf_bottle_10_n04557648_4250.png
subject-04,1,264,0.793047904968262,boat,boat,1.5,0264_hp_s04_1.5_boat_10_n03344393_7659.png
subject-04,1,265,1.14082002639771,car,airplane,0.4,0265_hp_s04_0.4_airplane_10_n02690373_4784.png
subject-04,1,266,0.942707061767578,bicycle,bicycle,1,0266_hp_s04_1_bicycle_10_n03792782_4559.png
subject-04,1,267,0.908385992050171,truck,truck,inf,0267_hp_s04_inf_truck_10_n03417042_8518.png
subject-04,1,268,1.18021011352539,truck,chair,0.7,0268_hp_s04_0.7_chair_10_n03376595_12256.png
subject-04,1,269,1.08202385902405,oven,truck,1.5,0269_hp_s04_1.5_truck_10_n04467665_58762.png
subject-04,1,270,1.22021007537842,boat,knife,0.4,0270_hp_s04_0.4_knife_10_n03041632_22734.png
subject-04,1,271,1.2916898727417,boat,car,0.4,0271_hp_s04_0.4_car_10_n03100240_8885.png
subject-04,1,272,0.931404113769531,keyboard,keyboard,3,0272_hp_s04_3_keyboard_10_n04505470_7721.png
subject-04,1,273,1.18736219406128,oven,bear,inf,0273_hp_s04_inf_bear_10_n02134084_14888.png
subject-04,1,274,1.3791401386261,bird,bird,inf,0274_hp_s04_inf_bird_10_n02007558_37147.png
subject-04,1,275,1.22692394256592,bicycle,bicycle,1.5,0275_hp_s04_1.5_bicycle_10_n03792782_5106.png
subject-04,1,276,1.50000214576721,airplane,knife,0.4,0276_hp_s04_0.4_knife_10_n03041632_42162.png
subject-04,1,277,0.902498006820679,elephant,elephant,3,0277_hp_s04_3_elephant_10_n02504458_6762.png
subject-04,1,278,1.06469702720642,bear,dog,0.45,0278_hp_s04_0.45_dog_10_n02096585_391.png
subject-04,1,279,0.642210960388184,keyboard,keyboard,1.5,0279_hp_s04_1.5_keyboard_10_n03085013_23583.png
subject-04,1,280,0.884324073791504,boat,bottle,0.4,0280_hp_s04_0.4_bottle_10_n03983396_3047.png
subject-04,1,281,0.90387487411499,car,car,0.7,0281_hp_s04_0.7_car_10_n02814533_39933.png
subject-04,1,282,1.5000159740448,clock,clock,1,0282_hp_s04_1_clock_10_n02708093_1291.png
subject-04,1,283,0.917314052581787,car,bear,1,0283_hp_s04_1_bear_10_n02134418_3464.png
subject-04,1,284,1.03916501998901,boat,bear,0.55,0284_hp_s04_0.55_bear_10_n02134084_14031.png
subject-04,1,285,1.2630558013916,bottle,bottle,0.7,0285_hp_s04_0.7_bottle_10_n02823428_6201.png
subject-04,1,286,1.00914096832275,boat,boat,0.55,0286_hp_s04_0.55_boat_10_n03662601_5210.png
subject-04,1,287,1.48872399330139,boat,truck,0.7,0287_hp_s04_0.7_truck_10_n03417042_751.png
subject-04,1,288,1.09836792945862,car,knife,0.4,0288_hp_s04_0.4_knife_10_n03041632_30602.png
subject-04,1,289,1.50006103515625,bicycle,oven,0.4,0289_hp_s04_0.4_oven_10_n04111531_1815.png
subject-04,1,290,0.90012001991272,bottle,bottle,1.5,0290_hp_s04_1.5_bottle_10_n03983396_12916.png
subject-04,1,291,1.50004386901855,boat,keyboard,0.7,0291_hp_s04_0.7_keyboard_10_n03085013_20805.png
subject-04,1,292,0.817856073379517,bicycle,bicycle,3,0292_hp_s04_3_bicycle_10_n03792782_6152.png
subject-04,1,293,1.03355002403259,oven,truck,0.45,0293_hp_s04_0.45_truck_10_n04467665_21266.png
subject-04,1,294,1.50011491775513,bird,oven,3,0294_hp_s04_3_oven_10_n04111531_9342.png
subject-04,1,295,0.88716197013855,airplane,airplane,0.7,0295_hp_s04_0.7_airplane_10_n02690373_194.png
subject-04,1,296,0.900918006896973,keyboard,keyboard,3,0296_hp_s04_3_keyboard_10_n03085013_22949.png
subject-04,1,297,1.13672995567322,bicycle,truck,1,0297_hp_s04_1_truck_10_n03417042_4520.png
subject-04,1,298,0.704581022262573,bicycle,bicycle,3,0298_hp_s04_3_bicycle_10_n02835271_949.png
subject-04,1,299,1.34633207321167,airplane,elephant,0.4,0299_hp_s04_0.4_elephant_10_n02504458_7269.png
subject-04,1,300,1.38021397590637,chair,chair,0.7,0300_hp_s04_0.7_chair_10_n04099969_16512.png
subject-04,1,301,1.05005097389221,bird,keyboard,0.7,0301_hp_s04_0.7_keyboard_10_n03085013_1483.png
subject-04,1,302,0.717949151992798,boat,boat,3,0302_hp_s04_3_boat_10_n04273569_16949.png
subject-04,1,303,1.18172597885132,airplane,bear,0.4,0303_hp_s04_0.4_bear_10_n02133161_1506.png
subject-04,1,304,0.811397075653076,knife,knife,1.5,0304_hp_s04_1.5_knife_10_n03041632_38540.png
subject-04,1,305,0.915308952331543,chair,chair,1,0305_hp_s04_1_chair_10_n04099969_4275.png
subject-04,1,306,0.653547048568726,airplane,airplane,3,0306_hp_s04_3_airplane_10_n02690373_20033.png
subject-04,1,307,0.761026859283447,oven,oven,3,0307_hp_s04_3_oven_10_n04111531_2042.png
subject-04,1,308,1.2408549785614,chair,chair,0.55,0308_hp_s04_0.55_chair_10_n03376595_10460.png
subject-04,1,309,0.950538873672485,airplane,truck,3,0309_hp_s04_3_truck_10_n04467665_77214.png
subject-04,1,310,1.26841688156128,car,bear,0.4,0310_hp_s04_0.4_bear_10_n02134418_119.png
subject-04,1,311,1.50010299682617,boat,keyboard,0.55,0311_hp_s04_0.55_keyboard_10_n03085013_24156.png
subject-04,1,312,1.36412596702576,cat,knife,0.7,0312_hp_s04_0.7_knife_10_n03041632_39739.png
subject-04,1,313,1.50013399124146,car,dog,0.4,0313_hp_s04_0.4_dog_10_n02107908_10107.png
subject-04,1,314,0.559835195541382,cat,cat,3,0314_hp_s04_3_cat_10_n02124075_4413.png
subject-04,1,315,1.49999690055847,bicycle,car,1,0315_hp_s04_1_car_10_n04285008_6200.png
subject-04,1,316,1.14746189117432,cat,bottle,0.55,0316_hp_s04_0.55_bottle_10_n03983396_1904.png
subject-04,1,317,1.0113000869751,car,boat,0.4,0317_hp_s04_0.4_boat_10_n04612504_29813.png
subject-04,1,318,1.04722690582275,airplane,airplane,1,0318_hp_s04_1_airplane_10_n02690373_2468.png
subject-04,1,319,1.21654605865479,airplane,airplane,inf,0319_hp_s04_inf_airplane_10_n02690373_15411.png
subject-04,1,320,1.21894788742065,knife,knife,3,0320_hp_s04_3_knife_10_n03041632_18468.png
subject-04,1,321,0.8822340965271,truck,truck,inf,0321_hp_s04_inf_truck_10_n04467665_55193.png
subject-04,1,322,1.20392990112305,chair,chair,3,0322_hp_s04_3_chair_10_n02791124_1023.png
subject-04,1,323,0.905734062194824,cat,cat,inf,0323_hp_s04_inf_cat_10_n02123045_4644.png
subject-04,1,324,0.59766697883606,clock,clock,3,0324_hp_s04_3_clock_10_n02708093_4737.png
subject-04,1,325,1.27131104469299,cat,knife,1.5,0325_hp_s04_1.5_knife_10_n03041632_91967.png
subject-04,1,326,1.37509894371033,bear,knife,0.7,0326_hp_s04_0.7_knife_10_n03041632_24461.png
subject-04,1,327,1.50010895729065,chair,elephant,0.7,0327_hp_s04_0.7_elephant_10_n02504458_1233.png
subject-04,1,328,0.87712287902832,truck,truck,3,0328_hp_s04_3_truck_10_n03417042_411.png
subject-04,1,329,0.986609935760498,bicycle,bicycle,0.55,0329_hp_s04_0.55_bicycle_10_n02835271_12123.png
subject-04,1,330,0.864464998245239,car,car,1.5,0330_hp_s04_1.5_car_10_n02814533_4501.png
subject-04,1,331,0.564339160919189,cat,cat,3,0331_hp_s04_3_cat_10_n02123394_2274.png
subject-04,1,332,1.09803795814514,bear,bear,1,0332_hp_s04_1_bear_10_n02132136_1141.png
subject-04,1,333,0.546098947525024,cat,cat,inf,0333_hp_s04_inf_cat_10_n02125311_1746.png
subject-04,1,334,1.2076210975647,car,knife,0.55,0334_hp_s04_0.55_knife_10_n03041632_18304.png
subject-04,1,335,1.29537296295166,bicycle,knife,0.7,0335_hp_s04_0.7_knife_10_n03041632_5801.png
subject-04,1,336,1.30737686157227,boat,elephant,0.7,0336_hp_s04_0.7_elephant_10_n02504013_18005.png
subject-04,1,337,1.50003099441528,car,airplane,0.55,0337_hp_s04_0.55_airplane_10_n02690373_1663.png
subject-04,1,338,0.658858776092529,bottle,bottle,3,0338_hp_s04_3_bottle_10_n04591713_4585.png
subject-04,1,339,0.834642887115479,bird,bird,1,0339_hp_s04_1_bird_10_n01860187_1191.png
subject-04,1,340,0.878437042236328,keyboard,keyboard,0.7,0340_hp_s04_0.7_keyboard_10_n03085013_25800.png
subject-04,1,341,1.34440207481384,car,car,0.45,0341_hp_s04_0.45_car_10_n03100240_12361.png
subject-04,1,342,0.950303077697754,oven,oven,1.5,0342_hp_s04_1.5_oven_10_n04111531_6810.png
subject-04,1,343,1.13180494308472,keyboard,keyboard,0.7,0343_hp_s04_0.7_keyboard_10_n03085013_24257.png
subject-04,1,344,0.7220458984375,airplane,airplane,inf,0344_hp_s04_inf_airplane_10_n02690373_2024.png
subject-04,1,345,0.8056480884552,airplane,airplane,1,0345_hp_s04_1_airplane_10_n02690373_220.png
subject-04,1,346,1.3796398639679,bird,airplane,0.55,0346_hp_s04_0.55_airplane_10_n02690373_7591.png
subject-04,1,347,1.04918789863586,oven,oven,inf,0347_hp_s04_inf_oven_10_n04111531_5802.png
subject-04,1,348,1.17917919158936,truck,truck,0.7,0348_hp_s04_0.7_truck_10_n03417042_9693.png
subject-04,1,349,0.992815017700195,bottle,bottle,inf,0349_hp_s04_inf_bottle_10_n04591713_5563.png
subject-04,1,350,1.04269886016846,bird,bird,0.7,0350_hp_s04_0.7_bird_10_n01796340_5262.png
subject-04,1,351,1.19639992713928,truck,truck,1,0351_hp_s04_1_truck_10_n03417042_22709.png
subject-04,1,352,1.144690990448,bear,elephant,1,0352_hp_s04_1_elephant_10_n02504458_4439.png
subject-04,1,353,1.130126953125,bird,oven,0.7,0353_hp_s04_0.7_oven_10_n04111531_8117.png
subject-04,1,354,0.853939056396484,keyboard,keyboard,0.7,0354_hp_s04_0.7_keyboard_10_n04505470_3929.png
subject-04,1,355,1.50010299682617,bottle,bottle,0.7,0355_hp_s04_0.7_bottle_10_n04591713_7074.png
subject-04,1,356,0.867486000061035,airplane,airplane,3,0356_hp_s04_3_airplane_10_n02690373_4429.png
subject-04,1,357,1.50015783309937,bear,boat,1,0357_hp_s04_1_boat_10_n04612504_1869.png
subject-04,1,358,0.809579133987427,bottle,bottle,1.5,0358_hp_s04_1.5_bottle_10_n03983396_11898.png
subject-04,1,359,1.17123317718506,airplane,airplane,3,0359_hp_s04_3_airplane_10_n02690373_3153.png
subject-04,1,360,0.894798040390015,airplane,airplane,1.5,0360_hp_s04_1.5_airplane_10_n02690373_3377.png
subject-04,1,361,0.962552785873413,keyboard,keyboard,1,0361_hp_s04_1_keyboard_10_n04505470_142.png
subject-04,1,362,1.26427483558655,bicycle,cat,0.45,0362_hp_s04_0.45_cat_10_n02124075_5453.png
subject-04,1,363,1.10637283325195,bicycle,bear,0.7,0363_hp_s04_0.7_bear_10_n02134418_5848.png
subject-04,1,364,1.46218085289001,keyboard,cat,0.55,0364_hp_s04_0.55_cat_10_n02125311_15099.png
subject-04,1,365,0.96586012840271,car,car,inf,0365_hp_s04_inf_car_10_n02814533_27824.png
subject-04,1,366,1.0818190574646,knife,knife,3,0366_hp_s04_3_knife_10_n03041632_1407.png
subject-04,1,367,0.845677137374878,boat,boat,0.7,0367_hp_s04_0.7_boat_10_n04612504_37043.png
subject-04,1,368,1.49518704414368,boat,car,0.7,0368_hp_s04_0.7_car_10_n04285008_6320.png
subject-04,1,369,1.37897610664368,bear,bear,3,0369_hp_s04_3_bear_10_n02132136_15681.png
subject-04,1,370,0.78899097442627,chair,chair,inf,0370_hp_s04_inf_chair_10_n03376595_9926.png
subject-04,1,371,1.2646050453186,car,cat,0.4,0371_hp_s04_0.4_cat_10_n02125311_8522.png
subject-04,1,372,1.16848301887512,boat,knife,0.4,0372_hp_s04_0.4_knife_10_n03041632_14774.png
subject-04,1,373,1.39034605026245,car,bottle,0.55,0373_hp_s04_0.55_bottle_10_n02823428_11140.png
subject-04,1,374,0.838109016418457,bird,bird,1.5,0374_hp_s04_1.5_bird_10_n01558993_14305.png
subject-04,1,375,1.25027585029602,boat,clock,0.4,0375_hp_s04_0.4_clock_10_n03196217_2628.png
subject-04,1,376,1.38573598861694,chair,elephant,0.55,0376_hp_s04_0.55_elephant_10_n02504458_2618.png
subject-04,1,377,1.40360903739929,oven,knife,0.55,0377_hp_s04_0.55_knife_10_n03041632_81471.png
subject-04,1,378,1.3312520980835,bicycle,elephant,0.7,0378_hp_s04_0.7_elephant_10_n02504458_1327.png
subject-04,1,379,1.22752690315247,car,truck,0.4,0379_hp_s04_0.4_truck_10_n04467665_42126.png
subject-04,1,380,0.79106616973877,elephant,elephant,3,0380_hp_s04_3_elephant_10_n02504458_3329.png
subject-04,1,381,0.858688831329346,truck,truck,3,0381_hp_s04_3_truck_10_n03417042_4614.png
subject-04,1,382,0.796730995178223,clock,clock,0.55,0382_hp_s04_0.55_clock_10_n03196217_1454.png
subject-04,1,383,0.740401029586792,keyboard,keyboard,1.5,0383_hp_s04_1.5_keyboard_10_n03085013_2272.png
subject-04,1,384,1.08232688903809,bear,bottle,0.4,0384_hp_s04_0.4_bottle_10_n03983396_8837.png
subject-04,1,385,1.13201212882996,cat,oven,0.4,0385_hp_s04_0.4_oven_10_n04111531_9224.png
subject-04,1,386,0.73187518119812,keyboard,keyboard,inf,0386_hp_s04_inf_keyboard_10_n03085013_7962.png
subject-04,1,387,0.83173394203186,clock,clock,3,0387_hp_s04_3_clock_10_n04548280_57.png
subject-04,1,388,1.18962907791138,clock,clock,0.7,0388_hp_s04_0.7_clock_10_n02708093_3688.png
subject-04,1,389,0.98942494392395,clock,clock,1.5,0389_hp_s04_1.5_clock_10_n03196217_71.png
subject-04,1,390,0.883508920669556,clock,clock,inf,0390_hp_s04_inf_clock_10_n02708093_6635.png
subject-04,1,391,0.763262987136841,keyboard,keyboard,inf,0391_hp_s04_inf_keyboard_10_n03085013_23877.png
subject-04,1,392,1.09669089317322,oven,chair,3,0392_hp_s04_3_chair_10_n04429376_10546.png
subject-04,1,393,1.22847485542297,truck,dog,0.45,0393_hp_s04_0.45_dog_10_n02111500_2111.png
subject-04,1,394,0.724731922149658,elephant,elephant,3,0394_hp_s04_3_elephant_10_n02504458_6821.png
subject-04,1,395,0.994102001190186,clock,truck,0.7,0395_hp_s04_0.7_truck_10_n04467665_30189.png
subject-04,1,396,1.27393889427185,chair,bottle,0.7,0396_hp_s04_0.7_bottle_10_n04557648_3775.png
subject-04,1,397,1.35786294937134,truck,oven,1.5,0397_hp_s04_1.5_oven_10_n04111531_14959.png
subject-04,1,398,0.835570096969604,car,car,inf,0398_hp_s04_inf_car_10_n02814533_3560.png
subject-04,1,399,0.84732985496521,clock,clock,0.45,0399_hp_s04_0.45_clock_10_n04548280_4713.png
subject-04,1,400,0.665462017059326,cat,cat,inf,0400_hp_s04_inf_cat_10_n02124075_15171.png
subject-04,1,401,1.30502510070801,truck,bicycle,0.55,0401_hp_s04_0.55_bicycle_10_n02835271_6167.png
subject-04,1,402,1.35692381858826,car,clock,0.45,0402_hp_s04_0.45_clock_10_n03196217_2003.png
subject-04,1,403,0.998655080795288,knife,knife,inf,0403_hp_s04_inf_knife_10_n03041632_96714.png
subject-04,1,404,1.45874285697937,truck,truck,0.55,0404_hp_s04_0.55_truck_10_n03417042_10642.png
subject-04,1,405,1.04034614562988,truck,truck,0.45,0405_hp_s04_0.45_truck_10_n04467665_46192.png
subject-04,1,406,0.834222078323364,bird,bird,inf,0406_hp_s04_inf_bird_10_n01820546_6625.png
subject-04,1,407,0.844027042388916,bicycle,bicycle,inf,0407_hp_s04_inf_bicycle_10_n03792782_6512.png
subject-04,1,408,1.0339629650116,bottle,bottle,1,0408_hp_s04_1_bottle_10_n03983396_2054.png
subject-04,1,409,1.08569598197937,chair,keyboard,0.55,0409_hp_s04_0.55_keyboard_10_n03085013_10035.png
subject-04,1,410,1.04555106163025,car,cat,0.4,0410_hp_s04_0.4_cat_10_n02123394_4662.png
subject-04,1,411,1.44519591331482,bear,oven,0.55,0411_hp_s04_0.55_oven_10_n04111531_3082.png
subject-04,1,412,1.49122500419617,elephant,dog,0.7,0412_hp_s04_0.7_dog_10_n02096051_988.png
subject-04,1,413,0.678841114044189,bicycle,bicycle,3,0413_hp_s04_3_bicycle_10_n03792782_4472.png
subject-04,1,414,1.38079309463501,car,car,0.4,0414_hp_s04_0.4_car_10_n02814533_85296.png
subject-04,1,415,1.40049004554749,boat,clock,0.55,0415_hp_s04_0.55_clock_10_n04548280_3248.png
subject-04,1,416,0.702692031860352,bicycle,bicycle,0.7,0416_hp_s04_0.7_bicycle_10_n02835271_4677.png
subject-04,1,417,0.880297899246216,truck,truck,1.5,0417_hp_s04_1.5_truck_10_n04467665_40361.png
subject-04,1,418,1.00010013580322,car,car,0.55,0418_hp_s04_0.55_car_10_n03100240_1794.png
subject-04,1,419,1.44385409355164,bottle,bicycle,0.45,0419_hp_s04_0.45_bicycle_10_n02835271_4682.png
subject-04,1,420,0.952008962631226,elephant,elephant,3,0420_hp_s04_3_elephant_10_n02504013_6742.png
subject-04,1,421,1.21149516105652,car,dog,0.45,0421_hp_s04_0.45_dog_10_n02111500_2439.png
subject-04,1,422,1.32745695114136,chair,bird,0.55,0422_hp_s04_0.55_bird_10_n02009912_91.png
subject-04,1,423,1.23113608360291,car,bird,0.45,0423_hp_s04_0.45_bird_10_n02018207_4151.png
subject-04,1,424,1.21097183227539,bicycle,bear,0.55,0424_hp_s04_0.55_bear_10_n02132136_7253.png
subject-04,1,425,1.50014805793762,car,dog,0.55,0425_hp_s04_0.55_dog_10_n02101556_7581.png
subject-04,1,426,NaN,na,bear,3,0426_hp_s04_3_bear_10_n02132136_2236.png
subject-04,1,427,0.564314126968384,boat,boat,1.5,0427_hp_s04_1.5_boat_10_n04273569_9803.png
subject-04,1,428,1.20210909843445,car,clock,0.4,0428_hp_s04_0.4_clock_10_n02708093_3743.png
subject-04,1,429,0.672272920608521,clock,clock,1,0429_hp_s04_1_clock_10_n04548280_8668.png
subject-04,1,430,1.13984894752502,chair,dog,0.7,0430_hp_s04_0.7_dog_10_n02105855_4952.png
subject-04,1,431,1.29749393463135,oven,dog,0.4,0431_hp_s04_0.4_dog_10_n02108551_8385.png
subject-04,1,432,0.843439102172852,bottle,bottle,1.5,0432_hp_s04_1.5_bottle_10_n04591713_14895.png
subject-04,1,433,1.24755597114563,car,bird,0.45,0433_hp_s04_0.45_bird_10_n02025239_2227.png
subject-04,1,434,0.603346109390259,oven,oven,inf,0434_hp_s04_inf_oven_10_n04111531_1723.png
subject-04,1,435,0.812839984893799,car,car,3,0435_hp_s04_3_car_10_n04285008_5467.png
subject-04,1,436,1.09303307533264,chair,dog,0.45,0436_hp_s04_0.45_dog_10_n02091244_1455.png
subject-04,1,437,1.05453610420227,chair,oven,0.7,0437_hp_s04_0.7_oven_10_n04111531_14559.png
subject-04,1,438,0.746242046356201,clock,clock,3,0438_hp_s04_3_clock_10_n04548280_6919.png
subject-04,1,439,1.25611209869385,car,bottle,0.45,0439_hp_s04_0.45_bottle_10_n04591713_2581.png
subject-04,1,440,0.993817090988159,bear,bear,0.7,0440_hp_s04_0.7_bear_10_n02132136_3441.png
subject-04,1,441,0.745867967605591,bicycle,bicycle,inf,0441_hp_s04_inf_bicycle_10_n02835271_7303.png
subject-04,1,442,1.10950899124146,bottle,elephant,0.4,0442_hp_s04_0.4_elephant_10_n02504013_3979.png
subject-04,1,443,0.973183155059814,chair,chair,1.5,0443_hp_s04_1.5_chair_10_n04099969_11279.png
subject-04,1,444,1.00698590278625,bird,bird,1.5,0444_hp_s04_1.5_bird_10_n01616318_9819.png
subject-04,1,445,1.50011801719666,clock,keyboard,1,0445_hp_s04_1_keyboard_10_n03085013_24099.png
subject-04,1,446,1.164715051651,knife,knife,1.5,0446_hp_s04_1.5_knife_10_n03041632_379.png
subject-04,1,447,1.1927011013031,boat,cat,0.45,0447_hp_s04_0.45_cat_10_n02123394_7335.png
subject-04,1,448,1.23831820487976,chair,clock,0.45,0448_hp_s04_0.45_clock_10_n02708093_2926.png
subject-04,1,449,0.594233989715576,clock,clock,inf,0449_hp_s04_inf_clock_10_n03196217_1550.png
subject-04,1,450,1.0142068862915,oven,car,0.4,0450_hp_s04_0.4_car_10_n04285008_9765.png
subject-04,1,451,0.941784143447876,knife,knife,inf,0451_hp_s04_inf_knife_10_n03041632_23736.png
subject-04,1,452,1.36559081077576,bear,bird,0.4,0452_hp_s04_0.4_bird_10_n01820546_6431.png
subject-04,1,453,1.44537305831909,boat,chair,0.45,0453_hp_s04_0.45_chair_10_n03376595_8196.png
subject-04,1,454,1.2790961265564,oven,bicycle,0.45,0454_hp_s04_0.45_bicycle_10_n03792782_7787.png
subject-04,1,455,1.29932618141174,car,dog,0.55,0455_hp_s04_0.55_dog_10_n02097298_6933.png
subject-04,1,456,1.27507305145264,elephant,elephant,inf,0456_hp_s04_inf_elephant_10_n02504013_816.png
subject-04,1,457,1.30254602432251,bird,dog,0.7,0457_hp_s04_0.7_dog_10_n02096294_7536.png
subject-04,1,458,1.31837511062622,chair,boat,0.4,0458_hp_s04_0.4_boat_10_n02951358_11867.png
subject-04,1,459,1.21455407142639,car,car,inf,0459_hp_s04_inf_car_10_n02814533_40315.png
subject-04,1,460,1.22797083854675,car,bear,0.4,0460_hp_s04_0.4_bear_10_n02132136_5612.png
subject-04,1,461,0.948011875152588,elephant,elephant,inf,0461_hp_s04_inf_elephant_10_n02504458_150.png
subject-04,1,462,0.865747928619385,keyboard,keyboard,1.5,0462_hp_s04_1.5_keyboard_10_n03085013_4157.png
subject-04,1,463,0.673490047454834,boat,boat,inf,0463_hp_s04_inf_boat_10_n04612504_1692.png
subject-04,1,464,0.841322898864746,knife,knife,inf,0464_hp_s04_inf_knife_10_n03041632_48816.png
subject-04,1,465,1.07908606529236,car,dog,0.4,0465_hp_s04_0.4_dog_10_n02112350_279.png
subject-04,1,466,1.06085300445557,car,keyboard,0.45,0466_hp_s04_0.45_keyboard_10_n03085013_23316.png
subject-04,1,467,1.24491381645203,clock,airplane,0.55,0467_hp_s04_0.55_airplane_10_n02690373_7685.png
subject-04,1,468,0.914667129516602,cat,cat,1,0468_hp_s04_1_cat_10_n02123045_2339.png
subject-04,1,469,0.806246995925903,bear,bear,inf,0469_hp_s04_inf_bear_10_n02132136_22387.png
subject-04,1,470,1.1023280620575,truck,truck,0.55,0470_hp_s04_0.55_truck_10_n03417042_5600.png
subject-04,1,471,1.09991097450256,boat,bear,0.55,0471_hp_s04_0.55_bear_10_n02133161_4049.png
subject-04,1,472,1.15172410011292,car,bottle,0.55,0472_hp_s04_0.55_bottle_10_n03937543_2874.png
subject-04,1,473,0.607776880264282,boat,boat,3,0473_hp_s04_3_boat_10_n03344393_5801.png
subject-04,1,474,0.957434892654419,car,car,0.7,0474_hp_s04_0.7_car_10_n02814533_62413.png
subject-04,1,475,0.92781400680542,knife,knife,inf,0475_hp_s04_inf_knife_10_n03041632_46422.png
subject-04,1,476,1.12934684753418,boat,truck,1.5,0476_hp_s04_1.5_truck_10_n04467665_45306.png
subject-04,1,477,0.9928879737854,dog,dog,inf,0477_hp_s04_inf_dog_10_n02111500_4280.png
subject-04,1,478,1.21297907829285,knife,keyboard,1.5,0478_hp_s04_1.5_keyboard_10_n03085013_26556.png
subject-04,1,479,0.88263988494873,cat,cat,inf,0479_hp_s04_inf_cat_10_n02123045_10395.png
subject-04,1,480,1.1462287902832,truck,cat,0.4,0480_hp_s04_0.4_cat_10_n02123394_2386.png
subject-04,1,481,1.03976082801819,boat,chair,0.55,0481_hp_s04_0.55_chair_10_n04099969_18220.png
subject-04,1,482,0.919640064239502,dog,dog,3,0482_hp_s04_3_dog_10_n02100735_8835.png
subject-04,1,483,1.07357001304626,cat,dog,1.5,0483_hp_s04_1.5_dog_10_n02097047_1003.png
subject-04,1,484,1.24328398704529,bear,bird,1,0484_hp_s04_1_bird_10_n01824575_12784.png
subject-04,1,485,1.13704800605774,boat,boat,0.7,0485_hp_s04_0.7_boat_10_n03662601_840.png
subject-04,1,486,1.14691400527954,car,car,0.55,0486_hp_s04_0.55_car_10_n03100240_10384.png
subject-04,1,487,1.20666694641113,boat,bicycle,0.55,0487_hp_s04_0.55_bicycle_10_n03792782_15557.png
subject-04,1,488,1.09442210197449,keyboard,keyboard,1,0488_hp_s04_1_keyboard_10_n03085013_22494.png
subject-04,1,489,1.20844411849976,bottle,bottle,0.7,0489_hp_s04_0.7_bottle_10_n04579145_2196.png
subject-04,1,490,1.20620107650757,airplane,airplane,1,0490_hp_s04_1_airplane_10_n02690373_4202.png
subject-04,1,491,1.23407888412476,car,truck,0.45,0491_hp_s04_0.45_truck_10_n04467665_40002.png
subject-04,1,492,1.06770706176758,chair,chair,inf,0492_hp_s04_inf_chair_10_n02791124_8099.png
subject-04,1,493,1.20601892471313,oven,oven,0.7,0493_hp_s04_0.7_oven_10_n04111531_4749.png
subject-04,1,494,1.19141507148743,car,elephant,0.45,0494_hp_s04_0.45_elephant_10_n02504458_6472.png
subject-04,1,495,0.931281089782715,chair,dog,1,0495_hp_s04_1_dog_10_n02088238_2234.png
subject-04,1,496,1.36497116088867,dog,dog,inf,0496_hp_s04_inf_dog_10_n02099429_1915.png
subject-04,1,497,1.06282091140747,oven,clock,0.7,0497_hp_s04_0.7_clock_10_n03196217_3361.png
subject-04,1,498,0.856594800949097,bicycle,bicycle,1.5,0498_hp_s04_1.5_bicycle_10_n03792782_1983.png
subject-04,1,499,NaN,na,elephant,3,0499_hp_s04_3_elephant_10_n02504458_3399.png
subject-04,1,500,1.23821902275085,chair,bicycle,0.45,0500_hp_s04_0.45_bicycle_10_n03792782_67327.png
subject-04,1,501,0.9444899559021,bear,bear,3,0501_hp_s04_3_bear_10_n02134418_3723.png
subject-04,1,502,0.81221604347229,truck,truck,1.5,0502_hp_s04_1.5_truck_10_n04467665_67315.png
subject-04,1,503,1.11583709716797,bicycle,bicycle,1.5,0503_hp_s04_1.5_bicycle_10_n03792782_14557.png
subject-04,1,504,0.993490934371948,truck,boat,0.4,0504_hp_s04_0.4_boat_10_n03662601_21543.png
subject-04,1,505,0.665380954742432,cat,cat,1,0505_hp_s04_1_cat_10_n02123159_4376.png
subject-04,1,506,0.787184953689575,oven,truck,1.5,0506_hp_s04_1.5_truck_10_n03417042_5249.png
subject-04,1,507,0.861151933670044,bear,bear,3,0507_hp_s04_3_bear_10_n02132136_17524.png
subject-04,1,508,1.14688897132874,truck,boat,0.4,0508_hp_s04_0.4_boat_10_n02951358_6637.png
subject-04,1,509,1.22674608230591,truck,bicycle,0.4,0509_hp_s04_0.4_bicycle_10_n02835271_1261.png
subject-04,1,510,1.17664003372192,bird,dog,0.7,0510_hp_s04_0.7_dog_10_n02113978_8008.png
subject-04,1,511,0.916338920593262,truck,truck,inf,0511_hp_s04_inf_truck_10_n04467665_33086.png
subject-04,1,512,1.25379300117493,car,bicycle,0.4,0512_hp_s04_0.4_bicycle_10_n03792782_1276.png
subject-04,1,513,0.981840133666992,car,car,1,0513_hp_s04_1_car_10_n02814533_22693.png
subject-04,1,514,0.987705945968628,car,bicycle,1,0514_hp_s04_1_bicycle_10_n02835271_24230.png
subject-04,1,515,1.0855450630188,bird,bear,0.7,0515_hp_s04_0.7_bear_10_n02134084_5004.png
subject-04,1,516,1.03126311302185,truck,chair,0.7,0516_hp_s04_0.7_chair_10_n04429376_52822.png
subject-04,1,517,1.20927691459656,knife,dog,1,0517_hp_s04_1_dog_10_n02091032_8024.png
subject-04,1,518,1.23682999610901,truck,chair,0.45,0518_hp_s04_0.45_chair_10_n04099969_4053.png
subject-04,1,519,1.13860988616943,truck,truck,3,0519_hp_s04_3_truck_10_n04467665_45796.png
subject-04,1,520,NaN,na,oven,0.55,0520_hp_s04_0.55_oven_10_n04111531_3702.png
subject-04,1,521,0.816399097442627,truck,truck,3,0521_hp_s04_3_truck_10_n03796401_7296.png
subject-04,1,522,1.04003310203552,car,car,0.55,0522_hp_s04_0.55_car_10_n02814533_12532.png
subject-04,1,523,1.21608400344849,boat,bear,0.45,0523_hp_s04_0.45_bear_10_n02132136_2875.png
subject-04,1,524,0.74569296836853,cat,cat,1,0524_hp_s04_1_cat_10_n02125311_12070.png
subject-04,1,525,1.21159195899963,cat,bird,3,0525_hp_s04_3_bird_10_n01514859_8585.png
subject-04,1,526,1.13935399055481,clock,clock,1,0526_hp_s04_1_clock_10_n04548280_4229.png
subject-04,1,527,0.823024034500122,bird,bird,inf,0527_hp_s04_inf_bird_10_n01798484_4076.png
subject-04,1,528,1.2474889755249,oven,oven,1,0528_hp_s04_1_oven_10_n04111531_891.png
subject-04,1,529,1.21110701560974,dog,dog,3,0529_hp_s04_3_dog_10_n02102973_7028.png
subject-04,1,530,NaN,na,oven,0.45,0530_hp_s04_0.45_oven_10_n04111531_4346.png
subject-04,1,531,0.646656036376953,clock,clock,1,0531_hp_s04_1_clock_10_n04548280_3342.png
subject-04,1,532,0.868600130081177,bicycle,bicycle,1,0532_hp_s04_1_bicycle_10_n02835271_11851.png
subject-04,1,533,1.23250389099121,oven,truck,0.7,0533_hp_s04_0.7_truck_10_n03417042_6467.png
subject-04,1,534,1.25431609153748,keyboard,bottle,0.45,0534_hp_s04_0.45_bottle_10_n03937543_11897.png
subject-04,1,535,1.44558882713318,keyboard,airplane,0.55,0535_hp_s04_0.55_airplane_10_n02690373_3035.png
subject-04,1,536,0.589450836181641,clock,clock,1.5,0536_hp_s04_1.5_clock_10_n02708093_3750.png
subject-04,1,537,0.875276803970337,keyboard,keyboard,3,0537_hp_s04_3_keyboard_10_n03085013_5738.png
subject-04,1,538,1.38904309272766,chair,chair,1.5,0538_hp_s04_1.5_chair_10_n04429376_55898.png
subject-04,1,539,0.782835960388184,boat,boat,1.5,0539_hp_s04_1.5_boat_10_n04273569_3401.png
subject-04,1,540,1.24275207519531,knife,elephant,3,0540_hp_s04_3_elephant_10_n02504013_9566.png
subject-04,1,541,1.21861886978149,knife,bird,inf,0541_hp_s04_inf_bird_10_n01833805_3578.png
subject-04,1,542,1.49434304237366,airplane,cat,0.45,0542_hp_s04_0.45_cat_10_n02124075_12467.png
subject-04,1,543,0.838705062866211,keyboard,keyboard,inf,0543_hp_s04_inf_keyboard_10_n04505470_4603.png
subject-04,1,544,1.2419068813324,bear,cat,1.5,0544_hp_s04_1.5_cat_10_n02125311_37036.png
subject-04,1,545,1.41781878471375,boat,oven,0.45,0545_hp_s04_0.45_oven_10_n04111531_7050.png
subject-04,1,546,1.50001382827759,dog,bear,0.4,0546_hp_s04_0.4_bear_10_n02133161_2813.png
subject-04,1,547,1.33937001228333,cat,bicycle,0.7,0547_hp_s04_0.7_bicycle_10_n02835271_1035.png
subject-04,1,548,1.50013613700867,truck,keyboard,0.55,0548_hp_s04_0.55_keyboard_10_n03085013_23791.png
subject-04,1,549,1.05501794815063,airplane,airplane,1.5,0549_hp_s04_1.5_airplane_10_n02690373_2316.png
subject-04,1,550,1.04539084434509,bottle,bottle,1,0550_hp_s04_1_bottle_10_n04579145_287.png
subject-04,1,551,1.01474094390869,truck,truck,1,0551_hp_s04_1_truck_10_n03796401_430.png
subject-04,1,552,1.2187979221344,cat,dog,1.5,0552_hp_s04_1.5_dog_10_n02105251_6599.png
subject-04,1,553,1.23229098320007,car,dog,0.45,0553_hp_s04_0.45_dog_10_n02094258_4142.png
subject-04,1,554,1.0704231262207,chair,chair,inf,0554_hp_s04_inf_chair_10_n02791124_392.png
subject-04,1,555,1.42595911026001,elephant,truck,0.4,0555_hp_s04_0.4_truck_10_n03417042_22297.png
subject-04,1,556,1.27388405799866,cat,bear,0.55,0556_hp_s04_0.55_bear_10_n02132136_3563.png
subject-04,1,557,1.09146404266357,bicycle,bicycle,0.55,0557_hp_s04_0.55_bicycle_10_n03792782_9412.png
subject-04,1,558,0.987524032592773,airplane,airplane,1.5,0558_hp_s04_1.5_airplane_10_n02690373_4176.png
subject-04,1,559,0.905367136001587,bicycle,bicycle,1,0559_hp_s04_1_bicycle_10_n02835271_1525.png
subject-04,1,560,1.15092802047729,truck,bird,0.55,0560_hp_s04_0.55_bird_10_n01616318_12459.png
subject-04,1,561,1.50014519691467,truck,cat,0.45,0561_hp_s04_0.45_cat_10_n02125311_25104.png
subject-04,1,562,1.18440699577332,boat,airplane,0.55,0562_hp_s04_0.55_airplane_10_n02690373_16986.png
subject-04,1,563,1.00193381309509,bicycle,bicycle,inf,0563_hp_s04_inf_bicycle_10_n02835271_1299.png
subject-04,1,564,1.2098560333252,truck,clock,0.4,0564_hp_s04_0.4_clock_10_n04548280_1126.png
subject-04,1,565,1.11357402801514,keyboard,keyboard,3,0565_hp_s04_3_keyboard_10_n04505470_550.png
subject-04,1,566,1.35762000083923,truck,bear,0.4,0566_hp_s04_0.4_bear_10_n02134084_7805.png
subject-04,1,567,1.37947511672974,bear,truck,0.4,0567_hp_s04_0.4_truck_10_n03417042_2293.png
subject-04,1,568,1.06108784675598,car,car,0.45,0568_hp_s04_0.45_car_10_n03100240_5633.png
subject-04,1,569,0.980810165405273,bird,bird,3,0569_hp_s04_3_bird_10_n01828970_15425.png
subject-04,1,570,1.01714205741882,car,car,3,0570_hp_s04_3_car_10_n03100240_2420.png
subject-04,1,571,1.15648603439331,truck,truck,1.5,0571_hp_s04_1.5_truck_10_n04467665_45872.png
subject-04,1,572,1.13446593284607,clock,clock,0.7,0572_hp_s04_0.7_clock_10_n04548280_5038.png
subject-04,1,573,1.04230403900146,keyboard,keyboard,3,0573_hp_s04_3_keyboard_10_n03085013_19401.png
subject-04,1,574,0.944140911102295,boat,boat,inf,0574_hp_s04_inf_boat_10_n03662601_11276.png
subject-04,1,575,1.24374914169312,oven,oven,1,0575_hp_s04_1_oven_10_n04111531_4444.png
subject-04,1,576,1.13154101371765,bird,bird,3,0576_hp_s04_3_bird_10_n01819313_3440.png
subject-04,1,577,1.16769289970398,truck,knife,0.4,0577_hp_s04_0.4_knife_10_n03041632_22964.png
subject-04,1,578,1.13954305648804,keyboard,keyboard,1,0578_hp_s04_1_keyboard_10_n04505470_4741.png
subject-04,1,579,1.08897304534912,truck,truck,0.45,0579_hp_s04_0.45_truck_10_n04467665_36855.png
subject-04,1,580,1.48469209671021,boat,bear,0.45,0580_hp_s04_0.45_bear_10_n02132136_16636.png
subject-04,1,581,0.790983915328979,car,car,3,0581_hp_s04_3_car_10_n02814533_3375.png
subject-04,1,582,0.776551008224487,cat,cat,1,0582_hp_s04_1_cat_10_n02124075_11528.png
subject-04,1,583,1.50005507469177,elephant,clock,0.55,0583_hp_s04_0.55_clock_10_n02708093_5311.png
subject-04,1,584,1.12603497505188,truck,clock,0.45,0584_hp_s04_0.45_clock_10_n04548280_8225.png
subject-04,1,585,0.901766061782837,car,cat,0.55,0585_hp_s04_0.55_cat_10_n02123597_1016.png
subject-04,1,586,1.07971405982971,bird,oven,1,0586_hp_s04_1_oven_10_n04111531_2458.png
subject-04,1,587,1.0574779510498,bicycle,bicycle,1,0587_hp_s04_1_bicycle_10_n03792782_18496.png
subject-04,1,588,1.1573121547699,dog,dog,inf,0588_hp_s04_inf_dog_10_n02102040_1100.png
subject-04,1,589,1.2530620098114,cat,dog,inf,0589_hp_s04_inf_dog_10_n02086646_5897.png
subject-04,1,590,1.29690289497375,bicycle,bird,1.5,0590_hp_s04_1.5_bird_10_n01818515_42621.png
subject-04,1,591,1.20070505142212,cat,bird,0.4,0591_hp_s04_0.4_bird_10_n02011460_19684.png
subject-04,1,592,1.0704300403595,truck,truck,1.5,0592_hp_s04_1.5_truck_10_n03796401_1326.png
subject-04,1,593,1.17429995536804,oven,oven,0.7,0593_hp_s04_0.7_oven_10_n04111531_9041.png
subject-04,1,594,1.34449791908264,bicycle,truck,3,0594_hp_s04_3_truck_10_n03417042_3748.png
subject-04,1,595,0.785892009735107,bicycle,bicycle,inf,0595_hp_s04_inf_bicycle_10_n03792782_16179.png
subject-04,1,596,1.01003408432007,chair,oven,0.7,0596_hp_s04_0.7_oven_10_n04111531_3955.png
subject-04,1,597,0.921753168106079,car,car,1.5,0597_hp_s04_1.5_car_10_n04285008_15271.png
subject-04,1,598,1.06752991676331,dog,dog,3,0598_hp_s04_3_dog_10_n02091244_3193.png
subject-04,1,599,1.30718016624451,chair,bottle,0.7,0599_hp_s04_0.7_bottle_10_n03937543_9606.png
subject-04,1,600,1.03113603591919,bird,bird,3,0600_hp_s04_3_bird_10_n01560419_1738.png
subject-04,1,601,1.01281189918518,bottle,bottle,inf,0601_hp_s04_inf_bottle_10_n03983396_11948.png
subject-04,1,602,1.13461709022522,car,truck,0.55,0602_hp_s04_0.55_truck_10_n04467665_67853.png
subject-04,1,603,1.41260719299316,keyboard,bear,0.45,0603_hp_s04_0.45_bear_10_n02134418_13618.png
subject-04,1,604,1.4364972114563,truck,oven,0.55,0604_hp_s04_0.55_oven_10_n04111531_3265.png
subject-04,1,605,1.28618001937866,cat,cat,3,0605_hp_s04_3_cat_10_n02124075_9613.png
subject-04,1,606,1.15784406661987,elephant,elephant,inf,0606_hp_s04_inf_elephant_10_n02504013_5839.png
subject-04,1,607,1.15966320037842,bottle,bottle,1,0607_hp_s04_1_bottle_10_n04560804_15923.png
subject-04,1,608,1.21152305603027,clock,clock,0.55,0608_hp_s04_0.55_clock_10_n04548280_3605.png
subject-04,1,609,1.02546095848083,car,car,1.5,0609_hp_s04_1.5_car_10_n02814533_70322.png
subject-04,1,610,1.13110303878784,chair,chair,0.7,0610_hp_s04_0.7_chair_10_n04429376_30610.png
subject-04,1,611,1.03522896766663,airplane,airplane,1,0611_hp_s04_1_airplane_10_n02690373_10210.png
subject-04,1,612,1.20274186134338,keyboard,oven,0.55,0612_hp_s04_0.55_oven_10_n04111531_9867.png
subject-04,1,613,1.18460917472839,car,car,0.55,0613_hp_s04_0.55_car_10_n02814533_81092.png
subject-04,1,614,1.13435888290405,car,bicycle,0.55,0614_hp_s04_0.55_bicycle_10_n03792782_10876.png
subject-04,1,615,1.21021699905396,truck,airplane,0.4,0615_hp_s04_0.4_airplane_10_n02690373_20042.png
subject-04,1,616,1.04004287719727,keyboard,keyboard,inf,0616_hp_s04_inf_keyboard_10_n04505470_4668.png
subject-04,1,617,NaN,na,elephant,0.4,0617_hp_s04_0.4_elephant_10_n02504458_6714.png
subject-04,1,618,1.09178495407104,oven,keyboard,0.55,0618_hp_s04_0.55_keyboard_10_n03085013_23201.png
subject-04,1,619,1.45143818855286,bicycle,oven,0.45,0619_hp_s04_0.45_oven_10_n04111531_3671.png
subject-04,1,620,0.879219055175781,elephant,elephant,3,0620_hp_s04_3_elephant_10_n02504013_2269.png
subject-04,1,621,1.0070960521698,truck,truck,0.55,0621_hp_s04_0.55_truck_10_n04467665_52409.png
subject-04,1,622,1.34901404380798,bear,keyboard,0.4,0622_hp_s04_0.4_keyboard_10_n03085013_20923.png
subject-04,1,623,0.884788036346436,bottle,bottle,3,0623_hp_s04_3_bottle_10_n04560804_30885.png
subject-04,1,624,1.30451416969299,airplane,airplane,0.55,0624_hp_s04_0.55_airplane_10_n02690373_20996.png
subject-04,1,625,1.27438306808472,bicycle,bicycle,0.45,0625_hp_s04_0.45_bicycle_10_n03792782_16034.png
subject-04,1,626,1.45809602737427,oven,keyboard,1.5,0626_hp_s04_1.5_keyboard_10_n04505470_5275.png
subject-04,1,627,1.2260890007019,bear,bear,1,0627_hp_s04_1_bear_10_n02134418_24559.png
subject-04,1,628,1.50004315376282,bicycle,bicycle,0.55,0628_hp_s04_0.55_bicycle_10_n03792782_10185.png
subject-04,1,629,0.671700954437256,oven,oven,inf,0629_hp_s04_inf_oven_10_n04111531_2447.png
subject-04,1,630,1.26938605308533,cat,bear,1.5,0630_hp_s04_1.5_bear_10_n02134084_17849.png
subject-04,1,631,0.899245977401733,knife,knife,inf,0631_hp_s04_inf_knife_10_n03041632_20595.png
subject-04,1,632,1.41490602493286,truck,bear,0.7,0632_hp_s04_0.7_bear_10_n02132136_19995.png
subject-04,1,633,1.24488019943237,bear,bear,1.5,0633_hp_s04_1.5_bear_10_n02134084_12917.png
subject-04,1,634,0.992663860321045,car,car,0.7,0634_hp_s04_0.7_car_10_n02814533_5278.png
subject-04,1,635,0.830541849136353,elephant,elephant,3,0635_hp_s04_3_elephant_10_n02504458_13406.png
subject-04,1,636,1.10824799537659,truck,chair,0.55,0636_hp_s04_0.55_chair_10_n03376595_9524.png
subject-04,1,637,1.45817494392395,bird,bear,0.7,0637_hp_s04_0.7_bear_10_n02134084_1867.png
subject-04,1,638,0.821955919265747,car,car,1,0638_hp_s04_1_car_10_n03100240_9955.png
subject-04,1,639,0.901895999908447,cat,cat,1,0639_hp_s04_1_cat_10_n02125311_8496.png
subject-04,1,640,0.705781936645508,boat,boat,0.7,0640_hp_s04_0.7_boat_10_n03344393_3345.png
subject-04,1,641,0.743726015090942,bicycle,bicycle,inf,0641_hp_s04_inf_bicycle_10_n02835271_13793.png
subject-04,1,642,1.07148194313049,boat,boat,0.45,0642_hp_s04_0.45_boat_10_n03344393_4827.png
subject-04,1,643,0.969587802886963,clock,oven,1,0643_hp_s04_1_oven_10_n04111531_10711.png
subject-04,1,644,0.863072156906128,car,car,1,0644_hp_s04_1_car_10_n03100240_6059.png
subject-04,1,645,0.758987188339233,chair,chair,1.5,0645_hp_s04_1.5_chair_10_n03376595_6173.png
subject-04,1,646,0.830626010894775,car,car,0.7,0646_hp_s04_0.7_car_10_n04285008_12138.png
subject-04,1,647,1.12105298042297,car,truck,0.7,0647_hp_s04_0.7_truck_10_n03796401_6526.png
subject-04,1,648,0.738968849182129,cat,cat,3,0648_hp_s04_3_cat_10_n02124075_7144.png
subject-04,1,649,0.872175931930542,keyboard,keyboard,inf,0649_hp_s04_inf_keyboard_10_n04505470_4685.png
subject-04,1,650,1.29232597351074,boat,elephant,0.45,0650_hp_s04_0.45_elephant_10_n02504013_4392.png
subject-04,1,651,1.39781498908997,bicycle,boat,0.55,0651_hp_s04_0.55_boat_10_n03662601_1541.png
subject-04,1,652,0.911875009536743,car,bottle,0.55,0652_hp_s04_0.55_bottle_10_n04557648_7646.png
subject-04,1,653,1.06351590156555,boat,boat,inf,0653_hp_s04_inf_boat_10_n03662601_3145.png
subject-04,1,654,1.36735105514526,car,airplane,0.45,0654_hp_s04_0.45_airplane_10_n02690373_863.png
subject-04,1,655,1.20545291900635,car,truck,0.4,0655_hp_s04_0.4_truck_10_n03417042_10150.png
subject-04,1,656,0.702991008758545,clock,clock,1,0656_hp_s04_1_clock_10_n04548280_3013.png
subject-04,1,657,1.28870701789856,keyboard,dog,0.7,0657_hp_s04_0.7_dog_10_n02110185_9014.png
subject-04,1,658,1.27892518043518,bicycle,elephant,0.45,0658_hp_s04_0.45_elephant_10_n02504458_9094.png
subject-04,1,659,1.37836909294128,keyboard,oven,0.7,0659_hp_s04_0.7_oven_10_n04111531_8688.png
subject-04,1,660,1.35402703285217,car,airplane,1,0660_hp_s04_1_airplane_10_n02690373_1167.png
subject-04,1,661,1.31009316444397,car,oven,0.4,0661_hp_s04_0.4_oven_10_n04111531_10521.png
subject-04,1,662,1.41176700592041,truck,bear,0.55,0662_hp_s04_0.55_bear_10_n02132136_23853.png
subject-04,1,663,1.0375440120697,oven,bottle,0.55,0663_hp_s04_0.55_bottle_10_n04557648_3350.png
subject-04,1,664,0.973459005355835,elephant,elephant,1.5,0664_hp_s04_1.5_elephant_10_n02504013_701.png
subject-04,1,665,1.12332105636597,car,elephant,0.4,0665_hp_s04_0.4_elephant_10_n02504458_2041.png
subject-04,1,666,0.562963962554932,clock,clock,0.7,0666_hp_s04_0.7_clock_10_n04548280_6493.png
subject-04,1,667,1.04087209701538,car,car,0.4,0667_hp_s04_0.4_car_10_n03100240_20489.png
subject-04,1,668,0.768925189971924,boat,boat,inf,0668_hp_s04_inf_boat_10_n02951358_4189.png
subject-04,1,669,0.816523790359497,bird,bird,1,0669_hp_s04_1_bird_10_n02027492_4897.png
subject-04,1,670,0.718305110931396,oven,oven,0.55,0670_hp_s04_0.55_oven_10_n04111531_2260.png
subject-04,1,671,0.930402040481567,truck,truck,1,0671_hp_s04_1_truck_10_n04467665_7069.png
subject-04,1,672,1.05587911605835,oven,bicycle,0.7,0672_hp_s04_0.7_bicycle_10_n03792782_15932.png
subject-04,1,673,0.893828868865967,keyboard,keyboard,1.5,0673_hp_s04_1.5_keyboard_10_n04505470_5059.png
subject-04,1,674,1.01748085021973,keyboard,keyboard,0.7,0674_hp_s04_0.7_keyboard_10_n03085013_22067.png
subject-04,1,675,1.27728700637817,car,keyboard,0.45,0675_hp_s04_0.45_keyboard_10_n04505470_709.png
subject-04,1,676,0.921422004699707,oven,oven,1,0676_hp_s04_1_oven_10_n04111531_4438.png
subject-04,1,677,0.730932950973511,airplane,airplane,1,0677_hp_s04_1_airplane_10_n02690373_9318.png
subject-04,1,678,0.680721044540405,cat,cat,1.5,0678_hp_s04_1.5_cat_10_n02123394_3813.png
subject-04,1,679,0.97642707824707,bear,bear,1.5,0679_hp_s04_1.5_bear_10_n02134418_3216.png
subject-04,1,680,0.738509893417358,knife,knife,3,0680_hp_s04_3_knife_10_n03041632_33739.png
subject-04,1,681,0.792207956314087,truck,truck,inf,0681_hp_s04_inf_truck_10_n04467665_4088.png
subject-04,1,682,1.47793221473694,truck,airplane,0.55,0682_hp_s04_0.55_airplane_10_n02690373_817.png
subject-04,1,683,1.10584998130798,truck,oven,0.4,0683_hp_s04_0.4_oven_10_n04111531_1750.png
subject-04,1,684,1.28000903129578,oven,elephant,0.7,0684_hp_s04_0.7_elephant_10_n02504458_155.png
subject-04,1,685,0.897554874420166,bear,bear,1,0685_hp_s04_1_bear_10_n02132136_9184.png
subject-04,1,686,1.20327806472778,bicycle,chair,1,0686_hp_s04_1_chair_10_n04429376_24578.png
subject-04,1,687,1.15101385116577,boat,boat,0.55,0687_hp_s04_0.55_boat_10_n03344393_4502.png
subject-04,1,688,1.20092296600342,dog,dog,0.7,0688_hp_s04_0.7_dog_10_n02100236_619.png
subject-04,1,689,1.04085898399353,bear,bear,inf,0689_hp_s04_inf_bear_10_n02134084_6910.png
subject-04,1,690,0.994616985321045,truck,oven,0.4,0690_hp_s04_0.4_oven_10_n04111531_5927.png
subject-04,1,691,0.810632944107056,knife,knife,1.5,0691_hp_s04_1.5_knife_10_n03041632_36907.png
subject-04,1,692,0.820152044296265,bicycle,bicycle,0.7,0692_hp_s04_0.7_bicycle_10_n02835271_12666.png
subject-04,1,693,1.33799600601196,truck,bird,0.7,0693_hp_s04_0.7_bird_10_n02007558_4566.png
subject-04,1,694,0.997836112976074,knife,bottle,0.7,0694_hp_s04_0.7_bottle_10_n03937543_5166.png
subject-04,1,695,0.885519027709961,keyboard,keyboard,0.55,0695_hp_s04_0.55_keyboard_10_n03085013_8325.png
subject-04,1,696,0.901463031768799,truck,cat,0.55,0696_hp_s04_0.55_cat_10_n02123159_8240.png
subject-04,1,697,1.01352405548096,bird,elephant,1,0697_hp_s04_1_elephant_10_n02504013_3969.png
subject-04,1,698,0.904941082000732,bicycle,bicycle,1.5,0698_hp_s04_1.5_bicycle_10_n03792782_11945.png
subject-04,1,699,0.762809991836548,knife,knife,3,0699_hp_s04_3_knife_10_n03041632_42196.png
subject-04,1,700,0.748735904693604,oven,oven,1.5,0700_hp_s04_1.5_oven_10_n04111531_49.png
subject-04,1,701,0.806554079055786,chair,chair,0.7,0701_hp_s04_0.7_chair_10_n03376595_11839.png
subject-04,1,702,0.674515962600708,boat,boat,1.5,0702_hp_s04_1.5_boat_10_n03662601_10240.png
subject-04,1,703,1.24827098846436,oven,bear,0.7,0703_hp_s04_0.7_bear_10_n02133161_4161.png
subject-04,1,704,1.30984497070312,bicycle,cat,0.55,0704_hp_s04_0.55_cat_10_n02123394_3607.png
subject-04,1,705,0.661850929260254,clock,clock,1.5,0705_hp_s04_1.5_clock_10_n03196217_7918.png
subject-04,1,706,0.67941689491272,car,car,inf,0706_hp_s04_inf_car_10_n03100240_8907.png
subject-04,1,707,0.795404195785522,oven,oven,1,0707_hp_s04_1_oven_10_n04111531_21232.png
subject-04,1,708,0.825217008590698,keyboard,keyboard,0.7,0708_hp_s04_0.7_keyboard_10_n03085013_21973.png
subject-04,1,709,1.05498695373535,truck,truck,0.7,0709_hp_s04_0.7_truck_10_n03417042_4292.png
subject-04,1,710,0.977077960968018,boat,boat,0.7,0710_hp_s04_0.7_boat_10_n04273569_7355.png
subject-04,1,711,0.780611038208008,bicycle,bicycle,3,0711_hp_s04_3_bicycle_10_n02835271_4307.png
subject-04,1,712,1.07449507713318,truck,bird,0.55,0712_hp_s04_0.55_bird_10_n02018207_10814.png
subject-04,1,713,0.694153070449829,airplane,airplane,1.5,0713_hp_s04_1.5_airplane_10_n02690373_5789.png
subject-04,1,714,1.05196285247803,truck,airplane,inf,0714_hp_s04_inf_airplane_10_n02690373_10278.png
subject-04,1,715,1.35378408432007,bird,bear,0.45,0715_hp_s04_0.45_bear_10_n02134084_3177.png
subject-04,1,716,1.50006699562073,truck,bottle,0.45,0716_hp_s04_0.45_bottle_10_n04560804_7509.png
subject-04,1,717,0.771592140197754,airplane,airplane,0.7,0717_hp_s04_0.7_airplane_10_n02690373_18295.png
subject-04,1,718,0.941160202026367,car,elephant,0.4,0718_hp_s04_0.4_elephant_10_n02504458_5008.png
subject-04,1,719,1.33307504653931,elephant,bird,0.7,0719_hp_s04_0.7_bird_10_n02009229_851.png
subject-04,1,720,1.38082599639893,boat,chair,0.4,0720_hp_s04_0.4_chair_10_n04429376_10628.png
subject-04,1,721,0.892145156860352,knife,knife,1,0721_hp_s04_1_knife_10_n03041632_27575.png
subject-04,1,722,0.835824966430664,airplane,airplane,3,0722_hp_s04_3_airplane_10_n02690373_21922.png
subject-04,1,723,0.809827089309692,oven,clock,0.55,0723_hp_s04_0.55_clock_10_n03196217_2983.png
subject-04,1,724,0.715513944625854,bear,bear,inf,0724_hp_s04_inf_bear_10_n02132136_13370.png
subject-04,1,725,0.913506984710693,truck,keyboard,0.4,0725_hp_s04_0.4_keyboard_10_n04505470_207.png
subject-04,1,726,0.849086999893188,keyboard,keyboard,1.5,0726_hp_s04_1.5_keyboard_10_n03085013_24026.png
subject-04,1,727,1.50009107589722,oven,truck,3,0727_hp_s04_3_truck_10_n03417042_3821.png
subject-04,1,728,0.752778053283691,airplane,airplane,3,0728_hp_s04_3_airplane_10_n02690373_7496.png
subject-04,1,729,0.806570053100586,bottle,bottle,inf,0729_hp_s04_inf_bottle_10_n04557648_91.png
subject-04,1,730,0.98861289024353,chair,knife,0.55,0730_hp_s04_0.55_knife_10_n03041632_13203.png
subject-04,1,731,0.992126941680908,bear,bird,0.45,0731_hp_s04_0.45_bird_10_n01796340_6191.png
subject-04,1,732,1.50007009506226,bird,car,0.45,0732_hp_s04_0.45_car_10_n02814533_30383.png
subject-04,1,733,1.50003910064697,truck,knife,0.45,0733_hp_s04_0.45_knife_10_n03041632_40652.png
subject-04,1,734,1.05757784843445,car,car,inf,0734_hp_s04_inf_car_10_n04285008_6587.png
subject-04,1,735,1.37554001808167,bird,cat,0.7,0735_hp_s04_0.7_cat_10_n02124075_8732.png
subject-04,1,736,1.00330400466919,chair,boat,0.55,0736_hp_s04_0.55_boat_10_n04273569_29711.png
subject-04,1,737,1.30536198616028,cat,cat,0.7,0737_hp_s04_0.7_cat_10_n02123597_1684.png
subject-04,1,738,0.702983856201172,airplane,airplane,inf,0738_hp_s04_inf_airplane_10_n02690373_9535.png
subject-04,1,739,0.862678050994873,bird,bird,1.5,0739_hp_s04_1.5_bird_10_n01828970_9006.png
subject-04,1,740,1.27461004257202,car,airplane,0.45,0740_hp_s04_0.45_airplane_10_n02690373_18871.png
subject-04,1,741,0.974348783493042,bear,dog,0.55,0741_hp_s04_0.55_dog_10_n02094433_10343.png
subject-04,1,742,1.44053792953491,car,boat,0.4,0742_hp_s04_0.4_boat_10_n02951358_343.png
subject-04,1,743,1.26009202003479,airplane,airplane,0.7,0743_hp_s04_0.7_airplane_10_n02690373_6328.png
subject-04,1,744,1.03222489356995,bear,bear,1.5,0744_hp_s04_1.5_bear_10_n02134084_1484.png
subject-04,1,745,1.15156888961792,car,bear,0.4,0745_hp_s04_0.4_bear_10_n02134418_2412.png
subject-04,1,746,1.05153298377991,boat,dog,1,0746_hp_s04_1_dog_10_n02099267_14149.png
subject-04,1,747,1.01721620559692,keyboard,cat,0.7,0747_hp_s04_0.7_cat_10_n02123159_5993.png
subject-04,1,748,0.851254940032959,chair,chair,1,0748_hp_s04_1_chair_10_n02791124_2689.png
subject-04,1,749,0.610963106155396,clock,clock,1,0749_hp_s04_1_clock_10_n02708093_3173.png
subject-04,1,750,0.906599044799805,bicycle,bicycle,1,0750_hp_s04_1_bicycle_10_n03792782_8176.png
subject-04,1,751,1.5000958442688,truck,cat,0.55,0751_hp_s04_0.55_cat_10_n02125311_34158.png
subject-04,1,752,1.50000691413879,bird,elephant,1.5,0752_hp_s04_1.5_elephant_10_n02504013_7079.png
subject-04,1,753,0.740127086639404,cat,cat,1.5,0753_hp_s04_1.5_cat_10_n02123597_10301.png
subject-04,1,754,0.93995189666748,truck,truck,1.5,0754_hp_s04_1.5_truck_10_n04467665_1966.png
subject-04,1,755,1.22787117958069,bicycle,bicycle,1,0755_hp_s04_1_bicycle_10_n03792782_15174.png
subject-04,1,756,1.16154193878174,car,airplane,0.7,0756_hp_s04_0.7_airplane_10_n02690373_10397.png
subject-04,1,757,0.693496942520142,bird,bird,inf,0757_hp_s04_inf_bird_10_n02056570_11311.png
subject-04,1,758,0.893062114715576,bicycle,bicycle,3,0758_hp_s04_3_bicycle_10_n02835271_11922.png
subject-04,1,759,0.698809146881104,clock,clock,3,0759_hp_s04_3_clock_10_n02708093_3484.png
subject-04,1,760,0.849225997924805,oven,oven,3,0760_hp_s04_3_oven_10_n04111531_4826.png
subject-04,1,761,1.32656502723694,truck,boat,0.45,0761_hp_s04_0.45_boat_10_n02951358_11567.png
subject-04,1,762,1.02243399620056,bottle,bottle,1,0762_hp_s04_1_bottle_10_n04591713_4206.png
subject-04,1,763,0.866132974624634,dog,dog,inf,0763_hp_s04_inf_dog_10_n02086646_7064.png
subject-04,1,764,0.555983066558838,clock,clock,3,0764_hp_s04_3_clock_10_n04548280_5013.png
subject-04,1,765,1.50009393692017,bottle,knife,0.7,0765_hp_s04_0.7_knife_10_n03041632_4787.png
subject-04,1,766,0.873619079589844,dog,dog,3,0766_hp_s04_3_dog_10_n02091244_8497.png
subject-04,1,767,1.40587997436523,oven,bottle,1,0767_hp_s04_1_bottle_10_n03983396_4716.png
subject-04,1,768,1.32536005973816,knife,knife,1,0768_hp_s04_1_knife_10_n03041632_105080.png
subject-04,1,769,0.619204998016357,clock,clock,inf,0769_hp_s04_inf_clock_10_n02708093_8390.png
subject-04,1,770,0.69689416885376,bicycle,bicycle,1.5,0770_hp_s04_1.5_bicycle_10_n03792782_17193.png
subject-04,1,771,1.08492207527161,bird,bird,1,0771_hp_s04_1_bird_10_n02056570_9458.png
subject-04,1,772,1.4466540813446,bear,cat,0.7,0772_hp_s04_0.7_cat_10_n02123159_7161.png
subject-04,1,773,1.35245490074158,clock,chair,3,0773_hp_s04_3_chair_10_n04429376_22344.png
subject-04,1,774,1.42609286308289,truck,truck,0.4,0774_hp_s04_0.4_truck_10_n03417042_18124.png
subject-04,1,775,1.50008511543274,boat,knife,0.45,0775_hp_s04_0.45_knife_10_n03041632_56172.png
subject-04,1,776,1.49999618530273,car,truck,3,0776_hp_s04_3_truck_10_n04467665_25059.png
subject-04,1,777,1.42168188095093,bear,clock,0.4,0777_hp_s04_0.4_clock_10_n03196217_5365.png
subject-04,1,778,1.50007390975952,bicycle,boat,1.5,0778_hp_s04_1.5_boat_10_n02951358_30635.png
subject-04,1,779,0.849380016326904,bottle,bottle,1.5,0779_hp_s04_1.5_bottle_10_n04560804_12099.png
subject-04,1,780,1.48914217948914,bear,bottle,0.7,0780_hp_s04_0.7_bottle_10_n04560804_15225.png
subject-04,1,781,1.25082302093506,chair,chair,1,0781_hp_s04_1_chair_10_n02791124_6786.png
subject-04,1,782,0.660809993743896,oven,knife,inf,0782_hp_s04_inf_knife_10_n03041632_23968.png
subject-04,1,783,1.33052515983582,chair,chair,0.55,0783_hp_s04_0.55_chair_10_n04099969_34144.png
subject-04,1,784,1.38437581062317,cat,dog,3,0784_hp_s04_3_dog_10_n02096294_1275.png
subject-04,1,785,0.738348960876465,cat,cat,1.5,0785_hp_s04_1.5_cat_10_n02123045_12040.png
subject-04,1,786,1.16837286949158,boat,car,0.55,0786_hp_s04_0.55_car_10_n03100240_6822.png
subject-04,1,787,0.763702869415283,boat,boat,1,0787_hp_s04_1_boat_10_n04273569_3770.png
subject-04,1,788,0.785646915435791,cat,chair,0.45,0788_hp_s04_0.45_chair_10_n03376595_9851.png
subject-04,1,789,1.50005912780762,oven,bottle,0.45,0789_hp_s04_0.45_bottle_10_n04591713_475.png
subject-04,1,790,1.06737089157104,truck,truck,inf,0790_hp_s04_inf_truck_10_n03796401_1458.png
subject-04,1,791,0.999016046524048,cat,cat,1.5,0791_hp_s04_1.5_cat_10_n02123045_6144.png
subject-04,1,792,1.21312594413757,boat,car,0.4,0792_hp_s04_0.4_car_10_n04285008_771.png
subject-04,1,793,0.96675181388855,clock,clock,0.55,0793_hp_s04_0.55_clock_10_n04548280_2988.png
subject-04,1,794,1.15238809585571,boat,airplane,0.7,0794_hp_s04_0.7_airplane_10_n02690373_9712.png
subject-04,1,795,1.01216506958008,truck,clock,0.55,0795_hp_s04_0.55_clock_10_n03196217_5214.png
subject-04,1,796,0.743986129760742,cat,oven,3,0796_hp_s04_3_oven_10_n04111531_4421.png
subject-04,1,797,0.741909980773926,oven,oven,1.5,0797_hp_s04_1.5_oven_10_n04111531_8046.png
subject-04,1,798,0.913783073425293,car,car,0.7,0798_hp_s04_0.7_car_10_n02814533_45704.png
subject-04,1,799,1.38941383361816,car,bird,0.7,0799_hp_s04_0.7_bird_10_n02013706_18409.png
subject-04,1,800,0.973619937896729,knife,knife,3,0800_hp_s04_3_knife_10_n03041632_24646.png
subject-04,1,801,0.95644211769104,car,keyboard,0.4,0801_hp_s04_0.4_keyboard_10_n03085013_19055.png
subject-04,1,802,1.03432202339172,truck,keyboard,0.55,0802_hp_s04_0.55_keyboard_10_n03085013_6963.png
subject-04,1,803,0.975981950759888,bear,bear,1,0803_hp_s04_1_bear_10_n02134084_3795.png
subject-04,1,804,1.12208485603333,boat,bear,0.7,0804_hp_s04_0.7_bear_10_n02134418_962.png
subject-04,1,805,1.40569710731506,knife,dog,1.5,0805_hp_s04_1.5_dog_10_n02092339_2197.png
subject-04,1,806,1.28170585632324,car,knife,0.55,0806_hp_s04_0.55_knife_10_n03041632_36247.png
subject-04,1,807,1.37737107276917,bottle,bottle,1,0807_hp_s04_1_bottle_10_n04591713_4892.png
subject-04,1,808,1.15136814117432,car,dog,0.45,0808_hp_s04_0.45_dog_10_n02097209_7557.png
subject-04,1,809,0.786998987197876,bicycle,bicycle,1.5,0809_hp_s04_1.5_bicycle_10_n02835271_8549.png
subject-04,1,810,0.984874963760376,bear,bear,1,0810_hp_s04_1_bear_10_n02134084_16190.png
subject-04,1,811,1.19261884689331,boat,bottle,0.4,0811_hp_s04_0.4_bottle_10_n03983396_4165.png
subject-04,1,812,1.04474878311157,truck,car,0.4,0812_hp_s04_0.4_car_10_n03100240_23060.png
subject-04,1,813,1.42459011077881,truck,cat,0.4,0813_hp_s04_0.4_cat_10_n02123045_5189.png
subject-04,1,814,0.966111898422241,boat,clock,0.45,0814_hp_s04_0.45_clock_10_n04548280_10040.png
subject-04,1,815,1.20789003372192,oven,oven,0.55,0815_hp_s04_0.55_oven_10_n04111531_11505.png
subject-04,1,816,1.08000493049622,bottle,bird,0.45,0816_hp_s04_0.45_bird_10_n02006656_3891.png
subject-04,1,817,1.22159004211426,dog,dog,1.5,0817_hp_s04_1.5_dog_10_n02110063_11495.png
subject-04,1,818,1.48724389076233,bear,dog,1,0818_hp_s04_1_dog_10_n02091134_4525.png
subject-04,1,819,0.573083162307739,clock,clock,inf,0819_hp_s04_inf_clock_10_n02708093_2043.png
subject-04,1,820,1.09729695320129,bottle,cat,0.7,0820_hp_s04_0.7_cat_10_n02123045_114.png
subject-04,1,821,1.00709795951843,bicycle,bicycle,1.5,0821_hp_s04_1.5_bicycle_10_n03792782_66837.png
subject-04,1,822,1.50002002716064,boat,car,0.45,0822_hp_s04_0.45_car_10_n03100240_1856.png
subject-04,1,823,1.41231203079224,oven,clock,0.45,0823_hp_s04_0.45_clock_10_n04548280_4345.png
subject-04,1,824,NaN,na,bottle,0.55,0824_hp_s04_0.55_bottle_10_n03983396_11597.png
subject-04,1,825,0.669964075088501,bottle,bottle,3,0825_hp_s04_3_bottle_10_n04591713_7090.png
subject-04,1,826,0.988035917282104,car,knife,0.4,0826_hp_s04_0.4_knife_10_n03041632_31909.png
subject-04,1,827,0.925729036331177,chair,chair,1,0827_hp_s04_1_chair_10_n04099969_1040.png
subject-04,1,828,0.949646949768066,oven,oven,3,0828_hp_s04_3_oven_10_n04111531_14753.png
subject-04,1,829,0.621379852294922,boat,boat,0.55,0829_hp_s04_0.55_boat_10_n04612504_654.png
subject-04,1,830,0.873373031616211,bird,cat,0.7,0830_hp_s04_0.7_cat_10_n02124075_7680.png
subject-04,1,831,1.30476188659668,car,car,0.45,0831_hp_s04_0.45_car_10_n03100240_14390.png
subject-04,1,832,1.16098809242249,bottle,bottle,0.45,0832_hp_s04_0.45_bottle_10_n04560804_19619.png
subject-04,1,833,1.28237986564636,car,knife,0.45,0833_hp_s04_0.45_knife_10_n03041632_26933.png
subject-04,1,834,0.824329853057861,keyboard,keyboard,3,0834_hp_s04_3_keyboard_10_n04505470_10076.png
subject-04,1,835,0.980167865753174,truck,bottle,0.7,0835_hp_s04_0.7_bottle_10_n04579145_3660.png
subject-04,1,836,1.47022008895874,bottle,clock,0.55,0836_hp_s04_0.55_clock_10_n03196217_8072.png
subject-04,1,837,1.15995192527771,truck,truck,1.5,0837_hp_s04_1.5_truck_10_n03417042_1770.png
subject-04,1,838,1.07163000106812,boat,knife,0.55,0838_hp_s04_0.55_knife_10_n03041632_5302.png
subject-04,1,839,0.955404996871948,truck,bear,0.55,0839_hp_s04_0.55_bear_10_n02132136_9311.png
subject-04,1,840,0.999080181121826,elephant,elephant,1.5,0840_hp_s04_1.5_elephant_10_n02504458_5137.png
subject-04,1,841,1.23286080360413,bottle,oven,0.4,0841_hp_s04_0.4_oven_10_n04111531_1330.png
subject-04,1,842,1.20912194252014,oven,knife,1,0842_hp_s04_1_knife_10_n03041632_25257.png
subject-04,1,843,1.23652505874634,bicycle,bicycle,0.4,0843_hp_s04_0.4_bicycle_10_n03792782_8329.png
subject-04,1,844,1.40450692176819,elephant,boat,0.45,0844_hp_s04_0.45_boat_10_n04273569_15859.png
subject-04,1,845,1.02427411079407,truck,bicycle,0.45,0845_hp_s04_0.45_bicycle_10_n02835271_2050.png
subject-04,1,846,0.910227060317993,car,car,3,0846_hp_s04_3_car_10_n03100240_1879.png
subject-04,1,847,1.36795902252197,car,oven,0.55,0847_hp_s04_0.55_oven_10_n04111531_21973.png
subject-04,1,848,1.36755204200745,bear,cat,1.5,0848_hp_s04_1.5_cat_10_n02123597_7071.png
subject-04,1,849,NaN,na,knife,0.7,0849_hp_s04_0.7_knife_10_n03041632_24181.png
subject-04,1,850,0.885617017745972,car,car,0.45,0850_hp_s04_0.45_car_10_n02814533_72255.png
subject-04,1,851,1.2572648525238,car,truck,0.4,0851_hp_s04_0.4_truck_10_n03417042_750.png
subject-04,1,852,0.943082094192505,knife,knife,1,0852_hp_s04_1_knife_10_n03041632_48062.png
subject-04,1,853,0.908778190612793,car,car,1,0853_hp_s04_1_car_10_n04285008_8444.png
subject-04,1,854,0.840639114379883,bear,bear,1.5,0854_hp_s04_1.5_bear_10_n02134418_2666.png
subject-04,1,855,1.15035200119019,car,elephant,0.55,0855_hp_s04_0.55_elephant_10_n02504013_2369.png
subject-04,1,856,0.966233015060425,boat,truck,inf,0856_hp_s04_inf_truck_10_n04467665_83611.png
subject-04,1,857,1.03838801383972,knife,knife,inf,0857_hp_s04_inf_knife_10_n03041632_26989.png
subject-04,1,858,1.09214806556702,elephant,elephant,inf,0858_hp_s04_inf_elephant_10_n02504013_6769.png
subject-04,1,859,0.933740139007568,bicycle,bicycle,3,0859_hp_s04_3_bicycle_10_n02835271_781.png
subject-04,1,860,1.23935389518738,car,truck,0.45,0860_hp_s04_0.45_truck_10_n03417042_2315.png
subject-04,1,861,0.965507030487061,bicycle,dog,0.55,0861_hp_s04_0.55_dog_10_n02107574_1533.png
subject-04,1,862,0.763025045394897,bear,bear,inf,0862_hp_s04_inf_bear_10_n02134418_3152.png
subject-04,1,863,1.19897794723511,bear,bear,inf,0863_hp_s04_inf_bear_10_n02133161_8471.png
subject-04,1,864,1.26104307174683,bicycle,airplane,0.45,0864_hp_s04_0.45_airplane_10_n02690373_18111.png
subject-04,1,865,0.772763013839722,bicycle,clock,0.7,0865_hp_s04_0.7_clock_10_n02708093_7821.png
subject-04,1,866,0.936267852783203,car,car,0.55,0866_hp_s04_0.55_car_10_n03100240_3241.png
subject-04,1,867,1.19608402252197,bear,cat,inf,0867_hp_s04_inf_cat_10_n02125311_8369.png
subject-04,1,868,0.665940046310425,boat,boat,1,0868_hp_s04_1_boat_10_n04273569_6071.png
subject-04,1,869,0.837911128997803,truck,truck,0.7,0869_hp_s04_0.7_truck_10_n03796401_7199.png
subject-04,1,870,0.709501981735229,cat,cat,1,0870_hp_s04_1_cat_10_n02123597_647.png
subject-04,1,871,1.29546594619751,dog,bottle,0.4,0871_hp_s04_0.4_bottle_10_n04591713_1762.png
subject-04,1,872,0.921195983886719,keyboard,keyboard,0.55,0872_hp_s04_0.55_keyboard_10_n04505470_7686.png
subject-04,1,873,0.989245891571045,elephant,elephant,1,0873_hp_s04_1_elephant_10_n02504013_6904.png
subject-04,1,874,0.666922092437744,bicycle,bicycle,inf,0874_hp_s04_inf_bicycle_10_n02835271_8512.png
subject-04,1,875,1.14659118652344,cat,bottle,0.7,0875_hp_s04_0.7_bottle_10_n03983396_4990.png
subject-04,1,876,0.912321090698242,dog,dog,1.5,0876_hp_s04_1.5_dog_10_n02100236_1502.png
subject-04,1,877,1.06833910942078,keyboard,chair,0.55,0877_hp_s04_0.55_chair_10_n04429376_8710.png
subject-04,1,878,0.946007966995239,truck,bird,0.45,0878_hp_s04_0.45_bird_10_n01530575_14402.png
subject-04,1,879,1.15031814575195,cat,oven,0.55,0879_hp_s04_0.55_oven_10_n04111531_190.png
subject-04,1,880,1.03174495697021,airplane,airplane,0.7,0880_hp_s04_0.7_airplane_10_n02690373_6739.png
subject-04,1,881,1.05315709114075,truck,truck,1,0881_hp_s04_1_truck_10_n03417042_19481.png
subject-04,1,882,0.599191904067993,boat,boat,3,0882_hp_s04_3_boat_10_n03344393_1987.png
subject-04,1,883,1.11863303184509,boat,airplane,0.4,0883_hp_s04_0.4_airplane_10_n02690373_7055.png
subject-04,1,884,0.89660906791687,bird,bird,1,0884_hp_s04_1_bird_10_n02025239_1443.png
subject-04,1,885,1.21642708778381,car,elephant,0.55,0885_hp_s04_0.55_elephant_10_n02504013_933.png
subject-04,1,886,0.658179998397827,boat,boat,inf,0886_hp_s04_inf_boat_10_n02951358_31813.png
subject-04,1,887,1.07622504234314,boat,elephant,0.4,0887_hp_s04_0.4_elephant_10_n02504013_1846.png
subject-04,1,888,1.37018084526062,truck,truck,0.55,0888_hp_s04_0.55_truck_10_n04467665_13645.png
subject-04,1,889,0.743691921234131,chair,chair,1.5,0889_hp_s04_1.5_chair_10_n03376595_2646.png
subject-04,1,890,1.07757091522217,oven,chair,inf,0890_hp_s04_inf_chair_10_n02791124_3240.png
subject-04,1,891,0.621386051177979,boat,boat,3,0891_hp_s04_3_boat_10_n03662601_3938.png
subject-04,1,892,1.13740801811218,bear,elephant,1,0892_hp_s04_1_elephant_10_n02504013_3169.png
subject-04,1,893,0.643102884292603,oven,oven,1.5,0893_hp_s04_1.5_oven_10_n04111531_1830.png
subject-04,1,894,1.24262094497681,clock,oven,0.45,0894_hp_s04_0.45_oven_10_n04111531_14435.png
subject-04,1,895,1.07662892341614,bottle,bottle,inf,0895_hp_s04_inf_bottle_10_n02823428_4245.png
subject-04,1,896,0.864697933197021,car,car,0.7,0896_hp_s04_0.7_car_10_n04285008_9893.png
subject-04,1,897,0.824136972427368,keyboard,keyboard,3,0897_hp_s04_3_keyboard_10_n03085013_18741.png
subject-04,1,898,1.23392105102539,clock,oven,3,0898_hp_s04_3_oven_10_n04111531_2066.png
subject-04,1,899,0.951887130737305,dog,dog,inf,0899_hp_s04_inf_dog_10_n02097047_2877.png
subject-04,1,900,1.14953017234802,car,cat,0.45,0900_hp_s04_0.45_cat_10_n02125311_20316.png
subject-04,1,901,1.50013780593872,bird,cat,0.55,0901_hp_s04_0.55_cat_10_n02123045_7342.png
subject-04,1,902,0.853135824203491,airplane,airplane,1,0902_hp_s04_1_airplane_10_n02690373_20350.png
subject-04,1,903,0.821058988571167,bird,bird,inf,0903_hp_s04_inf_bird_10_n01855672_6132.png
subject-04,1,904,0.730833053588867,airplane,airplane,3,0904_hp_s04_3_airplane_10_n02690373_4465.png
subject-04,1,905,0.994724988937378,bird,bird,inf,0905_hp_s04_inf_bird_10_n01795545_9555.png
subject-04,1,906,0.708503007888794,cat,cat,inf,0906_hp_s04_inf_cat_10_n02124075_8754.png
subject-04,1,907,0.890384912490845,boat,airplane,0.45,0907_hp_s04_0.45_airplane_10_n02690373_1547.png
subject-04,1,908,1.16606402397156,car,bottle,0.45,0908_hp_s04_0.45_bottle_10_n04557648_413.png
subject-04,1,909,0.958142042160034,dog,dog,1.5,0909_hp_s04_1.5_dog_10_n02099601_2805.png
subject-04,1,910,1.08379602432251,boat,dog,0.4,0910_hp_s04_0.4_dog_10_n02107142_27162.png
subject-04,1,911,1.10549902915955,elephant,elephant,0.7,0911_hp_s04_0.7_elephant_10_n02504013_6.png
subject-04,1,912,0.789414882659912,car,car,1,0912_hp_s04_1_car_10_n04285008_9452.png
subject-04,1,913,1.255450963974,bird,boat,0.45,0913_hp_s04_0.45_boat_10_n03662601_14982.png
subject-04,1,914,0.971076011657715,boat,boat,0.7,0914_hp_s04_0.7_boat_10_n03344393_7179.png
subject-04,1,915,1.25910782814026,bicycle,bottle,0.45,0915_hp_s04_0.45_bottle_10_n04591713_807.png
subject-04,1,916,0.894623041152954,truck,truck,3,0916_hp_s04_3_truck_10_n03417042_212.png
subject-04,1,917,0.804772138595581,clock,clock,0.7,0917_hp_s04_0.7_clock_10_n04548280_8646.png
subject-04,1,918,0.644376993179321,boat,boat,1,0918_hp_s04_1_boat_10_n03344393_5177.png
subject-04,1,919,0.97404408454895,car,airplane,0.55,0919_hp_s04_0.55_airplane_10_n02690373_7401.png
subject-04,1,920,0.816215991973877,bicycle,bicycle,1,0920_hp_s04_1_bicycle_10_n02835271_719.png
subject-04,1,921,0.911657094955444,keyboard,keyboard,1,0921_hp_s04_1_keyboard_10_n03085013_22928.png
subject-04,1,922,0.869745016098022,car,car,0.55,0922_hp_s04_0.55_car_10_n02814533_4726.png
subject-04,1,923,1.16124200820923,chair,knife,1,0923_hp_s04_1_knife_10_n03041632_14442.png
subject-04,1,924,1.24521017074585,car,knife,0.55,0924_hp_s04_0.55_knife_10_n03041632_86554.png
subject-04,1,925,1.24098491668701,truck,knife,0.55,0925_hp_s04_0.55_knife_10_n03041632_17338.png
subject-04,1,926,1.19274115562439,boat,bear,0.4,0926_hp_s04_0.4_bear_10_n02133161_10325.png
subject-04,1,927,1.24867796897888,bottle,bottle,3,0927_hp_s04_3_bottle_10_n04591713_4380.png
subject-04,1,928,0.612777948379517,clock,clock,3,0928_hp_s04_3_clock_10_n03196217_5877.png
subject-04,1,929,1.32452416419983,truck,chair,0.7,0929_hp_s04_0.7_chair_10_n02791124_5759.png
subject-04,1,930,0.822006940841675,bottle,bottle,inf,0930_hp_s04_inf_bottle_10_n04560804_5979.png
subject-04,1,931,1.1139988899231,boat,elephant,0.55,0931_hp_s04_0.55_elephant_10_n02504013_1740.png
subject-04,1,932,0.951974153518677,dog,dog,3,0932_hp_s04_3_dog_10_n02093428_17625.png
subject-04,1,933,1.06362199783325,truck,dog,0.4,0933_hp_s04_0.4_dog_10_n02090721_5305.png
subject-04,1,934,0.937318801879883,keyboard,keyboard,0.55,0934_hp_s04_0.55_keyboard_10_n04505470_1043.png
subject-04,1,935,0.945401906967163,chair,chair,1.5,0935_hp_s04_1.5_chair_10_n02791124_3484.png
subject-04,1,936,1.18293690681458,truck,elephant,0.4,0936_hp_s04_0.4_elephant_10_n02504458_63.png
subject-04,1,937,1.21069383621216,dog,knife,0.45,0937_hp_s04_0.45_knife_10_n03041632_4443.png
subject-04,1,938,1.09838008880615,boat,oven,1.5,0938_hp_s04_1.5_oven_10_n04111531_8344.png
subject-04,1,939,0.920303106307983,elephant,elephant,inf,0939_hp_s04_inf_elephant_10_n02504013_4523.png
subject-04,1,940,0.920197010040283,airplane,airplane,inf,0940_hp_s04_inf_airplane_10_n02690373_9673.png
subject-04,1,941,1.23389410972595,car,car,0.4,0941_hp_s04_0.4_car_10_n02814533_87793.png
subject-04,1,942,0.911658048629761,keyboard,keyboard,1,0942_hp_s04_1_keyboard_10_n03085013_20483.png
subject-04,1,943,1.28746104240417,dog,elephant,0.45,0943_hp_s04_0.45_elephant_10_n02504013_2545.png
subject-04,1,944,1.18967914581299,bird,cat,0.7,0944_hp_s04_0.7_cat_10_n02123597_3634.png
subject-04,1,945,0.793104887008667,airplane,airplane,1.5,0945_hp_s04_1.5_airplane_10_n02690373_6455.png
subject-04,1,946,0.993206977844238,car,bicycle,0.45,0946_hp_s04_0.45_bicycle_10_n03792782_6133.png
subject-04,1,947,0.952813863754272,dog,dog,inf,0947_hp_s04_inf_dog_10_n02099601_5760.png
subject-04,1,948,0.688854932785034,clock,clock,0.7,0948_hp_s04_0.7_clock_10_n03196217_219.png
subject-04,1,949,0.838440895080566,elephant,elephant,inf,0949_hp_s04_inf_elephant_10_n02504458_3068.png
subject-04,1,950,1.05024909973145,car,keyboard,0.45,0950_hp_s04_0.45_keyboard_10_n04505470_4105.png
subject-04,1,951,1.03642201423645,truck,cat,0.7,0951_hp_s04_0.7_cat_10_n02123597_22264.png
subject-04,1,952,1.40611386299133,truck,truck,0.7,0952_hp_s04_0.7_truck_10_n03796401_1082.png
subject-04,1,953,0.815825939178467,boat,elephant,0.45,0953_hp_s04_0.45_elephant_10_n02504458_4448.png
subject-04,1,954,1.2832989692688,truck,truck,0.55,0954_hp_s04_0.55_truck_10_n03796401_21954.png
subject-04,1,955,0.871170997619629,bird,bird,3,0955_hp_s04_3_bird_10_n01820546_228.png
subject-04,1,956,0.929161071777344,chair,chair,inf,0956_hp_s04_inf_chair_10_n02791124_6999.png
subject-04,1,957,0.952868938446045,bird,bird,1.5,0957_hp_s04_1.5_bird_10_n02013706_848.png
subject-04,1,958,0.968793869018555,truck,bicycle,0.4,0958_hp_s04_0.4_bicycle_10_n03792782_19709.png
subject-04,1,959,1.10062789916992,dog,dog,inf,0959_hp_s04_inf_dog_10_n02108915_11897.png
subject-04,1,960,0.792403936386108,car,car,1.5,0960_hp_s04_1.5_car_10_n03100240_6192.png
subject-04,1,961,1.25909113883972,boat,chair,0.4,0961_hp_s04_0.4_chair_10_n03376595_17747.png
subject-04,1,962,0.840786933898926,bear,bear,1,0962_hp_s04_1_bear_10_n02134418_4515.png
subject-04,1,963,1.20071911811829,cat,bottle,0.4,0963_hp_s04_0.4_bottle_10_n04557648_2093.png
subject-04,1,964,0.830767869949341,bear,bear,0.7,0964_hp_s04_0.7_bear_10_n02132136_10944.png
subject-04,1,965,0.798599004745483,car,car,1.5,0965_hp_s04_1.5_car_10_n02814533_31493.png
subject-04,1,966,1.04028296470642,boat,cat,0.7,0966_hp_s04_0.7_cat_10_n02123597_3822.png
subject-04,1,967,0.847872972488403,bottle,bottle,3,0967_hp_s04_3_bottle_10_n02823428_5115.png
subject-04,1,968,1.06775808334351,car,dog,0.45,0968_hp_s04_0.45_dog_10_n02111129_6881.png
subject-04,1,969,1.17755794525146,bear,cat,1,0969_hp_s04_1_cat_10_n02123159_3454.png
subject-04,1,970,0.855647802352905,airplane,airplane,inf,0970_hp_s04_inf_airplane_10_n02690373_734.png
subject-04,1,971,0.813114881515503,bicycle,bicycle,1.5,0971_hp_s04_1.5_bicycle_10_n02835271_6953.png
subject-04,1,972,0.629340171813965,cat,cat,1,0972_hp_s04_1_cat_10_n02123159_2107.png
subject-04,1,973,0.788774013519287,elephant,elephant,1.5,0973_hp_s04_1.5_elephant_10_n02504013_4560.png
subject-04,1,974,0.992593050003052,oven,clock,0.45,0974_hp_s04_0.45_clock_10_n04548280_3782.png
subject-04,1,975,1.01450490951538,truck,cat,0.4,0975_hp_s04_0.4_cat_10_n02124075_16814.png
subject-04,1,976,0.984260082244873,knife,knife,1,0976_hp_s04_1_knife_10_n03041632_39836.png
subject-04,1,977,1.32199215888977,chair,clock,3,0977_hp_s04_3_clock_10_n04548280_8083.png
subject-04,1,978,1.17380309104919,car,car,inf,0978_hp_s04_inf_car_10_n03100240_2477.png
subject-04,1,979,1.26203513145447,elephant,elephant,inf,0979_hp_s04_inf_elephant_10_n02504458_1271.png
subject-04,1,980,0.869581937789917,car,car,3,0980_hp_s04_3_car_10_n04285008_12767.png
subject-04,1,981,1.00520896911621,bird,dog,0.55,0981_hp_s04_0.55_dog_10_n02091831_3628.png
subject-04,1,982,0.86292290687561,oven,oven,3,0982_hp_s04_3_oven_10_n04111531_7298.png
subject-04,1,983,0.911018133163452,bird,bird,1.5,0983_hp_s04_1.5_bird_10_n01537544_1126.png
subject-04,1,984,1.14705085754395,boat,clock,0.7,0984_hp_s04_0.7_clock_10_n02708093_3301.png
subject-04,1,985,0.624543905258179,clock,clock,1.5,0985_hp_s04_1.5_clock_10_n03196217_8943.png
subject-04,1,986,0.596326112747192,clock,clock,inf,0986_hp_s04_inf_clock_10_n03196217_4844.png
subject-04,1,987,1.17617297172546,truck,truck,0.55,0987_hp_s04_0.55_truck_10_n03417042_7310.png
subject-04,1,988,0.855843782424927,chair,chair,3,0988_hp_s04_3_chair_10_n04099969_1229.png
subject-04,1,989,1.02383303642273,bird,dog,1,0989_hp_s04_1_dog_10_n02088364_13814.png
subject-04,1,990,0.901587963104248,clock,chair,0.4,0990_hp_s04_0.4_chair_10_n03376595_6673.png
subject-04,1,991,1.11350107192993,bicycle,bird,0.7,0991_hp_s04_0.7_bird_10_n02009229_6029.png
subject-04,1,992,1.30919599533081,bicycle,bottle,0.55,0992_hp_s04_0.55_bottle_10_n04560804_13142.png
subject-04,1,993,1.10694003105164,bird,oven,1,0993_hp_s04_1_oven_10_n04111531_5781.png
subject-04,1,994,1.17681312561035,knife,knife,1.5,0994_hp_s04_1.5_knife_10_n03041632_50332.png
subject-04,1,995,1.22259616851807,car,bear,0.45,0995_hp_s04_0.45_bear_10_n02134084_22801.png
subject-04,1,996,1.41083002090454,car,knife,0.7,0996_hp_s04_0.7_knife_10_n03041632_4044.png
subject-04,1,997,1.02621817588806,car,bird,0.4,0997_hp_s04_0.4_bird_10_n01829413_5849.png
subject-04,1,998,1.2180769443512,truck,oven,0.45,0998_hp_s04_0.45_oven_10_n04111531_9314.png
subject-04,1,999,0.661946058273315,oven,oven,1.5,0999_hp_s04_1.5_oven_10_n04111531_20407.png
subject-04,1,1000,1.11790800094604,knife,knife,3,1000_hp_s04_3_knife_10_n03041632_31363.png
subject-04,1,1001,1.46339917182922,truck,bear,0.55,1001_hp_s04_0.55_bear_10_n02133161_489.png
subject-04,1,1002,0.955372095108032,boat,oven,0.7,1002_hp_s04_0.7_oven_10_n04111531_537.png
subject-04,1,1003,1.11943912506104,car,bird,0.55,1003_hp_s04_0.55_bird_10_n01824575_8564.png
subject-04,1,1004,0.643228054046631,oven,oven,1.5,1004_hp_s04_1.5_oven_10_n04111531_1752.png
subject-04,1,1005,1.3028199672699,truck,truck,0.55,1005_hp_s04_0.55_truck_10_n04467665_22585.png
subject-04,1,1006,1.14487814903259,boat,bottle,0.4,1006_hp_s04_0.4_bottle_10_n04557648_11977.png
subject-04,1,1007,0.842381000518799,car,car,0.7,1007_hp_s04_0.7_car_10_n03100240_7703.png
subject-04,1,1008,0.858118057250977,chair,car,0.45,1008_hp_s04_0.45_car_10_n02814533_70922.png
subject-04,1,1009,1.18234205245972,truck,truck,inf,1009_hp_s04_inf_truck_10_n03796401_7699.png
subject-04,1,1010,1.47990107536316,chair,boat,0.45,1010_hp_s04_0.45_boat_10_n03344393_10295.png
subject-04,1,1011,0.961552858352661,airplane,airplane,1.5,1011_hp_s04_1.5_airplane_10_n02690373_5015.png
subject-04,1,1012,1.13340091705322,oven,cat,0.7,1012_hp_s04_0.7_cat_10_n02123045_11126.png
subject-04,1,1013,0.85349702835083,bottle,bottle,1,1013_hp_s04_1_bottle_10_n04591713_17676.png
subject-04,1,1014,0.894887924194336,car,airplane,0.4,1014_hp_s04_0.4_airplane_10_n02690373_4788.png
subject-04,1,1015,1.02502202987671,boat,boat,1.5,1015_hp_s04_1.5_boat_10_n04273569_1233.png
subject-04,1,1016,1.22869896888733,knife,oven,0.7,1016_hp_s04_0.7_oven_10_n04111531_686.png
subject-04,1,1017,1.19860601425171,clock,bottle,0.45,1017_hp_s04_0.45_bottle_10_n03937543_2327.png
subject-04,1,1018,1.05025911331177,boat,truck,0.45,1018_hp_s04_0.45_truck_10_n03417042_2603.png
subject-04,1,1019,1.26244592666626,car,keyboard,0.4,1019_hp_s04_0.4_keyboard_10_n03085013_19407.png
subject-04,1,1020,1.46399283409119,car,airplane,0.4,1020_hp_s04_0.4_airplane_10_n02690373_7300.png
subject-04,1,1021,0.70580005645752,boat,boat,inf,1021_hp_s04_inf_boat_10_n03662601_5968.png
subject-04,1,1022,0.971762895584106,bird,bird,inf,1022_hp_s04_inf_bird_10_n01798484_518.png
subject-04,1,1023,0.589380979537964,cat,cat,inf,1023_hp_s04_inf_cat_10_n02123045_8543.png
subject-04,1,1024,0.991313934326172,bottle,bottle,1,1024_hp_s04_1_bottle_10_n04560804_1813.png
subject-04,1,1025,1.03901195526123,truck,chair,0.45,1025_hp_s04_0.45_chair_10_n04099969_1219.png
subject-04,1,1026,0.584768056869507,boat,boat,3,1026_hp_s04_3_boat_10_n03662601_1834.png
subject-04,1,1027,1.30476188659668,bird,chair,0.55,1027_hp_s04_0.55_chair_10_n04099969_4725.png
subject-04,1,1028,1.09239792823792,boat,bicycle,0.4,1028_hp_s04_0.4_bicycle_10_n02835271_12599.png
subject-04,1,1029,0.884239912033081,truck,truck,3,1029_hp_s04_3_truck_10_n03796401_7487.png
subject-04,1,1030,0.87011194229126,cat,dog,3,1030_hp_s04_3_dog_10_n02098286_4467.png
subject-04,1,1031,0.93824291229248,keyboard,keyboard,0.7,1031_hp_s04_0.7_keyboard_10_n04505470_4966.png
subject-04,1,1032,0.96966290473938,bottle,bottle,inf,1032_hp_s04_inf_bottle_10_n04591713_941.png
subject-04,1,1033,0.941425085067749,oven,oven,inf,1033_hp_s04_inf_oven_10_n04111531_6454.png
subject-04,1,1034,1.23526906967163,bear,dog,1,1034_hp_s04_1_dog_10_n02097658_3693.png
subject-04,1,1035,0.881453990936279,car,airplane,0.4,1035_hp_s04_0.4_airplane_10_n02690373_6978.png
subject-04,1,1036,1.28083395957947,truck,chair,0.7,1036_hp_s04_0.7_chair_10_n03376595_10507.png
subject-04,1,1037,1.35113286972046,keyboard,oven,0.45,1037_hp_s04_0.45_oven_10_n04111531_9498.png
subject-04,1,1038,1.21296501159668,truck,truck,1,1038_hp_s04_1_truck_10_n04467665_5053.png
subject-04,1,1039,0.634557962417603,cat,cat,3,1039_hp_s04_3_cat_10_n02124075_14326.png
subject-04,1,1040,1.27621006965637,cat,bicycle,0.45,1040_hp_s04_0.45_bicycle_10_n03792782_44296.png
subject-04,1,1041,1.10595297813416,truck,elephant,0.4,1041_hp_s04_0.4_elephant_10_n02504458_3163.png
subject-04,1,1042,0.655661821365356,clock,cat,0.45,1042_hp_s04_0.45_cat_10_n02124075_1460.png
subject-04,1,1043,1.38348007202148,boat,truck,0.4,1043_hp_s04_0.4_truck_10_n03796401_4423.png
subject-04,1,1044,0.891181945800781,clock,chair,1,1044_hp_s04_1_chair_10_n04429376_2349.png
subject-04,1,1045,1.24334216117859,keyboard,keyboard,1,1045_hp_s04_1_keyboard_10_n04505470_7421.png
subject-04,1,1046,0.859080076217651,bottle,bottle,1.5,1046_hp_s04_1.5_bottle_10_n04560804_13232.png
subject-04,1,1047,1.00084400177002,truck,truck,inf,1047_hp_s04_inf_truck_10_n03417042_6419.png
subject-04,1,1048,0.780608892440796,airplane,airplane,1.5,1048_hp_s04_1.5_airplane_10_n02690373_8846.png
subject-04,1,1049,0.916431188583374,bird,bicycle,3,1049_hp_s04_3_bicycle_10_n03792782_19985.png
subject-04,1,1050,1.34641695022583,bicycle,keyboard,0.4,1050_hp_s04_0.4_keyboard_10_n03085013_2362.png
subject-04,1,1051,1.19428896903992,boat,truck,0.45,1051_hp_s04_0.45_truck_10_n04467665_64540.png
subject-04,1,1052,1.09184503555298,truck,truck,0.4,1052_hp_s04_0.4_truck_10_n03796401_3651.png
subject-04,1,1053,1.25974202156067,truck,chair,0.4,1053_hp_s04_0.4_chair_10_n03376595_4121.png
subject-04,1,1054,1.08755803108215,keyboard,clock,1.5,1054_hp_s04_1.5_clock_10_n03196217_10717.png
subject-04,1,1055,1.25322413444519,bicycle,chair,0.45,1055_hp_s04_0.45_chair_10_n02791124_5684.png
subject-04,1,1056,0.855039834976196,keyboard,keyboard,inf,1056_hp_s04_inf_keyboard_10_n03085013_21282.png
subject-04,1,1057,0.914979934692383,truck,truck,0.45,1057_hp_s04_0.45_truck_10_n03417042_4188.png
subject-04,1,1058,1.40897417068481,bicycle,oven,inf,1058_hp_s04_inf_oven_10_n04111531_8959.png
subject-04,1,1059,1.46651315689087,bear,dog,0.4,1059_hp_s04_0.4_dog_10_n02106662_37555.png
subject-04,1,1060,0.992688179016113,oven,oven,inf,1060_hp_s04_inf_oven_10_n04111531_16251.png
subject-04,1,1061,1.00016498565674,truck,bicycle,0.55,1061_hp_s04_0.55_bicycle_10_n02835271_14732.png
subject-04,1,1062,1.12607502937317,oven,truck,1,1062_hp_s04_1_truck_10_n03417042_3398.png
subject-04,1,1063,0.861932039260864,bicycle,bicycle,1,1063_hp_s04_1_bicycle_10_n02835271_6906.png
