subj,Session,trial,rt,object_response,category,condition,imagename
subject-02,1,1,1.12876987457275,bottle,bottle,cr,0001_cl_s02_cr_bottle_40_n03983396_2053.png
subject-02,1,2,1.07644009590149,cat,clock,bw,0002_cl_s02_bw_clock_40_n04548280_7384.png
subject-02,1,3,0.580382108688354,airplane,airplane,cr,0003_cl_s02_cr_airplane_40_n02690373_1732.png
subject-02,1,4,0.682165861129761,elephant,elephant,cr,0004_cl_s02_cr_elephant_40_n02504013_3485.png
subject-02,1,5,0.763950109481812,boat,boat,bw,0005_cl_s02_bw_boat_40_n04273569_517.png
subject-02,1,6,0.690128087997437,car,car,bw,0006_cl_s02_bw_car_40_n02814533_51154.png
subject-02,1,7,0.785551071166992,truck,truck,bw,0007_cl_s02_bw_truck_40_n03417042_2794.png
subject-02,1,8,0.679475069046021,elephant,elephant,bw,0008_cl_s02_bw_elephant_40_n02504458_7133.png
subject-02,1,9,0.651214122772217,boat,boat,cr,0009_cl_s02_cr_boat_40_n03662601_8216.png
subject-02,1,10,0.986922979354858,bottle,knife,cr,0010_cl_s02_cr_knife_40_n03041632_94620.png
subject-02,1,11,0.886938095092773,elephant,elephant,bw,0011_cl_s02_bw_elephant_40_n02504013_1560.png
subject-02,1,12,0.970747947692871,chair,chair,bw,0012_cl_s02_bw_chair_40_n03376595_2924.png
subject-02,1,13,0.566282987594604,bear,bear,cr,0013_cl_s02_cr_bear_40_n02134418_3846.png
subject-02,1,14,0.928205966949463,chair,chair,bw,0014_cl_s02_bw_chair_40_n03376595_10266.png
subject-02,1,15,0.564054012298584,boat,boat,bw,0015_cl_s02_bw_boat_40_n04273569_12917.png
subject-02,1,16,0.667882919311523,boat,boat,bw,0016_cl_s02_bw_boat_40_n02951358_5952.png
subject-02,1,17,0.609638929367065,elephant,elephant,bw,0017_cl_s02_bw_elephant_40_n02504013_22388.png
subject-02,1,18,0.82570481300354,oven,oven,cr,0018_cl_s02_cr_oven_40_n04111531_2342.png
subject-02,1,19,0.775241136550903,keyboard,keyboard,bw,0019_cl_s02_bw_keyboard_40_n03085013_6561.png
subject-02,1,20,0.47902512550354,boat,boat,cr,0020_cl_s02_cr_boat_40_n02951358_30622.png
subject-02,1,21,0.912889003753662,clock,clock,bw,0021_cl_s02_bw_clock_40_n03196217_5888.png
subject-02,1,22,0.644771099090576,truck,truck,cr,0022_cl_s02_cr_truck_40_n03417042_7005.png
subject-02,1,23,0.621150016784668,clock,clock,bw,0023_cl_s02_bw_clock_40_n04548280_17198.png
subject-02,1,24,0.680738925933838,keyboard,keyboard,bw,0024_cl_s02_bw_keyboard_40_n04505470_361.png
subject-02,1,25,0.766654014587402,airplane,airplane,bw,0025_cl_s02_bw_airplane_40_n02690373_7748.png
subject-02,1,26,0.618085145950317,car,car,bw,0026_cl_s02_bw_car_40_n02814533_93487.png
subject-02,1,27,0.699754953384399,elephant,dog,bw,0027_cl_s02_bw_dog_40_n02093256_3792.png
subject-02,1,28,0.699753999710083,bird,bird,bw,0028_cl_s02_bw_bird_40_n01843383_5962.png
subject-02,1,29,0.825814962387085,bear,bear,cr,0029_cl_s02_cr_bear_40_n02133161_6946.png
subject-02,1,30,1.02158498764038,airplane,airplane,cr,0030_cl_s02_cr_airplane_40_n02690373_2075.png
subject-02,1,31,0.592957019805908,bottle,bottle,cr,0031_cl_s02_cr_bottle_40_n04560804_1703.png
subject-02,1,32,0.742815017700195,bottle,bottle,bw,0032_cl_s02_bw_bottle_40_n03983396_16300.png
subject-02,1,33,0.674723148345947,keyboard,keyboard,bw,0033_cl_s02_bw_keyboard_40_n04505470_3666.png
subject-02,1,34,0.79666805267334,knife,knife,cr,0034_cl_s02_cr_knife_40_n03041632_11475.png
subject-02,1,35,0.706260919570923,cat,cat,cr,0035_cl_s02_cr_cat_40_n02125311_4261.png
subject-02,1,36,0.794286966323853,knife,knife,cr,0036_cl_s02_cr_knife_40_n03041632_51256.png
subject-02,1,37,0.665918111801147,clock,clock,bw,0037_cl_s02_bw_clock_40_n02708093_3079.png
subject-02,1,38,1.265780210495,keyboard,keyboard,cr,0038_cl_s02_cr_keyboard_40_n04505470_4356.png
subject-02,1,39,0.919620037078857,bicycle,bicycle,bw,0039_cl_s02_bw_bicycle_40_n02835271_5602.png
subject-02,1,40,0.837382793426514,chair,chair,bw,0040_cl_s02_bw_chair_40_n04429376_15334.png
subject-02,1,41,0.479510068893433,boat,boat,cr,0041_cl_s02_cr_boat_40_n04273569_13641.png
subject-02,1,42,0.792934894561768,truck,truck,bw,0042_cl_s02_bw_truck_40_n04467665_9459.png
subject-02,1,43,0.574784994125366,keyboard,keyboard,bw,0043_cl_s02_bw_keyboard_40_n04505470_5060.png
subject-02,1,44,0.682523012161255,boat,boat,bw,0044_cl_s02_bw_boat_40_n02951358_863.png
subject-02,1,45,0.554410934448242,boat,boat,cr,0045_cl_s02_cr_boat_40_n04273569_15892.png
subject-02,1,46,0.670228958129883,oven,oven,bw,0046_cl_s02_bw_oven_40_n04111531_13006.png
subject-02,1,47,0.888046979904175,car,car,cr,0047_cl_s02_cr_car_40_n04285008_3453.png
subject-02,1,48,0.903836011886597,dog,dog,bw,0048_cl_s02_bw_dog_40_n02111129_797.png
subject-02,1,49,0.696227073669434,clock,clock,cr,0049_cl_s02_cr_clock_40_n03196217_3267.png
subject-02,1,50,0.861385107040405,bicycle,bicycle,cr,0050_cl_s02_cr_bicycle_40_n02835271_24104.png
subject-02,1,51,0.80341100692749,dog,dog,bw,0051_cl_s02_bw_dog_40_n02088466_3052.png
subject-02,1,52,0.887040853500366,truck,chair,bw,0052_cl_s02_bw_chair_40_n02791124_2491.png
subject-02,1,53,0.489345073699951,elephant,elephant,cr,0053_cl_s02_cr_elephant_40_n02504013_5035.png
subject-02,1,54,0.815145015716553,bear,bear,bw,0054_cl_s02_bw_bear_40_n02134084_21413.png
subject-02,1,55,0.827000141143799,truck,truck,bw,0055_cl_s02_bw_truck_40_n03796401_27288.png
subject-02,1,56,1.38036394119263,oven,clock,bw,0056_cl_s02_bw_clock_40_n03196217_4004.png
subject-02,1,57,0.798173904418945,bicycle,bicycle,cr,0057_cl_s02_cr_bicycle_40_n02835271_4434.png
subject-02,1,58,0.628126859664917,oven,oven,bw,0058_cl_s02_bw_oven_40_n04111531_12468.png
subject-02,1,59,0.593730926513672,bird,bird,cr,0059_cl_s02_cr_bird_40_n02025239_6030.png
subject-02,1,60,1.48966383934021,car,truck,bw,0060_cl_s02_bw_truck_40_n04467665_53635.png
subject-02,1,61,0.627465009689331,bottle,bottle,bw,0061_cl_s02_bw_bottle_40_n02823428_3049.png
subject-02,1,62,0.703039169311523,airplane,airplane,bw,0062_cl_s02_bw_airplane_40_n02690373_6836.png
subject-02,1,63,1.04341602325439,bicycle,knife,cr,0063_cl_s02_cr_knife_40_n03041632_28201.png
subject-02,1,64,0.716856956481934,clock,clock,cr,0064_cl_s02_cr_clock_40_n02708093_7076.png
subject-02,1,65,0.834652185440063,bicycle,bicycle,cr,0065_cl_s02_cr_bicycle_40_n02835271_8511.png
subject-02,1,66,0.632537126541138,boat,boat,cr,0066_cl_s02_cr_boat_40_n03662601_26298.png
subject-02,1,67,1.00617504119873,airplane,airplane,bw,0067_cl_s02_bw_airplane_40_n02690373_7107.png
subject-02,1,68,0.660104990005493,oven,oven,bw,0068_cl_s02_bw_oven_40_n04111531_4012.png
subject-02,1,69,0.647974014282227,clock,clock,bw,0069_cl_s02_bw_clock_40_n02708093_3745.png
subject-02,1,70,1.39762711524963,bird,bird,cr,0070_cl_s02_cr_bird_40_n01819313_6430.png
subject-02,1,71,1.14139986038208,keyboard,keyboard,cr,0071_cl_s02_cr_keyboard_40_n04505470_2787.png
subject-02,1,72,0.649778127670288,bicycle,bicycle,bw,0072_cl_s02_bw_bicycle_40_n03792782_818.png
subject-02,1,73,0.603532075881958,chair,chair,bw,0073_cl_s02_bw_chair_40_n04099969_24495.png
subject-02,1,74,0.688867092132568,knife,knife,bw,0074_cl_s02_bw_knife_40_n03041632_33739.png
subject-02,1,75,0.85273003578186,dog,bear,cr,0075_cl_s02_cr_bear_40_n02134418_685.png
subject-02,1,76,1.01276397705078,bear,bear,cr,0076_cl_s02_cr_bear_40_n02134418_1482.png
subject-02,1,77,0.590619802474976,cat,cat,cr,0077_cl_s02_cr_cat_40_n02123394_2395.png
subject-02,1,78,0.658284902572632,bottle,bottle,cr,0078_cl_s02_cr_bottle_40_n03983396_3702.png
subject-02,1,79,0.790224075317383,truck,truck,bw,0079_cl_s02_bw_truck_40_n03417042_27907.png
subject-02,1,80,0.689796924591064,bottle,bottle,cr,0080_cl_s02_cr_bottle_40_n03983396_3899.png
subject-02,1,81,0.84327507019043,bicycle,bicycle,bw,0081_cl_s02_bw_bicycle_40_n03792782_9412.png
subject-02,1,82,0.793078899383545,bicycle,bicycle,bw,0082_cl_s02_bw_bicycle_40_n03792782_24591.png
subject-02,1,83,0.679260015487671,dog,cat,cr,0083_cl_s02_cr_cat_40_n02123597_9656.png
subject-02,1,84,0.984783887863159,keyboard,keyboard,bw,0084_cl_s02_bw_keyboard_40_n04505470_4965.png
subject-02,1,85,0.646533012390137,car,car,bw,0085_cl_s02_bw_car_40_n04285008_11410.png
subject-02,1,86,0.880283117294312,boat,boat,bw,0086_cl_s02_bw_boat_40_n03344393_7659.png
subject-02,1,87,0.536042928695679,oven,oven,bw,0087_cl_s02_bw_oven_40_n04111531_12103.png
subject-02,1,88,0.694301843643188,car,car,cr,0088_cl_s02_cr_car_40_n02814533_6297.png
subject-02,1,89,1.22994017601013,bird,bird,bw,0089_cl_s02_bw_bird_40_n01534433_8318.png
subject-02,1,90,0.625764846801758,boat,boat,bw,0090_cl_s02_bw_boat_40_n03344393_3443.png
subject-02,1,91,0.627472877502441,keyboard,keyboard,cr,0091_cl_s02_cr_keyboard_40_n03085013_19483.png
subject-02,1,92,1.33754801750183,cat,bird,cr,0092_cl_s02_cr_bird_40_n01797886_6946.png
subject-02,1,93,1.12492918968201,truck,truck,bw,0093_cl_s02_bw_truck_40_n03417042_27093.png
subject-02,1,94,0.726994037628174,airplane,airplane,cr,0094_cl_s02_cr_airplane_40_n02690373_16250.png
subject-02,1,95,0.910640001296997,airplane,airplane,bw,0095_cl_s02_bw_airplane_40_n02690373_693.png
subject-02,1,96,0.754475831985474,bicycle,bicycle,bw,0096_cl_s02_bw_bicycle_40_n03792782_41992.png
subject-02,1,97,0.808645963668823,truck,truck,cr,0097_cl_s02_cr_truck_40_n03417042_8046.png
subject-02,1,98,0.756124019622803,bird,bird,cr,0098_cl_s02_cr_bird_40_n02013706_9024.png
subject-02,1,99,0.898114919662476,car,car,cr,0099_cl_s02_cr_car_40_n02814533_55399.png
subject-02,1,100,0.611804962158203,keyboard,keyboard,cr,0100_cl_s02_cr_keyboard_40_n03085013_18625.png
subject-02,1,101,0.643494129180908,bicycle,bicycle,bw,0101_cl_s02_bw_bicycle_40_n03792782_7003.png
subject-02,1,102,0.7273108959198,airplane,airplane,bw,0102_cl_s02_bw_airplane_40_n02690373_9619.png
subject-02,1,103,0.69721508026123,bicycle,bicycle,bw,0103_cl_s02_bw_bicycle_40_n03792782_2628.png
subject-02,1,104,0.792941093444824,airplane,airplane,bw,0104_cl_s02_bw_airplane_40_n02690373_6524.png
subject-02,1,105,0.896706104278564,chair,chair,bw,0105_cl_s02_bw_chair_40_n04429376_12337.png
subject-02,1,106,1.02865505218506,elephant,elephant,bw,0106_cl_s02_bw_elephant_40_n02504013_237.png
subject-02,1,107,0.634371042251587,keyboard,keyboard,cr,0107_cl_s02_cr_keyboard_40_n04505470_2740.png
subject-02,1,108,0.770285129547119,bottle,chair,cr,0108_cl_s02_cr_chair_40_n04429376_16081.png
subject-02,1,109,0.930103063583374,elephant,dog,bw,0109_cl_s02_bw_dog_40_n02088466_292.png
subject-02,1,110,0.652007102966309,cat,cat,cr,0110_cl_s02_cr_cat_40_n02125311_8567.png
subject-02,1,111,0.711549043655396,knife,knife,cr,0111_cl_s02_cr_knife_40_n03041632_44738.png
subject-02,1,112,0.923614978790283,cat,cat,bw,0112_cl_s02_bw_cat_40_n02123597_9939.png
subject-02,1,113,0.635532140731812,keyboard,keyboard,cr,0113_cl_s02_cr_keyboard_40_n03085013_1797.png
subject-02,1,114,1.50000190734863,chair,knife,cr,0114_cl_s02_cr_knife_40_n03041632_83472.png
subject-02,1,115,0.617456197738647,clock,clock,cr,0115_cl_s02_cr_clock_40_n02708093_6766.png
subject-02,1,116,0.750837802886963,keyboard,keyboard,cr,0116_cl_s02_cr_keyboard_40_n04505470_4385.png
subject-02,1,117,0.62873101234436,clock,clock,cr,0117_cl_s02_cr_clock_40_n03196217_970.png
subject-02,1,118,0.744195938110352,airplane,airplane,cr,0118_cl_s02_cr_airplane_40_n02690373_713.png
subject-02,1,119,1.07007193565369,truck,truck,bw,0119_cl_s02_bw_truck_40_n03417042_265.png
subject-02,1,120,0.845834016799927,bicycle,bicycle,cr,0120_cl_s02_cr_bicycle_40_n03792782_10281.png
subject-02,1,121,0.789693832397461,cat,cat,cr,0121_cl_s02_cr_cat_40_n02125311_13383.png
subject-02,1,122,0.849721908569336,bicycle,bicycle,bw,0122_cl_s02_bw_bicycle_40_n02835271_381.png
subject-02,1,123,0.52128005027771,cat,cat,cr,0123_cl_s02_cr_cat_40_n02123394_238.png
subject-02,1,124,0.701296091079712,dog,dog,cr,0124_cl_s02_cr_dog_40_n02100877_1107.png
subject-02,1,125,0.668888092041016,bicycle,bicycle,cr,0125_cl_s02_cr_bicycle_40_n03792782_32379.png
subject-02,1,126,0.68867301940918,keyboard,keyboard,bw,0126_cl_s02_bw_keyboard_40_n04505470_3065.png
subject-02,1,127,0.606746196746826,cat,cat,cr,0127_cl_s02_cr_cat_40_n02123045_11472.png
subject-02,1,128,0.842499971389771,elephant,elephant,cr,0128_cl_s02_cr_elephant_40_n02504013_6167.png
subject-02,1,129,0.61845588684082,car,car,cr,0129_cl_s02_cr_car_40_n04285008_6131.png
subject-02,1,130,0.478210926055908,oven,oven,cr,0130_cl_s02_cr_oven_40_n04111531_2260.png
subject-02,1,131,0.67197585105896,clock,clock,cr,0131_cl_s02_cr_clock_40_n02708093_3621.png
subject-02,1,132,0.947834014892578,bear,bear,bw,0132_cl_s02_bw_bear_40_n02132136_390.png
subject-02,1,133,0.621485948562622,elephant,elephant,bw,0133_cl_s02_bw_elephant_40_n02504458_12303.png
subject-02,1,134,0.851513147354126,knife,knife,bw,0134_cl_s02_bw_knife_40_n03041632_131.png
subject-02,1,135,0.769256114959717,keyboard,chair,bw,0135_cl_s02_bw_chair_40_n02791124_2813.png
subject-02,1,136,0.546935081481934,car,car,cr,0136_cl_s02_cr_car_40_n04285008_874.png
subject-02,1,137,0.724652051925659,truck,truck,bw,0137_cl_s02_bw_truck_40_n03417042_17099.png
subject-02,1,138,0.68653392791748,oven,oven,cr,0138_cl_s02_cr_oven_40_n04111531_9498.png
subject-02,1,139,0.650799036026001,truck,truck,bw,0139_cl_s02_bw_truck_40_n03417042_2383.png
subject-02,1,140,0.626194953918457,bird,bird,cr,0140_cl_s02_cr_bird_40_n02017213_7558.png
subject-02,1,141,0.75611686706543,bird,bird,cr,0141_cl_s02_cr_bird_40_n01616318_4878.png
subject-02,1,142,0.928003072738647,bird,bird,cr,0142_cl_s02_cr_bird_40_n01601694_24991.png
subject-02,1,143,0.627597093582153,chair,chair,cr,0143_cl_s02_cr_chair_40_n04099969_4205.png
subject-02,1,144,1.24935388565063,bottle,knife,bw,0144_cl_s02_bw_knife_40_n03041632_22734.png
subject-02,1,145,0.807459831237793,truck,truck,cr,0145_cl_s02_cr_truck_40_n04467665_67327.png
subject-02,1,146,0.577278852462769,chair,chair,bw,0146_cl_s02_bw_chair_40_n02791124_3923.png
subject-02,1,147,1.16284513473511,oven,clock,bw,0147_cl_s02_bw_clock_40_n02708093_7841.png
subject-02,1,148,0.792670965194702,boat,boat,bw,0148_cl_s02_bw_boat_40_n04273569_870.png
subject-02,1,149,0.550634145736694,bottle,bottle,cr,0149_cl_s02_cr_bottle_40_n03983396_11519.png
subject-02,1,150,0.658238887786865,cat,cat,bw,0150_cl_s02_bw_cat_40_n02123394_916.png
subject-02,1,151,0.690093994140625,elephant,elephant,cr,0151_cl_s02_cr_elephant_40_n02504013_7001.png
subject-02,1,152,0.907881021499634,elephant,elephant,cr,0152_cl_s02_cr_elephant_40_n02504458_3776.png
subject-02,1,153,0.787622928619385,elephant,elephant,cr,0153_cl_s02_cr_elephant_40_n02504458_2190.png
subject-02,1,154,0.73164701461792,car,car,cr,0154_cl_s02_cr_car_40_n02814533_33205.png
subject-02,1,155,0.813457012176514,bicycle,bicycle,bw,0155_cl_s02_bw_bicycle_40_n03792782_6194.png
subject-02,1,156,0.697684049606323,elephant,elephant,bw,0156_cl_s02_bw_elephant_40_n02504013_720.png
subject-02,1,157,0.581079006195068,boat,boat,cr,0157_cl_s02_cr_boat_40_n03662601_8333.png
subject-02,1,158,0.712960004806519,bird,bird,cr,0158_cl_s02_cr_bird_40_n01833805_4859.png
subject-02,1,159,0.87321400642395,bottle,bottle,bw,0159_cl_s02_bw_bottle_40_n04579145_1829.png
subject-02,1,160,0.654561996459961,cat,cat,bw,0160_cl_s02_bw_cat_40_n02123159_7638.png
subject-02,1,161,0.719955921173096,bottle,bottle,bw,0161_cl_s02_bw_bottle_40_n02823428_4405.png
subject-02,1,162,0.921828031539917,dog,bear,bw,0162_cl_s02_bw_bear_40_n02134084_7841.png
subject-02,1,163,0.628014802932739,clock,clock,bw,0163_cl_s02_bw_clock_40_n03196217_3689.png
subject-02,1,164,0.535336017608643,boat,boat,cr,0164_cl_s02_cr_boat_40_n03662601_14818.png
subject-02,1,165,0.547197103500366,boat,boat,cr,0165_cl_s02_cr_boat_40_n03662601_27165.png
subject-02,1,166,0.740974903106689,bicycle,bicycle,cr,0166_cl_s02_cr_bicycle_40_n03792782_18707.png
subject-02,1,167,0.787024021148682,bicycle,bicycle,bw,0167_cl_s02_bw_bicycle_40_n03792782_551.png
subject-02,1,168,0.846660852432251,chair,chair,cr,0168_cl_s02_cr_chair_40_n02791124_7424.png
subject-02,1,169,0.782518863677979,elephant,elephant,cr,0169_cl_s02_cr_elephant_40_n02504013_811.png
subject-02,1,170,1.01237297058105,bottle,chair,cr,0170_cl_s02_cr_chair_40_n03376595_1798.png
subject-02,1,171,0.888065099716187,bird,bird,bw,0171_cl_s02_bw_bird_40_n01532829_15048.png
subject-02,1,172,0.798128128051758,bird,dog,bw,0172_cl_s02_bw_dog_40_n02099849_4121.png
subject-02,1,173,1.15801596641541,bird,bird,bw,0173_cl_s02_bw_bird_40_n01514859_17156.png
subject-02,1,174,0.749562978744507,knife,knife,cr,0174_cl_s02_cr_knife_40_n03041632_30573.png
subject-02,1,175,0.835407972335815,chair,chair,cr,0175_cl_s02_cr_chair_40_n04429376_9432.png
subject-02,1,176,0.675596952438354,bird,bird,bw,0176_cl_s02_bw_bird_40_n01592084_19555.png
subject-02,1,177,0.654781818389893,chair,chair,bw,0177_cl_s02_bw_chair_40_n04099969_8934.png
subject-02,1,178,0.693146944046021,oven,oven,bw,0178_cl_s02_bw_oven_40_n04111531_6120.png
subject-02,1,179,0.882523059844971,truck,truck,cr,0179_cl_s02_cr_truck_40_n03796401_5515.png
subject-02,1,180,0.610459089279175,keyboard,keyboard,bw,0180_cl_s02_bw_keyboard_40_n03085013_23534.png
subject-02,1,181,0.870213985443115,bear,bear,bw,0181_cl_s02_bw_bear_40_n02134418_5824.png
subject-02,1,182,0.714118957519531,bird,bird,bw,0182_cl_s02_bw_bird_40_n02027492_546.png
subject-02,1,183,0.795857906341553,truck,truck,cr,0183_cl_s02_cr_truck_40_n03417042_16038.png
subject-02,1,184,0.903662919998169,car,car,cr,0184_cl_s02_cr_car_40_n02814533_80049.png
subject-02,1,185,0.807364940643311,bicycle,bicycle,cr,0185_cl_s02_cr_bicycle_40_n03792782_33853.png
subject-02,1,186,1.45729088783264,car,truck,cr,0186_cl_s02_cr_truck_40_n04467665_37066.png
subject-02,1,187,0.701251983642578,elephant,elephant,cr,0187_cl_s02_cr_elephant_40_n02504458_694.png
subject-02,1,188,0.805259943008423,bird,bird,bw,0188_cl_s02_bw_bird_40_n01817953_5039.png
subject-02,1,189,0.558811902999878,keyboard,keyboard,cr,0189_cl_s02_cr_keyboard_40_n03085013_21325.png
subject-02,1,190,1.22463202476501,cat,cat,cr,0190_cl_s02_cr_cat_40_n02123394_8268.png
subject-02,1,191,0.610263109207153,cat,cat,bw,0191_cl_s02_bw_cat_40_n02123159_2107.png
subject-02,1,192,0.68613600730896,cat,cat,bw,0192_cl_s02_bw_cat_40_n02125311_20219.png
subject-02,1,193,1.02409219741821,dog,dog,bw,0193_cl_s02_bw_dog_40_n02097474_1859.png
subject-02,1,194,0.790019035339355,cat,cat,cr,0194_cl_s02_cr_cat_40_n02123394_3605.png
subject-02,1,195,0.533514022827148,cat,cat,cr,0195_cl_s02_cr_cat_40_n02123394_1594.png
subject-02,1,196,0.727504014968872,bear,bear,bw,0196_cl_s02_bw_bear_40_n02132136_21799.png
subject-02,1,197,0.815270900726318,airplane,airplane,cr,0197_cl_s02_cr_airplane_40_n02690373_6812.png
subject-02,1,198,0.929095029830933,keyboard,keyboard,cr,0198_cl_s02_cr_keyboard_40_n04505470_2889.png
subject-02,1,199,1.07498502731323,bottle,bottle,bw,0199_cl_s02_bw_bottle_40_n04557648_23801.png
subject-02,1,200,0.62090802192688,car,car,cr,0200_cl_s02_cr_car_40_n03100240_9354.png
subject-02,1,201,1.10282397270203,bear,bear,bw,0201_cl_s02_bw_bear_40_n02134418_399.png
subject-02,1,202,0.644330024719238,bottle,oven,cr,0202_cl_s02_cr_oven_40_n04111531_7355.png
subject-02,1,203,0.630458116531372,clock,clock,cr,0203_cl_s02_cr_clock_40_n04548280_8795.png
subject-02,1,204,0.77574610710144,bottle,bottle,bw,0204_cl_s02_bw_bottle_40_n04557648_5665.png
subject-02,1,205,0.669878959655762,keyboard,keyboard,cr,0205_cl_s02_cr_keyboard_40_n04505470_8575.png
subject-02,1,206,NaN,na,bicycle,bw,0206_cl_s02_bw_bicycle_40_n03792782_15557.png
subject-02,1,207,0.737706899642944,keyboard,keyboard,bw,0207_cl_s02_bw_keyboard_40_n04505470_510.png
subject-02,1,208,0.673196077346802,truck,truck,bw,0208_cl_s02_bw_truck_40_n03796401_4423.png
subject-02,1,209,0.703383922576904,boat,boat,cr,0209_cl_s02_cr_boat_40_n04273569_3052.png
subject-02,1,210,0.706617116928101,bottle,bottle,cr,0210_cl_s02_cr_bottle_40_n04591713_5559.png
subject-02,1,211,0.664705991744995,keyboard,keyboard,bw,0211_cl_s02_bw_keyboard_40_n04505470_2907.png
subject-02,1,212,0.626700878143311,airplane,airplane,cr,0212_cl_s02_cr_airplane_40_n02690373_8560.png
subject-02,1,213,0.86818790435791,airplane,oven,bw,0213_cl_s02_bw_oven_40_n04111531_3353.png
subject-02,1,214,0.807947874069214,oven,oven,bw,0214_cl_s02_bw_oven_40_n04111531_7862.png
subject-02,1,215,0.557741165161133,bear,bear,cr,0215_cl_s02_cr_bear_40_n02133161_3988.png
subject-02,1,216,0.60774302482605,clock,clock,cr,0216_cl_s02_cr_clock_40_n02708093_4976.png
subject-02,1,217,0.699405908584595,bicycle,bicycle,bw,0217_cl_s02_bw_bicycle_40_n02835271_12926.png
subject-02,1,218,0.605456829071045,boat,boat,bw,0218_cl_s02_bw_boat_40_n03344393_5066.png
subject-02,1,219,0.927082061767578,elephant,elephant,cr,0219_cl_s02_cr_elephant_40_n02504013_6672.png
subject-02,1,220,0.812875986099243,keyboard,keyboard,cr,0220_cl_s02_cr_keyboard_40_n03085013_22837.png
subject-02,1,221,0.656751871109009,car,car,bw,0221_cl_s02_bw_car_40_n04285008_13354.png
subject-02,1,222,0.772989988327026,bicycle,bicycle,bw,0222_cl_s02_bw_bicycle_40_n03792782_3705.png
subject-02,1,223,0.624633073806763,keyboard,keyboard,bw,0223_cl_s02_bw_keyboard_40_n04505470_4477.png
subject-02,1,224,0.660305976867676,car,car,cr,0224_cl_s02_cr_car_40_n03100240_14252.png
subject-02,1,225,0.591912031173706,clock,clock,cr,0225_cl_s02_cr_clock_40_n04548280_2988.png
subject-02,1,226,0.553884029388428,cat,cat,cr,0226_cl_s02_cr_cat_40_n02123045_5300.png
subject-02,1,227,0.697598934173584,cat,cat,bw,0227_cl_s02_bw_cat_40_n02125311_75445.png
subject-02,1,228,0.53544282913208,clock,clock,bw,0228_cl_s02_bw_clock_40_n02708093_3691.png
subject-02,1,229,0.603064060211182,keyboard,keyboard,bw,0229_cl_s02_bw_keyboard_40_n03085013_21956.png
subject-02,1,230,0.786932945251465,elephant,elephant,cr,0230_cl_s02_cr_elephant_40_n02504013_3141.png
subject-02,1,231,0.812847137451172,dog,dog,bw,0231_cl_s02_bw_dog_40_n02091467_3727.png
subject-02,1,232,0.66468620300293,cat,cat,bw,0232_cl_s02_bw_cat_40_n02123159_1769.png
subject-02,1,233,0.882530927658081,bird,bird,bw,0233_cl_s02_bw_bird_40_n01817953_6548.png
subject-02,1,234,0.670762062072754,clock,clock,cr,0234_cl_s02_cr_clock_40_n04548280_77.png
subject-02,1,235,0.718492984771729,keyboard,chair,cr,0235_cl_s02_cr_chair_40_n03376595_9813.png
subject-02,1,236,0.571956872940063,bear,bear,bw,0236_cl_s02_bw_bear_40_n02132136_26027.png
subject-02,1,237,0.677586078643799,bottle,bottle,cr,0237_cl_s02_cr_bottle_40_n04557648_830.png
subject-02,1,238,0.871542930603027,elephant,elephant,bw,0238_cl_s02_bw_elephant_40_n02504458_5059.png
subject-02,1,239,0.821644067764282,keyboard,keyboard,cr,0239_cl_s02_cr_keyboard_40_n04505470_4906.png
subject-02,1,240,0.623104810714722,oven,oven,cr,0240_cl_s02_cr_oven_40_n04111531_7072.png
subject-02,1,241,0.714635133743286,truck,truck,cr,0241_cl_s02_cr_truck_40_n04467665_4899.png
subject-02,1,242,0.855944156646729,boat,bear,bw,0242_cl_s02_bw_bear_40_n02133161_13461.png
subject-02,1,243,0.749779939651489,elephant,elephant,bw,0243_cl_s02_bw_elephant_40_n02504013_53.png
subject-02,1,244,0.687684059143066,elephant,elephant,cr,0244_cl_s02_cr_elephant_40_n02504013_6731.png
subject-02,1,245,0.587536811828613,truck,truck,bw,0245_cl_s02_bw_truck_40_n04467665_10060.png
subject-02,1,246,0.959084033966064,truck,truck,bw,0246_cl_s02_bw_truck_40_n03417042_5229.png
subject-02,1,247,0.76308798789978,bicycle,bicycle,cr,0247_cl_s02_cr_bicycle_40_n02835271_18276.png
subject-02,1,248,0.685073852539062,cat,cat,bw,0248_cl_s02_bw_cat_40_n02125311_5300.png
subject-02,1,249,0.712748050689697,elephant,elephant,bw,0249_cl_s02_bw_elephant_40_n02504458_6995.png
subject-02,1,250,0.620391845703125,cat,cat,cr,0250_cl_s02_cr_cat_40_n02125311_12557.png
subject-02,1,251,0.502299070358276,keyboard,keyboard,cr,0251_cl_s02_cr_keyboard_40_n03085013_8936.png
subject-02,1,252,0.694175004959106,truck,truck,cr,0252_cl_s02_cr_truck_40_n03796401_18240.png
subject-02,1,253,0.780014991760254,chair,chair,cr,0253_cl_s02_cr_chair_40_n03376595_2056.png
subject-02,1,254,0.655816078186035,car,car,cr,0254_cl_s02_cr_car_40_n02814533_83614.png
subject-02,1,255,0.671788930892944,cat,cat,cr,0255_cl_s02_cr_cat_40_n02123394_979.png
subject-02,1,256,0.637332201004028,car,car,bw,0256_cl_s02_bw_car_40_n03100240_18873.png
subject-02,1,257,0.607333898544312,boat,boat,cr,0257_cl_s02_cr_boat_40_n03344393_661.png
subject-02,1,258,0.659020900726318,bottle,bottle,cr,0258_cl_s02_cr_bottle_40_n03983396_5864.png
subject-02,1,259,0.785077095031738,airplane,airplane,cr,0259_cl_s02_cr_airplane_40_n02690373_6854.png
subject-02,1,260,0.60660982131958,boat,boat,bw,0260_cl_s02_bw_boat_40_n03662601_855.png
subject-02,1,261,0.580336093902588,airplane,airplane,bw,0261_cl_s02_bw_airplane_40_n02690373_6406.png
subject-02,1,262,0.742258071899414,bottle,bottle,bw,0262_cl_s02_bw_bottle_40_n03983396_8684.png
subject-02,1,263,0.530123949050903,cat,cat,bw,0263_cl_s02_bw_cat_40_n02125311_31318.png
subject-02,1,264,0.783896923065186,dog,dog,cr,0264_cl_s02_cr_dog_40_n02107683_3640.png
subject-02,1,265,0.823652982711792,chair,chair,cr,0265_cl_s02_cr_chair_40_n02791124_4528.png
subject-02,1,266,0.669428825378418,bicycle,bicycle,cr,0266_cl_s02_cr_bicycle_40_n02835271_8982.png
subject-02,1,267,0.579097986221313,bear,bear,bw,0267_cl_s02_bw_bear_40_n02134418_1043.png
subject-02,1,268,0.571008920669556,airplane,airplane,bw,0268_cl_s02_bw_airplane_40_n02690373_1442.png
subject-02,1,269,0.755275964736938,clock,clock,bw,0269_cl_s02_bw_clock_40_n04548280_7813.png
subject-02,1,270,0.814617872238159,elephant,elephant,bw,0270_cl_s02_bw_elephant_40_n02504458_6336.png
subject-02,1,271,0.846459150314331,elephant,elephant,cr,0271_cl_s02_cr_elephant_40_n02504013_14918.png
subject-02,1,272,0.692345857620239,keyboard,keyboard,cr,0272_cl_s02_cr_keyboard_40_n04505470_996.png
subject-02,1,273,0.912322044372559,chair,chair,cr,0273_cl_s02_cr_chair_40_n04099969_23961.png
subject-02,1,274,0.625852823257446,clock,clock,bw,0274_cl_s02_bw_clock_40_n04548280_3330.png
subject-02,1,275,0.593743085861206,clock,clock,cr,0275_cl_s02_cr_clock_40_n02708093_2394.png
subject-02,1,276,1.36170721054077,bear,bear,cr,0276_cl_s02_cr_bear_40_n02132136_8896.png
subject-02,1,277,0.727567911148071,airplane,airplane,cr,0277_cl_s02_cr_airplane_40_n02690373_2059.png
subject-02,1,278,1.189453125,keyboard,keyboard,cr,0278_cl_s02_cr_keyboard_40_n04505470_4878.png
subject-02,1,279,0.715166807174683,oven,oven,cr,0279_cl_s02_cr_oven_40_n04111531_18430.png
subject-02,1,280,0.855238914489746,bird,bird,bw,0280_cl_s02_bw_bird_40_n01614925_267.png
subject-02,1,281,0.778928995132446,dog,dog,cr,0281_cl_s02_cr_dog_40_n02106662_9600.png
subject-02,1,282,0.842394828796387,elephant,elephant,bw,0282_cl_s02_bw_elephant_40_n02504458_3485.png
subject-02,1,283,0.728256940841675,knife,knife,bw,0283_cl_s02_bw_knife_40_n03041632_10000.png
subject-02,1,284,0.596235990524292,cat,cat,bw,0284_cl_s02_bw_cat_40_n02123159_4879.png
subject-02,1,285,0.69390606880188,oven,oven,bw,0285_cl_s02_bw_oven_40_n04111531_7189.png
subject-02,1,286,0.571978092193604,bicycle,bicycle,cr,0286_cl_s02_cr_bicycle_40_n02835271_14383.png
subject-02,1,287,0.643878936767578,elephant,elephant,cr,0287_cl_s02_cr_elephant_40_n02504458_1661.png
subject-02,1,288,0.811444044113159,airplane,airplane,bw,0288_cl_s02_bw_airplane_40_n02690373_1800.png
subject-02,1,289,0.555277824401855,car,car,cr,0289_cl_s02_cr_car_40_n03100240_3286.png
subject-02,1,290,0.567173004150391,elephant,elephant,bw,0290_cl_s02_bw_elephant_40_n02504458_5444.png
subject-02,1,291,0.638883829116821,cat,cat,cr,0291_cl_s02_cr_cat_40_n02123159_1794.png
subject-02,1,292,0.526689052581787,cat,cat,bw,0292_cl_s02_bw_cat_40_n02124075_12369.png
subject-02,1,293,1.01238918304443,knife,knife,cr,0293_cl_s02_cr_knife_40_n03041632_29125.png
subject-02,1,294,0.784230947494507,oven,oven,bw,0294_cl_s02_bw_oven_40_n04111531_14329.png
subject-02,1,295,0.716336011886597,truck,truck,bw,0295_cl_s02_bw_truck_40_n03796401_1710.png
subject-02,1,296,1.07961511611938,clock,clock,cr,0296_cl_s02_cr_clock_40_n02708093_6696.png
subject-02,1,297,0.875761985778809,bear,bear,bw,0297_cl_s02_bw_bear_40_n02134084_32585.png
subject-02,1,298,1.0454888343811,boat,airplane,bw,0298_cl_s02_bw_airplane_40_n02690373_3620.png
subject-02,1,299,0.74522590637207,dog,dog,cr,0299_cl_s02_cr_dog_40_n02099849_8726.png
subject-02,1,300,1.14921402931213,car,car,bw,0300_cl_s02_bw_car_40_n04285008_9404.png
subject-02,1,301,1.35509490966797,bicycle,dog,cr,0301_cl_s02_cr_dog_40_n02110185_7540.png
subject-02,1,302,0.830728054046631,clock,clock,bw,0302_cl_s02_bw_clock_40_n04548280_5456.png
subject-02,1,303,0.744483947753906,car,car,bw,0303_cl_s02_bw_car_40_n04285008_658.png
subject-02,1,304,0.58040714263916,chair,chair,bw,0304_cl_s02_bw_chair_40_n04099969_9847.png
subject-02,1,305,0.636094808578491,keyboard,keyboard,bw,0305_cl_s02_bw_keyboard_40_n03085013_20161.png
subject-02,1,306,0.620043992996216,car,car,cr,0306_cl_s02_cr_car_40_n04285008_901.png
subject-02,1,307,0.619801044464111,boat,boat,bw,0307_cl_s02_bw_boat_40_n04612504_1748.png
subject-02,1,308,0.755855083465576,clock,clock,cr,0308_cl_s02_cr_clock_40_n02708093_6610.png
subject-02,1,309,0.683475017547607,chair,chair,cr,0309_cl_s02_cr_chair_40_n04429376_21546.png
subject-02,1,310,0.763607025146484,bottle,bottle,bw,0310_cl_s02_bw_bottle_40_n04560804_15679.png
subject-02,1,311,0.669354915618896,knife,knife,bw,0311_cl_s02_bw_knife_40_n03041632_35365.png
subject-02,1,312,0.565093994140625,bottle,keyboard,cr,0312_cl_s02_cr_keyboard_40_n03085013_3489.png
subject-02,1,313,0.690732002258301,chair,chair,bw,0313_cl_s02_bw_chair_40_n03376595_17859.png
subject-02,1,314,0.692460060119629,bird,bird,cr,0314_cl_s02_cr_bird_40_n02056570_6364.png
subject-02,1,315,0.910429954528809,truck,truck,cr,0315_cl_s02_cr_truck_40_n03417042_2778.png
subject-02,1,316,0.758121013641357,bird,bird,bw,0316_cl_s02_bw_bird_40_n01537544_2875.png
subject-02,1,317,0.860109090805054,bottle,bottle,cr,0317_cl_s02_cr_bottle_40_n04560804_15293.png
subject-02,1,318,0.779775857925415,elephant,elephant,cr,0318_cl_s02_cr_elephant_40_n02504013_10351.png
subject-02,1,319,0.875296115875244,keyboard,keyboard,bw,0319_cl_s02_bw_keyboard_40_n03085013_22820.png
subject-02,1,320,0.619395017623901,airplane,airplane,bw,0320_cl_s02_bw_airplane_40_n02690373_9812.png
subject-02,1,321,0.764209985733032,keyboard,keyboard,bw,0321_cl_s02_bw_keyboard_40_n04505470_464.png
subject-02,1,322,0.739886045455933,car,car,bw,0322_cl_s02_bw_car_40_n02814533_95054.png
subject-02,1,323,0.667656898498535,boat,boat,bw,0323_cl_s02_bw_boat_40_n02951358_34662.png
subject-02,1,324,0.903542995452881,truck,truck,bw,0324_cl_s02_bw_truck_40_n03796401_1853.png
subject-02,1,325,0.755325078964233,car,car,bw,0325_cl_s02_bw_car_40_n03100240_23849.png
subject-02,1,326,NaN,na,chair,cr,0326_cl_s02_cr_chair_40_n04429376_20906.png
subject-02,1,327,0.769207954406738,truck,truck,cr,0327_cl_s02_cr_truck_40_n03417042_10283.png
subject-02,1,328,0.594758987426758,cat,dog,bw,0328_cl_s02_bw_dog_40_n02093256_7181.png
subject-02,1,329,0.782670021057129,cat,bird,cr,0329_cl_s02_cr_bird_40_n02013706_2849.png
subject-02,1,330,0.810474157333374,bicycle,bicycle,bw,0330_cl_s02_bw_bicycle_40_n03792782_4591.png
subject-02,1,331,0.692572116851807,clock,clock,cr,0331_cl_s02_cr_clock_40_n02708093_57.png
subject-02,1,332,1.50013089179993,knife,knife,cr,0332_cl_s02_cr_knife_40_n03041632_6708.png
subject-02,1,333,0.925979137420654,boat,boat,bw,0333_cl_s02_bw_boat_40_n03344393_547.png
subject-02,1,334,0.670026063919067,elephant,elephant,bw,0334_cl_s02_bw_elephant_40_n02504013_8638.png
subject-02,1,335,0.609561920166016,bottle,bottle,bw,0335_cl_s02_bw_bottle_40_n02823428_6767.png
subject-02,1,336,0.543305158615112,clock,clock,bw,0336_cl_s02_bw_clock_40_n03196217_5365.png
subject-02,1,337,0.645175933837891,car,car,bw,0337_cl_s02_bw_car_40_n02814533_32461.png
subject-02,1,338,0.918921947479248,knife,knife,cr,0338_cl_s02_cr_knife_40_n03041632_20707.png
subject-02,1,339,0.562814950942993,bird,bird,bw,0339_cl_s02_bw_bird_40_n02009912_1919.png
subject-02,1,340,0.680663824081421,bird,bird,cr,0340_cl_s02_cr_bird_40_n02002556_15337.png
subject-02,1,341,0.582329988479614,cat,cat,bw,0341_cl_s02_bw_cat_40_n02125311_17543.png
subject-02,1,342,0.772277116775513,keyboard,knife,bw,0342_cl_s02_bw_knife_40_n03041632_85416.png
subject-02,1,343,0.690047025680542,knife,knife,bw,0343_cl_s02_bw_knife_40_n03041632_20413.png
subject-02,1,344,0.891839981079102,oven,oven,bw,0344_cl_s02_bw_oven_40_n04111531_12702.png
subject-02,1,345,0.755614995956421,keyboard,keyboard,bw,0345_cl_s02_bw_keyboard_40_n03085013_7992.png
subject-02,1,346,0.575538158416748,cat,cat,bw,0346_cl_s02_bw_cat_40_n02123045_3568.png
subject-02,1,347,0.705537080764771,truck,truck,cr,0347_cl_s02_cr_truck_40_n03796401_9384.png
subject-02,1,348,0.731005907058716,bicycle,bicycle,cr,0348_cl_s02_cr_bicycle_40_n03792782_3296.png
subject-02,1,349,0.614789962768555,elephant,elephant,cr,0349_cl_s02_cr_elephant_40_n02504458_1179.png
subject-02,1,350,0.844663858413696,knife,knife,cr,0350_cl_s02_cr_knife_40_n03041632_18859.png
subject-02,1,351,0.73241400718689,knife,knife,bw,0351_cl_s02_bw_knife_40_n03041632_101553.png
subject-02,1,352,0.676265001296997,bear,bear,bw,0352_cl_s02_bw_bear_40_n02134418_7795.png
subject-02,1,353,0.586132049560547,cat,cat,cr,0353_cl_s02_cr_cat_40_n02123045_7646.png
subject-02,1,354,0.771910905838013,car,oven,bw,0354_cl_s02_bw_oven_40_n04111531_978.png
subject-02,1,355,0.937835931777954,truck,truck,cr,0355_cl_s02_cr_truck_40_n04467665_3125.png
subject-02,1,356,0.895593881607056,dog,dog,bw,0356_cl_s02_bw_dog_40_n02106662_50272.png
subject-02,1,357,1.20937490463257,chair,clock,bw,0357_cl_s02_bw_clock_40_n03196217_127.png
subject-02,1,358,0.801118850708008,boat,boat,bw,0358_cl_s02_bw_boat_40_n03344393_11855.png
subject-02,1,359,0.705125093460083,bird,bird,bw,0359_cl_s02_bw_bird_40_n02009229_2503.png
subject-02,1,360,0.648849010467529,airplane,airplane,cr,0360_cl_s02_cr_airplane_40_n02690373_5342.png
subject-02,1,361,0.648688793182373,airplane,airplane,cr,0361_cl_s02_cr_airplane_40_n02690373_7145.png
subject-02,1,362,0.640328884124756,knife,knife,cr,0362_cl_s02_cr_knife_40_n03041632_36277.png
subject-02,1,363,0.748192071914673,bird,bird,bw,0363_cl_s02_bw_bird_40_n01818515_10536.png
subject-02,1,364,0.637962818145752,knife,knife,cr,0364_cl_s02_cr_knife_40_n03041632_14293.png
subject-02,1,365,0.843941926956177,bottle,bottle,bw,0365_cl_s02_bw_bottle_40_n04591713_2680.png
subject-02,1,366,0.848000049591064,chair,chair,cr,0366_cl_s02_cr_chair_40_n04099969_7998.png
subject-02,1,367,0.629465103149414,truck,truck,cr,0367_cl_s02_cr_truck_40_n04467665_64492.png
subject-02,1,368,0.641331911087036,dog,dog,cr,0368_cl_s02_cr_dog_40_n02102177_5870.png
subject-02,1,369,0.913039207458496,car,car,bw,0369_cl_s02_bw_car_40_n04285008_2906.png
subject-02,1,370,0.710880041122437,boat,boat,cr,0370_cl_s02_cr_boat_40_n03344393_8160.png
subject-02,1,371,0.76865291595459,airplane,airplane,bw,0371_cl_s02_bw_airplane_40_n02690373_4233.png
subject-02,1,372,0.932969093322754,truck,truck,bw,0372_cl_s02_bw_truck_40_n03417042_3236.png
subject-02,1,373,1.40825414657593,dog,dog,cr,0373_cl_s02_cr_dog_40_n02100583_1267.png
subject-02,1,374,0.714264869689941,dog,dog,bw,0374_cl_s02_bw_dog_40_n02106550_12642.png
subject-02,1,375,0.586076974868774,bicycle,bicycle,bw,0375_cl_s02_bw_bicycle_40_n02835271_8137.png
subject-02,1,376,0.645742893218994,bicycle,bicycle,cr,0376_cl_s02_cr_bicycle_40_n02835271_7351.png
subject-02,1,377,0.791425943374634,bottle,bottle,cr,0377_cl_s02_cr_bottle_40_n04560804_3683.png
subject-02,1,378,0.581365823745728,oven,oven,cr,0378_cl_s02_cr_oven_40_n04111531_8687.png
subject-02,1,379,0.865216016769409,airplane,airplane,bw,0379_cl_s02_bw_airplane_40_n02690373_19104.png
subject-02,1,380,0.649185180664062,bicycle,bicycle,bw,0380_cl_s02_bw_bicycle_40_n03792782_49707.png
subject-02,1,381,0.67087197303772,bottle,bottle,bw,0381_cl_s02_bw_bottle_40_n02823428_10814.png
subject-02,1,382,0.616798162460327,oven,oven,cr,0382_cl_s02_cr_oven_40_n04111531_12929.png
subject-02,1,383,0.844481945037842,dog,dog,bw,0383_cl_s02_bw_dog_40_n02095570_513.png
subject-02,1,384,1.0542778968811,dog,clock,cr,0384_cl_s02_cr_clock_40_n03196217_10578.png
subject-02,1,385,0.78823184967041,cat,keyboard,cr,0385_cl_s02_cr_keyboard_40_n03085013_20398.png
subject-02,1,386,1.30781316757202,elephant,elephant,cr,0386_cl_s02_cr_elephant_40_n02504013_7026.png
subject-02,1,387,0.675965070724487,dog,dog,bw,0387_cl_s02_bw_dog_40_n02088466_5521.png
subject-02,1,388,0.593463182449341,chair,chair,cr,0388_cl_s02_cr_chair_40_n04099969_13948.png
subject-02,1,389,0.579275131225586,car,car,bw,0389_cl_s02_bw_car_40_n04285008_5548.png
subject-02,1,390,0.82542610168457,bear,bear,cr,0390_cl_s02_cr_bear_40_n02134084_20500.png
subject-02,1,391,0.602994918823242,boat,boat,cr,0391_cl_s02_cr_boat_40_n03662601_15143.png
subject-02,1,392,0.720753908157349,chair,chair,bw,0392_cl_s02_bw_chair_40_n02791124_4306.png
subject-02,1,393,0.670682907104492,knife,knife,cr,0393_cl_s02_cr_knife_40_n03041632_29276.png
subject-02,1,394,0.626259088516235,bicycle,bicycle,cr,0394_cl_s02_cr_bicycle_40_n02835271_10469.png
subject-02,1,395,0.722210884094238,bottle,chair,cr,0395_cl_s02_cr_chair_40_n02791124_7942.png
subject-02,1,396,0.63189697265625,oven,oven,cr,0396_cl_s02_cr_oven_40_n04111531_5519.png
subject-02,1,397,0.593820095062256,bear,bear,cr,0397_cl_s02_cr_bear_40_n02134084_23974.png
subject-02,1,398,0.618088960647583,chair,oven,bw,0398_cl_s02_bw_oven_40_n04111531_615.png
subject-02,1,399,0.623544931411743,cat,keyboard,bw,0399_cl_s02_bw_keyboard_40_n03085013_3910.png
subject-02,1,400,0.653291940689087,airplane,airplane,bw,0400_cl_s02_bw_airplane_40_n02690373_3493.png
subject-02,1,401,0.701481103897095,clock,clock,bw,0401_cl_s02_bw_clock_40_n04548280_4473.png
subject-02,1,402,0.735055923461914,oven,oven,bw,0402_cl_s02_bw_oven_40_n04111531_887.png
subject-02,1,403,0.53880500793457,bicycle,bicycle,cr,0403_cl_s02_cr_bicycle_40_n02835271_8322.png
subject-02,1,404,0.82660698890686,dog,dog,cr,0404_cl_s02_cr_dog_40_n02089867_2298.png
subject-02,1,405,0.606545925140381,boat,boat,cr,0405_cl_s02_cr_boat_40_n04612504_18536.png
subject-02,1,406,0.648355007171631,bicycle,bicycle,cr,0406_cl_s02_cr_bicycle_40_n02835271_8502.png
subject-02,1,407,1.02241492271423,keyboard,keyboard,cr,0407_cl_s02_cr_keyboard_40_n04505470_665.png
subject-02,1,408,0.582095146179199,boat,bear,bw,0408_cl_s02_bw_bear_40_n02132136_10654.png
subject-02,1,409,0.591752767562866,elephant,elephant,bw,0409_cl_s02_bw_elephant_40_n02504013_257.png
subject-02,1,410,0.579786062240601,truck,truck,bw,0410_cl_s02_bw_truck_40_n03417042_22513.png
subject-02,1,411,0.803323984146118,bear,bear,bw,0411_cl_s02_bw_bear_40_n02132136_10134.png
subject-02,1,412,0.769291877746582,boat,boat,bw,0412_cl_s02_bw_boat_40_n03344393_7614.png
subject-02,1,413,0.578976154327393,chair,chair,cr,0413_cl_s02_cr_chair_40_n02791124_392.png
subject-02,1,414,1.10676503181458,car,oven,bw,0414_cl_s02_bw_oven_40_n04111531_19000.png
subject-02,1,415,0.944675207138062,dog,dog,bw,0415_cl_s02_bw_dog_40_n02110063_16336.png
subject-02,1,416,1.00655508041382,knife,knife,cr,0416_cl_s02_cr_knife_40_n03041632_44212.png
subject-02,1,417,0.634207010269165,cat,cat,bw,0417_cl_s02_bw_cat_40_n02123597_11613.png
subject-02,1,418,0.725971937179565,airplane,airplane,cr,0418_cl_s02_cr_airplane_40_n02690373_60.png
subject-02,1,419,0.784201145172119,clock,clock,bw,0419_cl_s02_bw_clock_40_n04548280_4354.png
subject-02,1,420,0.547651052474976,oven,oven,cr,0420_cl_s02_cr_oven_40_n04111531_14876.png
subject-02,1,421,1.12781095504761,knife,bottle,cr,0421_cl_s02_cr_bottle_40_n04560804_2005.png
subject-02,1,422,0.731415033340454,chair,chair,bw,0422_cl_s02_bw_chair_40_n02791124_957.png
subject-02,1,423,0.637143850326538,truck,truck,cr,0423_cl_s02_cr_truck_40_n04467665_54349.png
subject-02,1,424,0.624836206436157,cat,cat,cr,0424_cl_s02_cr_cat_40_n02124075_9206.png
subject-02,1,425,0.726875782012939,bear,bear,bw,0425_cl_s02_bw_bear_40_n02132136_7647.png
subject-02,1,426,0.676660060882568,bottle,keyboard,bw,0426_cl_s02_bw_keyboard_40_n04505470_4107.png
subject-02,1,427,0.696511030197144,bear,bear,bw,0427_cl_s02_bw_bear_40_n02134418_5405.png
subject-02,1,428,0.832216024398804,knife,knife,cr,0428_cl_s02_cr_knife_40_n03041632_8618.png
subject-02,1,429,0.659940958023071,car,car,cr,0429_cl_s02_cr_car_40_n04285008_8093.png
subject-02,1,430,0.969852924346924,bear,elephant,bw,0430_cl_s02_bw_elephant_40_n02504458_2556.png
subject-02,1,431,1.02361607551575,bottle,knife,bw,0431_cl_s02_bw_knife_40_n03041632_5102.png
subject-02,1,432,0.751394033432007,airplane,airplane,bw,0432_cl_s02_bw_airplane_40_n02690373_3899.png
subject-02,1,433,0.927592039108276,bicycle,bicycle,cr,0433_cl_s02_cr_bicycle_40_n03792782_7570.png
subject-02,1,434,0.504937887191772,cat,cat,cr,0434_cl_s02_cr_cat_40_n02123597_660.png
subject-02,1,435,0.568905115127563,bear,bear,cr,0435_cl_s02_cr_bear_40_n02134084_5274.png
subject-02,1,436,0.868569135665894,dog,dog,cr,0436_cl_s02_cr_dog_40_n02111500_9179.png
subject-02,1,437,0.814426898956299,car,car,bw,0437_cl_s02_bw_car_40_n04285008_14334.png
subject-02,1,438,0.558306932449341,airplane,airplane,bw,0438_cl_s02_bw_airplane_40_n02690373_4150.png
subject-02,1,439,0.802299022674561,car,car,bw,0439_cl_s02_bw_car_40_n02814533_45594.png
subject-02,1,440,0.648138046264648,cat,cat,bw,0440_cl_s02_bw_cat_40_n02123394_4877.png
subject-02,1,441,0.733683109283447,bear,bear,cr,0441_cl_s02_cr_bear_40_n02132136_860.png
subject-02,1,442,0.678050994873047,airplane,airplane,bw,0442_cl_s02_bw_airplane_40_n02690373_2316.png
subject-02,1,443,0.837261915206909,bear,bear,cr,0443_cl_s02_cr_bear_40_n02134084_1090.png
subject-02,1,444,0.743098974227905,bird,bird,cr,0444_cl_s02_cr_bird_40_n01817953_10964.png
subject-02,1,445,0.729430913925171,bottle,bottle,bw,0445_cl_s02_bw_bottle_40_n03983396_3817.png
subject-02,1,446,0.661006927490234,car,car,cr,0446_cl_s02_cr_car_40_n02814533_11051.png
subject-02,1,447,0.70873498916626,airplane,airplane,cr,0447_cl_s02_cr_airplane_40_n02690373_7387.png
subject-02,1,448,0.726459980010986,bird,bear,cr,0448_cl_s02_cr_bear_40_n02133161_9949.png
subject-02,1,449,0.714409112930298,bicycle,bicycle,cr,0449_cl_s02_cr_bicycle_40_n02835271_26731.png
subject-02,1,450,0.582147836685181,bottle,bottle,cr,0450_cl_s02_cr_bottle_40_n04560804_19001.png
subject-02,1,451,0.685804128646851,bicycle,bicycle,bw,0451_cl_s02_bw_bicycle_40_n02835271_4341.png
subject-02,1,452,0.897640943527222,airplane,boat,cr,0452_cl_s02_cr_boat_40_n03662601_35008.png
subject-02,1,453,0.737504959106445,clock,knife,bw,0453_cl_s02_bw_knife_40_n03041632_7380.png
subject-02,1,454,1.11544513702393,oven,bottle,bw,0454_cl_s02_bw_bottle_40_n02823428_3298.png
subject-02,1,455,0.929461002349854,knife,knife,bw,0455_cl_s02_bw_knife_40_n03041632_29037.png
subject-02,1,456,1.3329918384552,knife,clock,cr,0456_cl_s02_cr_clock_40_n04548280_7153.png
subject-02,1,457,0.662729024887085,oven,oven,cr,0457_cl_s02_cr_oven_40_n04111531_3570.png
subject-02,1,458,0.98466682434082,oven,oven,cr,0458_cl_s02_cr_oven_40_n04111531_9455.png
subject-02,1,459,0.862258911132812,knife,knife,cr,0459_cl_s02_cr_knife_40_n03041632_23546.png
subject-02,1,460,0.68607497215271,oven,oven,bw,0460_cl_s02_bw_oven_40_n04111531_11868.png
subject-02,1,461,1.17190480232239,knife,knife,bw,0461_cl_s02_bw_knife_40_n03041632_21477.png
subject-02,1,462,1.11576080322266,elephant,elephant,bw,0462_cl_s02_bw_elephant_40_n02504013_8308.png
subject-02,1,463,0.611745119094849,truck,truck,bw,0463_cl_s02_bw_truck_40_n04467665_12177.png
subject-02,1,464,0.503648042678833,keyboard,keyboard,bw,0464_cl_s02_bw_keyboard_40_n03085013_23789.png
subject-02,1,465,1.48372983932495,elephant,elephant,cr,0465_cl_s02_cr_elephant_40_n02504458_5788.png
subject-02,1,466,0.719162940979004,airplane,airplane,bw,0466_cl_s02_bw_airplane_40_n02690373_4134.png
subject-02,1,467,0.932723045349121,boat,oven,cr,0467_cl_s02_cr_oven_40_n04111531_8959.png
subject-02,1,468,0.832798004150391,car,car,cr,0468_cl_s02_cr_car_40_n02814533_83874.png
subject-02,1,469,0.740477800369263,oven,oven,cr,0469_cl_s02_cr_oven_40_n04111531_10749.png
subject-02,1,470,0.672341108322144,truck,truck,bw,0470_cl_s02_bw_truck_40_n03417042_29849.png
subject-02,1,471,0.750246047973633,bicycle,bicycle,bw,0471_cl_s02_bw_bicycle_40_n03792782_67333.png
subject-02,1,472,0.596025943756104,bottle,bottle,cr,0472_cl_s02_cr_bottle_40_n04591713_2879.png
subject-02,1,473,0.61173415184021,oven,oven,bw,0473_cl_s02_bw_oven_40_n04111531_8036.png
subject-02,1,474,0.677443981170654,car,car,cr,0474_cl_s02_cr_car_40_n03100240_12146.png
subject-02,1,475,0.605242013931274,clock,clock,bw,0475_cl_s02_bw_clock_40_n02708093_3484.png
subject-02,1,476,1.12527203559875,dog,bear,cr,0476_cl_s02_cr_bear_40_n02132136_5158.png
subject-02,1,477,0.849155187606812,bottle,bottle,bw,0477_cl_s02_bw_bottle_40_n03937543_1995.png
subject-02,1,478,0.490877866744995,bicycle,bicycle,cr,0478_cl_s02_cr_bicycle_40_n02835271_22263.png
subject-02,1,479,0.692723989486694,bicycle,bottle,bw,0479_cl_s02_bw_bottle_40_n04557648_20614.png
subject-02,1,480,0.648524045944214,elephant,elephant,cr,0480_cl_s02_cr_elephant_40_n02504013_4892.png
subject-02,1,481,0.680385828018188,truck,truck,cr,0481_cl_s02_cr_truck_40_n04467665_4287.png
subject-02,1,482,0.556447982788086,cat,cat,cr,0482_cl_s02_cr_cat_40_n02123394_686.png
subject-02,1,483,0.666193008422852,car,car,bw,0483_cl_s02_bw_car_40_n04285008_8784.png
subject-02,1,484,0.665948867797852,bottle,chair,cr,0484_cl_s02_cr_chair_40_n02791124_3323.png
subject-02,1,485,1.3879017829895,truck,truck,bw,0485_cl_s02_bw_truck_40_n03417042_10043.png
subject-02,1,486,0.74152398109436,bottle,bottle,cr,0486_cl_s02_cr_bottle_40_n04579145_1134.png
subject-02,1,487,0.605506896972656,boat,boat,cr,0487_cl_s02_cr_boat_40_n03344393_5859.png
subject-02,1,488,0.571277856826782,keyboard,keyboard,bw,0488_cl_s02_bw_keyboard_40_n04505470_1903.png
subject-02,1,489,0.635257959365845,cat,cat,cr,0489_cl_s02_cr_cat_40_n02123045_2968.png
subject-02,1,490,0.794891834259033,truck,truck,bw,0490_cl_s02_bw_truck_40_n03417042_29855.png
subject-02,1,491,0.678751945495605,truck,truck,cr,0491_cl_s02_cr_truck_40_n03417042_14575.png
subject-02,1,492,0.598431825637817,cat,cat,bw,0492_cl_s02_bw_cat_40_n02123394_5708.png
subject-02,1,493,0.542398929595947,boat,boat,bw,0493_cl_s02_bw_boat_40_n04273569_23705.png
subject-02,1,494,0.682123899459839,car,car,cr,0494_cl_s02_cr_car_40_n02814533_50194.png
subject-02,1,495,0.844425916671753,airplane,airplane,bw,0495_cl_s02_bw_airplane_40_n02690373_6992.png
subject-02,1,496,1.08794593811035,bottle,bottle,cr,0496_cl_s02_cr_bottle_40_n02823428_987.png
subject-02,1,497,0.57752799987793,clock,clock,cr,0497_cl_s02_cr_clock_40_n04548280_4349.png
subject-02,1,498,0.599495887756348,clock,clock,cr,0498_cl_s02_cr_clock_40_n03196217_6193.png
subject-02,1,499,0.975332975387573,bird,bird,bw,0499_cl_s02_bw_bird_40_n01531178_32624.png
subject-02,1,500,0.627138137817383,cat,cat,cr,0500_cl_s02_cr_cat_40_n02124075_1999.png
subject-02,1,501,0.59296703338623,bottle,bottle,bw,0501_cl_s02_bw_bottle_40_n03937543_4850.png
subject-02,1,502,0.688555955886841,cat,cat,cr,0502_cl_s02_cr_cat_40_n02123045_4089.png
subject-02,1,503,0.598575830459595,oven,oven,bw,0503_cl_s02_bw_oven_40_n04111531_2207.png
subject-02,1,504,0.614388942718506,oven,oven,cr,0504_cl_s02_cr_oven_40_n04111531_21931.png
subject-02,1,505,0.591973066329956,car,car,cr,0505_cl_s02_cr_car_40_n04285008_6200.png
subject-02,1,506,0.749788045883179,car,car,bw,0506_cl_s02_bw_car_40_n04285008_13759.png
subject-02,1,507,0.725635051727295,dog,dog,bw,0507_cl_s02_bw_dog_40_n02090721_464.png
subject-02,1,508,0.569360017776489,oven,oven,cr,0508_cl_s02_cr_oven_40_n04111531_584.png
subject-02,1,509,0.871279954910278,dog,clock,bw,0509_cl_s02_bw_clock_40_n03196217_5165.png
subject-02,1,510,0.709047079086304,chair,chair,bw,0510_cl_s02_bw_chair_40_n03376595_6673.png
subject-02,1,511,0.712851047515869,oven,oven,cr,0511_cl_s02_cr_oven_40_n04111531_2937.png
subject-02,1,512,0.974836111068726,knife,knife,cr,0512_cl_s02_cr_knife_40_n03041632_17285.png
subject-02,1,513,0.722411870956421,bottle,keyboard,bw,0513_cl_s02_bw_keyboard_40_n04505470_4549.png
subject-02,1,514,0.984531164169312,car,car,bw,0514_cl_s02_bw_car_40_n04285008_15177.png
subject-02,1,515,0.75413703918457,truck,truck,cr,0515_cl_s02_cr_truck_40_n03417042_5752.png
subject-02,1,516,0.69025707244873,truck,truck,cr,0516_cl_s02_cr_truck_40_n03417042_1263.png
subject-02,1,517,1.02782082557678,airplane,airplane,bw,0517_cl_s02_bw_airplane_40_n02690373_5838.png
subject-02,1,518,1.27008891105652,boat,airplane,cr,0518_cl_s02_cr_airplane_40_n02690373_4015.png
subject-02,1,519,0.569585084915161,bottle,bottle,cr,0519_cl_s02_cr_bottle_40_n03983396_21043.png
subject-02,1,520,0.63127589225769,keyboard,keyboard,bw,0520_cl_s02_bw_keyboard_40_n04505470_3959.png
subject-02,1,521,0.921051979064941,keyboard,knife,bw,0521_cl_s02_bw_knife_40_n03041632_85488.png
subject-02,1,522,0.874990940093994,bird,bird,cr,0522_cl_s02_cr_bird_40_n01855672_7647.png
subject-02,1,523,0.592747926712036,boat,boat,cr,0523_cl_s02_cr_boat_40_n04273569_17983.png
subject-02,1,524,1.25259900093079,cat,chair,bw,0524_cl_s02_bw_chair_40_n04429376_21865.png
subject-02,1,525,1.32064199447632,chair,knife,bw,0525_cl_s02_bw_knife_40_n03041632_32337.png
subject-02,1,526,0.552237033843994,car,car,bw,0526_cl_s02_bw_car_40_n04285008_7770.png
subject-02,1,527,0.849899053573608,dog,bear,cr,0527_cl_s02_cr_bear_40_n02133161_1490.png
subject-02,1,528,0.593723773956299,clock,clock,cr,0528_cl_s02_cr_clock_40_n03196217_1109.png
subject-02,1,529,0.627635955810547,bottle,bottle,bw,0529_cl_s02_bw_bottle_40_n02823428_1154.png
subject-02,1,530,0.705476999282837,keyboard,keyboard,bw,0530_cl_s02_bw_keyboard_40_n04505470_3957.png
subject-02,1,531,0.53313684463501,cat,cat,cr,0531_cl_s02_cr_cat_40_n02123045_5932.png
subject-02,1,532,0.713042020797729,knife,knife,cr,0532_cl_s02_cr_knife_40_n03041632_992.png
subject-02,1,533,0.786923885345459,bicycle,bicycle,bw,0533_cl_s02_bw_bicycle_40_n03792782_47426.png
subject-02,1,534,0.720798015594482,bicycle,bicycle,cr,0534_cl_s02_cr_bicycle_40_n02835271_13023.png
subject-02,1,535,0.664490938186646,chair,chair,bw,0535_cl_s02_bw_chair_40_n04099969_14986.png
subject-02,1,536,0.594264030456543,oven,oven,cr,0536_cl_s02_cr_oven_40_n04111531_8688.png
subject-02,1,537,1.26814484596252,car,car,cr,0537_cl_s02_cr_car_40_n03100240_1910.png
subject-02,1,538,0.758275985717773,bird,bird,bw,0538_cl_s02_bw_bird_40_n01616318_26436.png
subject-02,1,539,0.605999946594238,bottle,bottle,bw,0539_cl_s02_bw_bottle_40_n02823428_3505.png
subject-02,1,540,1.41932892799377,knife,knife,bw,0540_cl_s02_bw_knife_40_n03041632_28009.png
subject-02,1,541,0.82919716835022,elephant,elephant,bw,0541_cl_s02_bw_elephant_40_n02504458_11363.png
subject-02,1,542,0.619562149047852,oven,oven,bw,0542_cl_s02_bw_oven_40_n04111531_9702.png
subject-02,1,543,0.506833076477051,cat,cat,bw,0543_cl_s02_bw_cat_40_n02123159_6041.png
subject-02,1,544,0.638765096664429,elephant,elephant,bw,0544_cl_s02_bw_elephant_40_n02504458_4570.png
subject-02,1,545,1.13438391685486,bottle,bottle,cr,0545_cl_s02_cr_bottle_40_n04557648_2122.png
subject-02,1,546,0.790723085403442,cat,bird,bw,0546_cl_s02_bw_bird_40_n02002724_1459.png
subject-02,1,547,0.546501874923706,clock,clock,cr,0547_cl_s02_cr_clock_40_n02708093_444.png
subject-02,1,548,0.579916000366211,dog,dog,cr,0548_cl_s02_cr_dog_40_n02102318_19745.png
subject-02,1,549,0.880125045776367,bicycle,bicycle,cr,0549_cl_s02_cr_bicycle_40_n02835271_2068.png
subject-02,1,550,0.717849016189575,clock,clock,bw,0550_cl_s02_bw_clock_40_n02708093_4569.png
subject-02,1,551,0.551385879516602,keyboard,keyboard,bw,0551_cl_s02_bw_keyboard_40_n04505470_7312.png
subject-02,1,552,0.683245182037354,clock,clock,bw,0552_cl_s02_bw_clock_40_n02708093_394.png
subject-02,1,553,0.64303994178772,truck,truck,cr,0553_cl_s02_cr_truck_40_n04467665_11299.png
subject-02,1,554,0.778892993927002,truck,truck,bw,0554_cl_s02_bw_truck_40_n04467665_71126.png
subject-02,1,555,1.50001192092896,keyboard,bottle,cr,0555_cl_s02_cr_bottle_40_n03937543_3219.png
subject-02,1,556,0.766546010971069,knife,knife,cr,0556_cl_s02_cr_knife_40_n03041632_4279.png
subject-02,1,557,0.778203010559082,bicycle,bicycle,cr,0557_cl_s02_cr_bicycle_40_n02835271_5886.png
subject-02,1,558,0.782006025314331,cat,cat,bw,0558_cl_s02_bw_cat_40_n02123597_2219.png
subject-02,1,559,0.763994932174683,car,car,bw,0559_cl_s02_bw_car_40_n03100240_6479.png
subject-02,1,560,0.621721029281616,airplane,airplane,bw,0560_cl_s02_bw_airplane_40_n02690373_4195.png
subject-02,1,561,0.555402994155884,airplane,airplane,cr,0561_cl_s02_cr_airplane_40_n02690373_2629.png
subject-02,1,562,1.27522897720337,boat,bicycle,bw,0562_cl_s02_bw_bicycle_40_n02835271_9434.png
subject-02,1,563,0.711202144622803,car,car,bw,0563_cl_s02_bw_car_40_n03100240_8206.png
subject-02,1,564,0.689026117324829,bottle,bottle,cr,0564_cl_s02_cr_bottle_40_n04579145_7431.png
subject-02,1,565,0.774709939956665,dog,bear,cr,0565_cl_s02_cr_bear_40_n02134418_1253.png
subject-02,1,566,0.836524963378906,bear,bear,bw,0566_cl_s02_bw_bear_40_n02134084_3695.png
subject-02,1,567,0.504374980926514,chair,chair,cr,0567_cl_s02_cr_chair_40_n03376595_8228.png
subject-02,1,568,0.682597160339355,car,car,bw,0568_cl_s02_bw_car_40_n03100240_7013.png
subject-02,1,569,0.633831977844238,boat,boat,cr,0569_cl_s02_cr_boat_40_n03662601_27023.png
subject-02,1,570,0.905652046203613,truck,truck,bw,0570_cl_s02_bw_truck_40_n04467665_68331.png
subject-02,1,571,0.781680107116699,bird,bird,cr,0571_cl_s02_cr_bird_40_n02007558_19064.png
subject-02,1,572,0.793447017669678,bear,bear,bw,0572_cl_s02_bw_bear_40_n02133161_1360.png
subject-02,1,573,0.965165853500366,oven,oven,bw,0573_cl_s02_bw_oven_40_n04111531_8963.png
subject-02,1,574,0.53712010383606,cat,cat,bw,0574_cl_s02_bw_cat_40_n02123159_4353.png
subject-02,1,575,0.668874979019165,elephant,elephant,bw,0575_cl_s02_bw_elephant_40_n02504013_5503.png
subject-02,1,576,0.676444053649902,dog,dog,cr,0576_cl_s02_cr_dog_40_n02113624_9189.png
subject-02,1,577,0.722626924514771,car,car,bw,0577_cl_s02_bw_car_40_n03100240_19223.png
subject-02,1,578,0.602295875549316,chair,chair,cr,0578_cl_s02_cr_chair_40_n03376595_3169.png
subject-02,1,579,0.87204909324646,bear,bear,bw,0579_cl_s02_bw_bear_40_n02132136_4403.png
subject-02,1,580,0.607901811599731,bicycle,bicycle,cr,0580_cl_s02_cr_bicycle_40_n02835271_1426.png
subject-02,1,581,0.627790927886963,clock,clock,cr,0581_cl_s02_cr_clock_40_n03196217_1499.png
subject-02,1,582,0.807583093643188,truck,truck,cr,0582_cl_s02_cr_truck_40_n03417042_7458.png
subject-02,1,583,0.725643873214722,clock,clock,cr,0583_cl_s02_cr_clock_40_n04548280_6743.png
subject-02,1,584,0.67525315284729,boat,boat,bw,0584_cl_s02_bw_boat_40_n03662601_8709.png
subject-02,1,585,0.596997022628784,bicycle,bicycle,bw,0585_cl_s02_bw_bicycle_40_n03792782_5323.png
subject-02,1,586,0.954633951187134,oven,knife,bw,0586_cl_s02_bw_knife_40_n03041632_3063.png
subject-02,1,587,0.59500789642334,car,car,bw,0587_cl_s02_bw_car_40_n02814533_35863.png
subject-02,1,588,1.04281210899353,car,car,bw,0588_cl_s02_bw_car_40_n02814533_45312.png
subject-02,1,589,0.614267110824585,elephant,elephant,bw,0589_cl_s02_bw_elephant_40_n02504458_3714.png
subject-02,1,590,0.868170976638794,bottle,bottle,cr,0590_cl_s02_cr_bottle_40_n03937543_396.png
subject-02,1,591,0.685787916183472,airplane,airplane,bw,0591_cl_s02_bw_airplane_40_n02690373_2514.png
subject-02,1,592,1.01401615142822,dog,dog,bw,0592_cl_s02_bw_dog_40_n02105855_17596.png
subject-02,1,593,0.723529100418091,airplane,airplane,bw,0593_cl_s02_bw_airplane_40_n02690373_4727.png
subject-02,1,594,0.649672031402588,bicycle,bicycle,bw,0594_cl_s02_bw_bicycle_40_n02835271_6736.png
subject-02,1,595,0.915014982223511,truck,truck,bw,0595_cl_s02_bw_truck_40_n03417042_2056.png
subject-02,1,596,0.693039894104004,cat,cat,cr,0596_cl_s02_cr_cat_40_n02123045_6607.png
subject-02,1,597,0.538643836975098,cat,cat,cr,0597_cl_s02_cr_cat_40_n02124075_11039.png
subject-02,1,598,0.856328964233398,bear,bear,cr,0598_cl_s02_cr_bear_40_n02134084_1201.png
subject-02,1,599,0.602353096008301,keyboard,keyboard,cr,0599_cl_s02_cr_keyboard_40_n03085013_5622.png
subject-02,1,600,0.662138938903809,truck,truck,bw,0600_cl_s02_bw_truck_40_n04467665_22637.png
subject-02,1,601,0.724117994308472,elephant,elephant,bw,0601_cl_s02_bw_elephant_40_n02504013_2770.png
subject-02,1,602,0.652211904525757,car,car,cr,0602_cl_s02_cr_car_40_n02814533_57176.png
subject-02,1,603,0.831532001495361,bird,bird,bw,0603_cl_s02_bw_bird_40_n01843065_10565.png
subject-02,1,604,0.941420078277588,bird,bird,bw,0604_cl_s02_bw_bird_40_n01616318_1071.png
subject-02,1,605,0.953320026397705,elephant,elephant,bw,0605_cl_s02_bw_elephant_40_n02504458_1961.png
subject-02,1,606,0.771010160446167,bicycle,bicycle,bw,0606_cl_s02_bw_bicycle_40_n02835271_8529.png
subject-02,1,607,0.932862043380737,truck,truck,bw,0607_cl_s02_bw_truck_40_n03417042_19585.png
subject-02,1,608,0.840718030929565,bicycle,bicycle,cr,0608_cl_s02_cr_bicycle_40_n03792782_5864.png
subject-02,1,609,0.90244197845459,elephant,elephant,cr,0609_cl_s02_cr_elephant_40_n02504013_8497.png
subject-02,1,610,0.724273204803467,bird,bear,cr,0610_cl_s02_cr_bear_40_n02133161_4282.png
subject-02,1,611,0.705924034118652,knife,knife,cr,0611_cl_s02_cr_knife_40_n03041632_13478.png
subject-02,1,612,0.559966802597046,bottle,bottle,cr,0612_cl_s02_cr_bottle_40_n04579145_445.png
subject-02,1,613,0.637661933898926,bottle,bottle,cr,0613_cl_s02_cr_bottle_40_n03937543_4202.png
subject-02,1,614,0.525439977645874,airplane,airplane,bw,0614_cl_s02_bw_airplane_40_n02690373_2750.png
subject-02,1,615,0.679621934890747,elephant,elephant,bw,0615_cl_s02_bw_elephant_40_n02504458_5799.png
subject-02,1,616,0.611226797103882,bird,bird,cr,0616_cl_s02_cr_bird_40_n01558993_11456.png
subject-02,1,617,0.610890865325928,keyboard,clock,bw,0617_cl_s02_bw_clock_40_n03196217_711.png
subject-02,1,618,1.41267204284668,knife,chair,cr,0618_cl_s02_cr_chair_40_n03376595_3038.png
subject-02,1,619,0.742969989776611,bear,bear,bw,0619_cl_s02_bw_bear_40_n02132136_22313.png
subject-02,1,620,0.742571115493774,dog,dog,cr,0620_cl_s02_cr_dog_40_n02097130_456.png
subject-02,1,621,0.662377834320068,keyboard,keyboard,bw,0621_cl_s02_bw_keyboard_40_n03085013_24045.png
subject-02,1,622,0.746004104614258,bird,bird,bw,0622_cl_s02_bw_bird_40_n01795545_6290.png
subject-02,1,623,1.47183299064636,cat,bear,bw,0623_cl_s02_bw_bear_40_n02133161_1003.png
subject-02,1,624,0.477625846862793,cat,cat,cr,0624_cl_s02_cr_cat_40_n02124075_8351.png
subject-02,1,625,0.627460956573486,bear,bear,bw,0625_cl_s02_bw_bear_40_n02134084_742.png
subject-02,1,626,0.759247064590454,bird,bird,bw,0626_cl_s02_bw_bird_40_n01828970_5448.png
subject-02,1,627,0.601073980331421,bottle,bottle,cr,0627_cl_s02_cr_bottle_40_n03937543_1808.png
subject-02,1,628,1.25493001937866,clock,chair,cr,0628_cl_s02_cr_chair_40_n04429376_7089.png
subject-02,1,629,0.596996068954468,clock,clock,bw,0629_cl_s02_bw_clock_40_n02708093_391.png
subject-02,1,630,0.48645806312561,oven,oven,cr,0630_cl_s02_cr_oven_40_n04111531_4452.png
subject-02,1,631,0.846240997314453,truck,truck,cr,0631_cl_s02_cr_truck_40_n03417042_4218.png
subject-02,1,632,0.698046922683716,boat,boat,bw,0632_cl_s02_bw_boat_40_n02951358_7944.png
subject-02,1,633,0.767951011657715,bottle,bottle,bw,0633_cl_s02_bw_bottle_40_n03937543_4340.png
subject-02,1,634,0.619724035263062,oven,oven,bw,0634_cl_s02_bw_oven_40_n04111531_3955.png
subject-02,1,635,0.869587182998657,airplane,airplane,bw,0635_cl_s02_bw_airplane_40_n02690373_5909.png
subject-02,1,636,0.735262155532837,oven,knife,bw,0636_cl_s02_bw_knife_40_n03041632_32177.png
subject-02,1,637,1.49946999549866,bird,bird,cr,0637_cl_s02_cr_bird_40_n01833805_8584.png
subject-02,1,638,0.752936840057373,bird,bird,bw,0638_cl_s02_bw_bird_40_n02007558_5525.png
subject-02,1,639,1.00291204452515,knife,knife,cr,0639_cl_s02_cr_knife_40_n03041632_49570.png
subject-02,1,640,0.796597957611084,dog,dog,bw,0640_cl_s02_bw_dog_40_n02105162_5667.png
subject-02,1,641,0.602519035339355,keyboard,keyboard,bw,0641_cl_s02_bw_keyboard_40_n04505470_4202.png
subject-02,1,642,0.696144104003906,dog,dog,bw,0642_cl_s02_bw_dog_40_n02099712_1234.png
subject-02,1,643,0.593938827514648,cat,cat,bw,0643_cl_s02_bw_cat_40_n02123394_6598.png
subject-02,1,644,0.595873117446899,car,car,cr,0644_cl_s02_cr_car_40_n03100240_9086.png
subject-02,1,645,0.61978816986084,dog,dog,cr,0645_cl_s02_cr_dog_40_n02097658_652.png
subject-02,1,646,0.785527944564819,cat,cat,cr,0646_cl_s02_cr_cat_40_n02123045_9661.png
subject-02,1,647,0.687231063842773,knife,knife,bw,0647_cl_s02_bw_knife_40_n03041632_30553.png
subject-02,1,648,1.50001192092896,chair,chair,bw,0648_cl_s02_bw_chair_40_n04099969_4577.png
subject-02,1,649,0.544944047927856,clock,clock,cr,0649_cl_s02_cr_clock_40_n03196217_9736.png
subject-02,1,650,0.682729959487915,keyboard,keyboard,bw,0650_cl_s02_bw_keyboard_40_n03085013_19916.png
subject-02,1,651,0.710472822189331,elephant,elephant,bw,0651_cl_s02_bw_elephant_40_n02504013_9401.png
subject-02,1,652,0.748245000839233,truck,truck,cr,0652_cl_s02_cr_truck_40_n03796401_17318.png
subject-02,1,653,0.646182060241699,clock,clock,bw,0653_cl_s02_bw_clock_40_n03196217_5258.png
subject-02,1,654,0.599915981292725,chair,chair,bw,0654_cl_s02_bw_chair_40_n03376595_8140.png
subject-02,1,655,0.595674991607666,dog,dog,cr,0655_cl_s02_cr_dog_40_n02113624_3403.png
subject-02,1,656,0.625587940216064,clock,clock,cr,0656_cl_s02_cr_clock_40_n04548280_5889.png
subject-02,1,657,0.599431037902832,bear,bear,cr,0657_cl_s02_cr_bear_40_n02132136_8637.png
subject-02,1,658,0.753134965896606,knife,knife,cr,0658_cl_s02_cr_knife_40_n03041632_3717.png
subject-02,1,659,0.798887014389038,bicycle,bicycle,cr,0659_cl_s02_cr_bicycle_40_n03792782_3342.png
subject-02,1,660,0.806838989257812,chair,chair,bw,0660_cl_s02_bw_chair_40_n04099969_17412.png
subject-02,1,661,0.826610088348389,elephant,elephant,cr,0661_cl_s02_cr_elephant_40_n02504013_5014.png
subject-02,1,662,0.552490949630737,car,car,cr,0662_cl_s02_cr_car_40_n03100240_770.png
subject-02,1,663,0.588547945022583,oven,oven,bw,0663_cl_s02_bw_oven_40_n04111531_8193.png
subject-02,1,664,0.702049016952515,oven,oven,cr,0664_cl_s02_cr_oven_40_n04111531_15912.png
subject-02,1,665,0.61991810798645,bottle,bottle,cr,0665_cl_s02_cr_bottle_40_n02823428_5813.png
subject-02,1,666,0.897701025009155,oven,oven,cr,0666_cl_s02_cr_oven_40_n04111531_13479.png
subject-02,1,667,0.699465036392212,bottle,keyboard,cr,0667_cl_s02_cr_keyboard_40_n04505470_3089.png
subject-02,1,668,0.741266012191772,knife,airplane,bw,0668_cl_s02_bw_airplane_40_n02690373_1912.png
subject-02,1,669,1.32719707489014,car,car,bw,0669_cl_s02_bw_car_40_n02814533_12388.png
subject-02,1,670,0.692893981933594,clock,clock,bw,0670_cl_s02_bw_clock_40_n04548280_1202.png
subject-02,1,671,0.634703874588013,airplane,airplane,bw,0671_cl_s02_bw_airplane_40_n02690373_2800.png
subject-02,1,672,0.824424028396606,bear,bear,bw,0672_cl_s02_bw_bear_40_n02134418_2324.png
subject-02,1,673,0.612417221069336,cat,cat,bw,0673_cl_s02_bw_cat_40_n02124075_14425.png
subject-02,1,674,0.736155033111572,oven,oven,cr,0674_cl_s02_cr_oven_40_n04111531_11499.png
subject-02,1,675,0.683990001678467,boat,boat,cr,0675_cl_s02_cr_boat_40_n03344393_6226.png
subject-02,1,676,0.793914794921875,oven,oven,bw,0676_cl_s02_bw_oven_40_n04111531_14055.png
subject-02,1,677,0.947713136672974,oven,keyboard,bw,0677_cl_s02_bw_keyboard_40_n03085013_7613.png
subject-02,1,678,0.811541080474854,airplane,airplane,cr,0678_cl_s02_cr_airplane_40_n02690373_2648.png
subject-02,1,679,0.703139066696167,bicycle,bicycle,cr,0679_cl_s02_cr_bicycle_40_n02835271_8180.png
subject-02,1,680,0.673149108886719,clock,clock,cr,0680_cl_s02_cr_clock_40_n02708093_3595.png
subject-02,1,681,1.50005006790161,knife,knife,cr,0681_cl_s02_cr_knife_40_n03041632_4305.png
subject-02,1,682,0.928828001022339,boat,boat,cr,0682_cl_s02_cr_boat_40_n03344393_4496.png
subject-02,1,683,1.18041205406189,cat,bear,cr,0683_cl_s02_cr_bear_40_n02133161_1916.png
subject-02,1,684,0.560182094573975,cat,cat,cr,0684_cl_s02_cr_cat_40_n02124075_17464.png
subject-02,1,685,0.606070041656494,bird,bird,bw,0685_cl_s02_bw_bird_40_n01819313_111.png
subject-02,1,686,0.621983051300049,dog,dog,bw,0686_cl_s02_bw_dog_40_n02100583_2707.png
subject-02,1,687,0.801939964294434,bear,bear,bw,0687_cl_s02_bw_bear_40_n02132136_23248.png
subject-02,1,688,0.559638023376465,clock,clock,bw,0688_cl_s02_bw_clock_40_n02708093_8033.png
subject-02,1,689,1.42361688613892,airplane,airplane,bw,0689_cl_s02_bw_airplane_40_n02690373_1492.png
subject-02,1,690,0.817512035369873,keyboard,keyboard,cr,0690_cl_s02_cr_keyboard_40_n03085013_7576.png
subject-02,1,691,0.869073152542114,knife,knife,bw,0691_cl_s02_bw_knife_40_n03041632_100645.png
subject-02,1,692,0.785046100616455,elephant,elephant,cr,0692_cl_s02_cr_elephant_40_n02504458_1304.png
subject-02,1,693,0.820594072341919,bear,bear,cr,0693_cl_s02_cr_bear_40_n02133161_739.png
subject-02,1,694,0.862489938735962,dog,dog,cr,0694_cl_s02_cr_dog_40_n02097658_16.png
subject-02,1,695,0.626290798187256,bicycle,bicycle,bw,0695_cl_s02_bw_bicycle_40_n03792782_25799.png
subject-02,1,696,0.673976898193359,boat,boat,cr,0696_cl_s02_cr_boat_40_n03662601_28640.png
subject-02,1,697,1.25599193572998,knife,keyboard,cr,0697_cl_s02_cr_keyboard_40_n03085013_23561.png
subject-02,1,698,0.71155309677124,bird,bird,bw,0698_cl_s02_bw_bird_40_n02027492_9786.png
subject-02,1,699,0.743505954742432,bear,bear,bw,0699_cl_s02_bw_bear_40_n02132136_23853.png
subject-02,1,700,0.777259111404419,oven,oven,bw,0700_cl_s02_bw_oven_40_n04111531_8263.png
subject-02,1,701,0.673130989074707,oven,oven,bw,0701_cl_s02_bw_oven_40_n04111531_15852.png
subject-02,1,702,0.595029830932617,bird,bird,bw,0702_cl_s02_bw_bird_40_n01860187_210.png
subject-02,1,703,0.976893901824951,oven,knife,cr,0703_cl_s02_cr_knife_40_n03041632_14801.png
subject-02,1,704,0.502399921417236,cat,cat,cr,0704_cl_s02_cr_cat_40_n02123159_1339.png
subject-02,1,705,0.638429164886475,chair,chair,cr,0705_cl_s02_cr_chair_40_n03376595_1302.png
subject-02,1,706,1.00607204437256,boat,car,bw,0706_cl_s02_bw_car_40_n03100240_9471.png
subject-02,1,707,0.792097091674805,bird,bird,cr,0707_cl_s02_cr_bird_40_n01797886_3876.png
subject-02,1,708,0.541804075241089,oven,oven,cr,0708_cl_s02_cr_oven_40_n04111531_20028.png
subject-02,1,709,0.681591987609863,dog,dog,cr,0709_cl_s02_cr_dog_40_n02088466_1671.png
subject-02,1,710,0.743414163589478,bicycle,bicycle,bw,0710_cl_s02_bw_bicycle_40_n03792782_2960.png
subject-02,1,711,0.571185111999512,chair,chair,cr,0711_cl_s02_cr_chair_40_n04099969_4543.png
subject-02,1,712,0.651031017303467,truck,truck,cr,0712_cl_s02_cr_truck_40_n04467665_55848.png
subject-02,1,713,0.948980093002319,bottle,bottle,bw,0713_cl_s02_bw_bottle_40_n03983396_3173.png
subject-02,1,714,0.877098083496094,dog,dog,cr,0714_cl_s02_cr_dog_40_n02088466_6371.png
subject-02,1,715,0.618499040603638,bottle,bottle,cr,0715_cl_s02_cr_bottle_40_n03983396_4212.png
subject-02,1,716,0.77846884727478,knife,knife,cr,0716_cl_s02_cr_knife_40_n03041632_32292.png
subject-02,1,717,0.646119117736816,bottle,bottle,cr,0717_cl_s02_cr_bottle_40_n04557648_1856.png
subject-02,1,718,0.971893072128296,truck,truck,cr,0718_cl_s02_cr_truck_40_n03417042_9580.png
subject-02,1,719,0.613687992095947,bird,bird,cr,0719_cl_s02_cr_bird_40_n01558993_7366.png
subject-02,1,720,0.631424903869629,boat,boat,bw,0720_cl_s02_bw_boat_40_n03662601_3984.png
subject-02,1,721,0.572219133377075,boat,boat,cr,0721_cl_s02_cr_boat_40_n03344393_2480.png
subject-02,1,722,0.586098909378052,bottle,bottle,cr,0722_cl_s02_cr_bottle_40_n02823428_765.png
subject-02,1,723,0.671656847000122,car,boat,cr,0723_cl_s02_cr_boat_40_n02951358_10162.png
subject-02,1,724,0.613951921463013,clock,clock,bw,0724_cl_s02_bw_clock_40_n02708093_544.png
subject-02,1,725,0.863749027252197,oven,bottle,bw,0725_cl_s02_bw_bottle_40_n03983396_20329.png
subject-02,1,726,0.81733512878418,airplane,airplane,bw,0726_cl_s02_bw_airplane_40_n02690373_5184.png
subject-02,1,727,0.767108917236328,chair,chair,cr,0727_cl_s02_cr_chair_40_n02791124_4294.png
subject-02,1,728,0.703171968460083,truck,truck,bw,0728_cl_s02_bw_truck_40_n03417042_16871.png
subject-02,1,729,0.984753847122192,oven,bear,bw,0729_cl_s02_bw_bear_40_n02134418_2503.png
subject-02,1,730,0.728600978851318,car,car,bw,0730_cl_s02_bw_car_40_n04285008_4834.png
subject-02,1,731,0.854223012924194,oven,oven,cr,0731_cl_s02_cr_oven_40_n04111531_12080.png
subject-02,1,732,0.720473051071167,bicycle,bicycle,bw,0732_cl_s02_bw_bicycle_40_n03792782_13665.png
subject-02,1,733,0.995790958404541,dog,dog,cr,0733_cl_s02_cr_dog_40_n02093647_1818.png
subject-02,1,734,0.799674034118652,car,car,bw,0734_cl_s02_bw_car_40_n04285008_2750.png
subject-02,1,735,0.71978497505188,bear,bear,bw,0735_cl_s02_bw_bear_40_n02132136_18543.png
subject-02,1,736,1.01731204986572,chair,chair,bw,0736_cl_s02_bw_chair_40_n02791124_7324.png
subject-02,1,737,1.33310699462891,keyboard,knife,cr,0737_cl_s02_cr_knife_40_n03041632_7173.png
subject-02,1,738,0.793071985244751,cat,cat,cr,0738_cl_s02_cr_cat_40_n02125311_2959.png
subject-02,1,739,1.47703313827515,car,bicycle,bw,0739_cl_s02_bw_bicycle_40_n03792782_7388.png
subject-02,1,740,1.44298410415649,knife,knife,cr,0740_cl_s02_cr_knife_40_n03041632_9759.png
subject-02,1,741,0.63844108581543,boat,boat,bw,0741_cl_s02_bw_boat_40_n02951358_381.png
subject-02,1,742,0.664182901382446,dog,dog,cr,0742_cl_s02_cr_dog_40_n02110958_2175.png
subject-02,1,743,0.610006093978882,oven,oven,bw,0743_cl_s02_bw_oven_40_n04111531_3575.png
subject-02,1,744,0.555854082107544,clock,clock,bw,0744_cl_s02_bw_clock_40_n03196217_868.png
subject-02,1,745,0.841844797134399,elephant,elephant,bw,0745_cl_s02_bw_elephant_40_n02504458_3648.png
subject-02,1,746,0.649539947509766,keyboard,keyboard,cr,0746_cl_s02_cr_keyboard_40_n03085013_17455.png
subject-02,1,747,0.913329839706421,keyboard,keyboard,bw,0747_cl_s02_bw_keyboard_40_n03085013_19197.png
subject-02,1,748,0.833064079284668,bear,bear,bw,0748_cl_s02_bw_bear_40_n02134418_4157.png
subject-02,1,749,0.712831020355225,keyboard,keyboard,cr,0749_cl_s02_cr_keyboard_40_n04505470_213.png
subject-02,1,750,0.73708701133728,clock,clock,bw,0750_cl_s02_bw_clock_40_n04548280_2411.png
subject-02,1,751,0.656508922576904,keyboard,keyboard,cr,0751_cl_s02_cr_keyboard_40_n04505470_1518.png
subject-02,1,752,0.948471069335938,oven,oven,bw,0752_cl_s02_bw_oven_40_n04111531_17922.png
subject-02,1,753,0.776158094406128,truck,truck,bw,0753_cl_s02_bw_truck_40_n03796401_13490.png
subject-02,1,754,0.739841222763062,oven,oven,bw,0754_cl_s02_bw_oven_40_n04111531_14559.png
subject-02,1,755,0.583783149719238,cat,cat,bw,0755_cl_s02_bw_cat_40_n02123597_11981.png
subject-02,1,756,0.683754920959473,bird,bird,bw,0756_cl_s02_bw_bird_40_n01819313_146.png
subject-02,1,757,0.715318918228149,boat,boat,bw,0757_cl_s02_bw_boat_40_n03662601_6340.png
subject-02,1,758,0.833263874053955,boat,clock,bw,0758_cl_s02_bw_clock_40_n02708093_6655.png
subject-02,1,759,0.59942102432251,airplane,airplane,cr,0759_cl_s02_cr_airplane_40_n02690373_1235.png
subject-02,1,760,0.820822954177856,oven,oven,cr,0760_cl_s02_cr_oven_40_n04111531_6080.png
subject-02,1,761,0.546696901321411,boat,boat,bw,0761_cl_s02_bw_boat_40_n04273569_10021.png
subject-02,1,762,0.576489925384521,keyboard,keyboard,bw,0762_cl_s02_bw_keyboard_40_n03085013_3264.png
subject-02,1,763,0.930263996124268,dog,dog,cr,0763_cl_s02_cr_dog_40_n02097130_5045.png
subject-02,1,764,0.87811017036438,truck,truck,cr,0764_cl_s02_cr_truck_40_n03417042_6213.png
subject-02,1,765,0.645811796188354,knife,knife,cr,0765_cl_s02_cr_knife_40_n03041632_45090.png
subject-02,1,766,0.719651937484741,oven,oven,bw,0766_cl_s02_bw_oven_40_n04111531_12830.png
subject-02,1,767,0.781635999679565,truck,truck,bw,0767_cl_s02_bw_truck_40_n03796401_8099.png
subject-02,1,768,0.909174919128418,car,car,cr,0768_cl_s02_cr_car_40_n02814533_7769.png
subject-02,1,769,0.807078838348389,oven,oven,bw,0769_cl_s02_bw_oven_40_n04111531_9322.png
subject-02,1,770,0.847429037094116,dog,dog,bw,0770_cl_s02_bw_dog_40_n02108915_4936.png
subject-02,1,771,0.716973066329956,bicycle,bicycle,bw,0771_cl_s02_bw_bicycle_40_n02835271_10813.png
subject-02,1,772,0.722881078720093,truck,truck,bw,0772_cl_s02_bw_truck_40_n04467665_70308.png
subject-02,1,773,0.786406993865967,bear,bear,cr,0773_cl_s02_cr_bear_40_n02133161_1362.png
subject-02,1,774,0.592175960540771,cat,cat,bw,0774_cl_s02_bw_cat_40_n02124075_11252.png
subject-02,1,775,0.537989139556885,oven,oven,bw,0775_cl_s02_bw_oven_40_n04111531_741.png
subject-02,1,776,0.653796911239624,elephant,elephant,cr,0776_cl_s02_cr_elephant_40_n02504013_4523.png
subject-02,1,777,0.661664962768555,dog,dog,bw,0777_cl_s02_bw_dog_40_n02099712_7604.png
subject-02,1,778,0.569775819778442,clock,clock,cr,0778_cl_s02_cr_clock_40_n04548280_5237.png
subject-02,1,779,0.851392984390259,keyboard,keyboard,cr,0779_cl_s02_cr_keyboard_40_n04505470_4594.png
subject-02,1,780,0.687112092971802,airplane,airplane,cr,0780_cl_s02_cr_airplane_40_n02690373_8231.png
subject-02,1,781,0.756870031356812,oven,oven,bw,0781_cl_s02_bw_oven_40_n04111531_4939.png
subject-02,1,782,0.536817073822021,boat,boat,cr,0782_cl_s02_cr_boat_40_n03662601_873.png
subject-02,1,783,0.660873889923096,bottle,bottle,cr,0783_cl_s02_cr_bottle_40_n03983396_4132.png
subject-02,1,784,0.544790983200073,boat,boat,bw,0784_cl_s02_bw_boat_40_n02951358_32698.png
subject-02,1,785,0.500216007232666,oven,oven,cr,0785_cl_s02_cr_oven_40_n04111531_14126.png
subject-02,1,786,0.617935180664062,bottle,bottle,bw,0786_cl_s02_bw_bottle_40_n02823428_6830.png
subject-02,1,787,0.569849014282227,cat,cat,bw,0787_cl_s02_bw_cat_40_n02123045_8336.png
subject-02,1,788,0.741394996643066,bottle,bottle,cr,0788_cl_s02_cr_bottle_40_n04557648_4302.png
subject-02,1,789,0.773234128952026,keyboard,keyboard,bw,0789_cl_s02_bw_keyboard_40_n04505470_6623.png
subject-02,1,790,0.615266084671021,knife,knife,bw,0790_cl_s02_bw_knife_40_n03041632_3101.png
subject-02,1,791,0.482922792434692,cat,cat,bw,0791_cl_s02_bw_cat_40_n02123159_7854.png
subject-02,1,792,0.928762912750244,bird,bird,cr,0792_cl_s02_cr_bird_40_n01592084_3341.png
subject-02,1,793,0.956565141677856,oven,chair,cr,0793_cl_s02_cr_chair_40_n04429376_21081.png
subject-02,1,794,0.576433181762695,bear,bear,cr,0794_cl_s02_cr_bear_40_n02134084_16163.png
subject-02,1,795,1.06031703948975,bear,bear,bw,0795_cl_s02_bw_bear_40_n02132136_6890.png
subject-02,1,796,0.540203094482422,bottle,bottle,cr,0796_cl_s02_cr_bottle_40_n03983396_15260.png
subject-02,1,797,0.640285015106201,bird,bird,cr,0797_cl_s02_cr_bird_40_n01829413_122.png
subject-02,1,798,0.857627153396606,chair,chair,bw,0798_cl_s02_bw_chair_40_n04429376_1954.png
subject-02,1,799,0.59743595123291,bear,bear,cr,0799_cl_s02_cr_bear_40_n02133161_575.png
subject-02,1,800,0.653185129165649,elephant,elephant,bw,0800_cl_s02_bw_elephant_40_n02504013_4071.png
subject-02,1,801,0.58899998664856,bottle,bottle,bw,0801_cl_s02_bw_bottle_40_n04557648_2523.png
subject-02,1,802,0.516820907592773,oven,oven,bw,0802_cl_s02_bw_oven_40_n04111531_14959.png
subject-02,1,803,0.816395998001099,bird,bird,bw,0803_cl_s02_bw_bird_40_n01592084_5361.png
subject-02,1,804,0.798328876495361,clock,clock,bw,0804_cl_s02_bw_clock_40_n03196217_6477.png
subject-02,1,805,0.647976875305176,bird,bird,cr,0805_cl_s02_cr_bird_40_n01860187_2825.png
subject-02,1,806,0.959842920303345,car,car,bw,0806_cl_s02_bw_car_40_n04285008_4749.png
subject-02,1,807,0.787852048873901,bottle,bottle,bw,0807_cl_s02_bw_bottle_40_n04557648_9898.png
subject-02,1,808,0.537768840789795,keyboard,keyboard,cr,0808_cl_s02_cr_keyboard_40_n03085013_30335.png
subject-02,1,809,0.717313051223755,keyboard,keyboard,cr,0809_cl_s02_cr_keyboard_40_n03085013_3795.png
subject-02,1,810,0.475372076034546,boat,boat,cr,0810_cl_s02_cr_boat_40_n02951358_5355.png
subject-02,1,811,0.56716513633728,clock,clock,bw,0811_cl_s02_bw_clock_40_n04548280_21263.png
subject-02,1,812,0.596812963485718,car,car,cr,0812_cl_s02_cr_car_40_n02814533_51190.png
subject-02,1,813,0.60487699508667,cat,cat,bw,0813_cl_s02_bw_cat_40_n02123394_6698.png
subject-02,1,814,0.650750875473022,chair,chair,cr,0814_cl_s02_cr_chair_40_n02791124_2796.png
subject-02,1,815,0.530132055282593,boat,boat,bw,0815_cl_s02_bw_boat_40_n03662601_8283.png
subject-02,1,816,0.684096813201904,bear,bear,bw,0816_cl_s02_bw_bear_40_n02133161_13267.png
subject-02,1,817,0.554283142089844,bird,bird,cr,0817_cl_s02_cr_bird_40_n02028035_12542.png
subject-02,1,818,0.637826919555664,chair,chair,bw,0818_cl_s02_bw_chair_40_n03376595_1766.png
subject-02,1,819,0.549851179122925,boat,boat,cr,0819_cl_s02_cr_boat_40_n03344393_3337.png
subject-02,1,820,0.591313123703003,truck,truck,cr,0820_cl_s02_cr_truck_40_n03417042_27587.png
subject-02,1,821,0.657228946685791,car,car,cr,0821_cl_s02_cr_car_40_n02814533_27983.png
subject-02,1,822,0.557235956192017,airplane,airplane,cr,0822_cl_s02_cr_airplane_40_n02690373_6543.png
subject-02,1,823,1.04881596565247,car,car,cr,0823_cl_s02_cr_car_40_n03100240_7737.png
subject-02,1,824,0.620746850967407,clock,clock,cr,0824_cl_s02_cr_clock_40_n04548280_2177.png
subject-02,1,825,0.630527973175049,airplane,airplane,bw,0825_cl_s02_bw_airplane_40_n02690373_15966.png
subject-02,1,826,1.17239189147949,bottle,bottle,bw,0826_cl_s02_bw_bottle_40_n03937543_5088.png
subject-02,1,827,0.771944999694824,bear,bear,bw,0827_cl_s02_bw_bear_40_n02134418_6123.png
subject-02,1,828,0.629785060882568,truck,truck,cr,0828_cl_s02_cr_truck_40_n04467665_22838.png
subject-02,1,829,0.719650030136108,boat,boat,bw,0829_cl_s02_bw_boat_40_n03344393_10284.png
subject-02,1,830,0.657502174377441,keyboard,keyboard,bw,0830_cl_s02_bw_keyboard_40_n03085013_3632.png
subject-02,1,831,0.499194860458374,boat,boat,bw,0831_cl_s02_bw_boat_40_n02951358_30020.png
subject-02,1,832,0.537132024765015,car,car,cr,0832_cl_s02_cr_car_40_n02814533_76817.png
subject-02,1,833,0.533049821853638,keyboard,keyboard,bw,0833_cl_s02_bw_keyboard_40_n04505470_4363.png
subject-02,1,834,0.704696893692017,truck,boat,cr,0834_cl_s02_cr_boat_40_n03662601_24852.png
subject-02,1,835,0.510642051696777,boat,boat,bw,0835_cl_s02_bw_boat_40_n03344393_5296.png
subject-02,1,836,0.546225070953369,clock,clock,bw,0836_cl_s02_bw_clock_40_n04548280_8990.png
subject-02,1,837,1.47606515884399,boat,elephant,bw,0837_cl_s02_bw_elephant_40_n02504458_4908.png
subject-02,1,838,0.713879108428955,airplane,airplane,cr,0838_cl_s02_cr_airplane_40_n02690373_8650.png
subject-02,1,839,0.899995088577271,truck,truck,cr,0839_cl_s02_cr_truck_40_n03796401_17616.png
subject-02,1,840,0.77344012260437,dog,dog,bw,0840_cl_s02_bw_dog_40_n02090721_6440.png
subject-02,1,841,0.893450021743774,dog,dog,cr,0841_cl_s02_cr_dog_40_n02097209_1491.png
subject-02,1,842,0.745229959487915,elephant,elephant,cr,0842_cl_s02_cr_elephant_40_n02504013_3599.png
subject-02,1,843,0.639004945755005,oven,oven,cr,0843_cl_s02_cr_oven_40_n04111531_6412.png
subject-02,1,844,0.830862045288086,dog,bear,bw,0844_cl_s02_bw_bear_40_n02132136_1644.png
subject-02,1,845,1.11075401306152,bottle,bottle,bw,0845_cl_s02_bw_bottle_40_n04579145_5921.png
subject-02,1,846,0.522372961044312,boat,boat,cr,0846_cl_s02_cr_boat_40_n04273569_111.png
subject-02,1,847,0.794219017028809,bottle,bottle,bw,0847_cl_s02_bw_bottle_40_n04557648_26823.png
subject-02,1,848,0.654477119445801,chair,chair,cr,0848_cl_s02_cr_chair_40_n03376595_6691.png
subject-02,1,849,1.19223093986511,chair,knife,bw,0849_cl_s02_bw_knife_40_n03041632_33326.png
subject-02,1,850,0.693841934204102,bird,bird,cr,0850_cl_s02_cr_bird_40_n01558993_3939.png
subject-02,1,851,0.51596212387085,clock,clock,cr,0851_cl_s02_cr_clock_40_n02708093_3385.png
subject-02,1,852,0.525743007659912,cat,cat,bw,0852_cl_s02_bw_cat_40_n02123045_569.png
subject-02,1,853,0.585163116455078,bird,bird,bw,0853_cl_s02_bw_bird_40_n01560419_5714.png
subject-02,1,854,0.912883043289185,clock,clock,bw,0854_cl_s02_bw_clock_40_n03196217_243.png
subject-02,1,855,0.608752965927124,bicycle,bicycle,bw,0855_cl_s02_bw_bicycle_40_n03792782_710.png
subject-02,1,856,0.982592105865479,airplane,airplane,bw,0856_cl_s02_bw_airplane_40_n02690373_17130.png
subject-02,1,857,0.630357980728149,airplane,airplane,bw,0857_cl_s02_bw_airplane_40_n02690373_3090.png
subject-02,1,858,0.764117956161499,boat,boat,cr,0858_cl_s02_cr_boat_40_n04273569_4324.png
subject-02,1,859,0.792361974716187,boat,boat,bw,0859_cl_s02_bw_boat_40_n02951358_4485.png
subject-02,1,860,0.563750982284546,chair,chair,cr,0860_cl_s02_cr_chair_40_n03376595_6704.png
subject-02,1,861,0.568004846572876,car,car,bw,0861_cl_s02_bw_car_40_n03100240_2583.png
subject-02,1,862,0.647534132003784,knife,knife,bw,0862_cl_s02_bw_knife_40_n03041632_16172.png
subject-02,1,863,1.13319492340088,bird,elephant,bw,0863_cl_s02_bw_elephant_40_n02504013_1103.png
subject-02,1,864,0.85918116569519,bottle,bottle,bw,0864_cl_s02_bw_bottle_40_n02823428_5214.png
subject-02,1,865,0.659049034118652,chair,chair,bw,0865_cl_s02_bw_chair_40_n04099969_22572.png
subject-02,1,866,0.630735874176025,boat,boat,bw,0866_cl_s02_bw_boat_40_n04273569_4044.png
subject-02,1,867,0.520462989807129,cat,cat,bw,0867_cl_s02_bw_cat_40_n02123045_6773.png
subject-02,1,868,0.902284145355225,elephant,elephant,bw,0868_cl_s02_bw_elephant_40_n02504013_1953.png
subject-02,1,869,0.862251043319702,dog,dog,bw,0869_cl_s02_bw_dog_40_n02092002_10760.png
subject-02,1,870,0.705873012542725,boat,boat,cr,0870_cl_s02_cr_boat_40_n02951358_8456.png
subject-02,1,871,0.607809066772461,oven,oven,cr,0871_cl_s02_cr_oven_40_n04111531_14753.png
subject-02,1,872,0.607612133026123,bicycle,bicycle,cr,0872_cl_s02_cr_bicycle_40_n02835271_17914.png
subject-02,1,873,0.573307991027832,cat,cat,cr,0873_cl_s02_cr_cat_40_n02123159_10952.png
subject-02,1,874,0.853291988372803,boat,bear,cr,0874_cl_s02_cr_bear_40_n02134418_1063.png
subject-02,1,875,0.745139122009277,airplane,airplane,cr,0875_cl_s02_cr_airplane_40_n02690373_2293.png
subject-02,1,876,1.41470003128052,chair,bottle,cr,0876_cl_s02_cr_bottle_40_n04591713_2899.png
subject-02,1,877,0.806697845458984,chair,chair,cr,0877_cl_s02_cr_chair_40_n02791124_7031.png
subject-02,1,878,0.938439130783081,knife,knife,bw,0878_cl_s02_bw_knife_40_n03041632_4214.png
subject-02,1,879,0.708353996276855,bear,bear,cr,0879_cl_s02_cr_bear_40_n02134084_4490.png
subject-02,1,880,0.602044105529785,chair,chair,cr,0880_cl_s02_cr_chair_40_n04429376_7788.png
subject-02,1,881,0.683274030685425,chair,chair,bw,0881_cl_s02_bw_chair_40_n02791124_3926.png
subject-02,1,882,0.548817873001099,dog,dog,cr,0882_cl_s02_cr_dog_40_n02093647_4091.png
subject-02,1,883,0.780516147613525,chair,knife,cr,0883_cl_s02_cr_knife_40_n03041632_27929.png
subject-02,1,884,0.632398843765259,knife,knife,bw,0884_cl_s02_bw_knife_40_n03041632_17349.png
subject-02,1,885,0.542193174362183,boat,boat,cr,0885_cl_s02_cr_boat_40_n02951358_34003.png
subject-02,1,886,0.586030006408691,car,car,cr,0886_cl_s02_cr_car_40_n04285008_1085.png
subject-02,1,887,0.555889844894409,cat,cat,cr,0887_cl_s02_cr_cat_40_n02124075_3533.png
subject-02,1,888,0.508147001266479,boat,boat,cr,0888_cl_s02_cr_boat_40_n03344393_3355.png
subject-02,1,889,0.639451026916504,bird,bird,bw,0889_cl_s02_bw_bird_40_n01531178_10905.png
subject-02,1,890,0.625265836715698,bicycle,bicycle,cr,0890_cl_s02_cr_bicycle_40_n02835271_6563.png
subject-02,1,891,0.599142789840698,chair,chair,bw,0891_cl_s02_bw_chair_40_n04099969_1775.png
subject-02,1,892,0.846989154815674,knife,knife,cr,0892_cl_s02_cr_knife_40_n03041632_4708.png
subject-02,1,893,0.734657049179077,bottle,bottle,bw,0893_cl_s02_bw_bottle_40_n04591713_3896.png
subject-02,1,894,0.686805009841919,clock,clock,cr,0894_cl_s02_cr_clock_40_n04548280_7816.png
subject-02,1,895,0.628607988357544,chair,chair,bw,0895_cl_s02_bw_chair_40_n02791124_6077.png
subject-02,1,896,0.712124824523926,bottle,bottle,cr,0896_cl_s02_cr_bottle_40_n04560804_10184.png
subject-02,1,897,1.32011795043945,bird,bird,bw,0897_cl_s02_bw_bird_40_n02011460_5075.png
subject-02,1,898,0.831830978393555,dog,dog,bw,0898_cl_s02_bw_dog_40_n02099601_7304.png
subject-02,1,899,0.549463033676147,cat,cat,bw,0899_cl_s02_bw_cat_40_n02123045_1787.png
subject-02,1,900,0.741237163543701,elephant,elephant,bw,0900_cl_s02_bw_elephant_40_n02504013_1060.png
subject-02,1,901,0.771274089813232,truck,truck,cr,0901_cl_s02_cr_truck_40_n03796401_14203.png
subject-02,1,902,0.674962997436523,keyboard,keyboard,cr,0902_cl_s02_cr_keyboard_40_n03085013_20078.png
subject-02,1,903,0.662935018539429,keyboard,keyboard,cr,0903_cl_s02_cr_keyboard_40_n03085013_17305.png
subject-02,1,904,0.682636976242065,dog,dog,cr,0904_cl_s02_cr_dog_40_n02105641_4701.png
subject-02,1,905,0.860466003417969,bottle,bottle,cr,0905_cl_s02_cr_bottle_40_n03937543_5322.png
subject-02,1,906,1.2321879863739,bottle,knife,cr,0906_cl_s02_cr_knife_40_n03041632_90125.png
subject-02,1,907,0.666188955307007,bicycle,bicycle,cr,0907_cl_s02_cr_bicycle_40_n03792782_51414.png
subject-02,1,908,0.994054794311523,bicycle,bicycle,cr,0908_cl_s02_cr_bicycle_40_n02835271_19400.png
subject-02,1,909,0.621507883071899,bicycle,bicycle,cr,0909_cl_s02_cr_bicycle_40_n03792782_11115.png
subject-02,1,910,0.827670097351074,bear,bear,bw,0910_cl_s02_bw_bear_40_n02133161_12187.png
subject-02,1,911,0.975767135620117,bird,bird,bw,0911_cl_s02_bw_bird_40_n01833805_28946.png
subject-02,1,912,0.779309988021851,dog,dog,cr,0912_cl_s02_cr_dog_40_n02093647_2890.png
subject-02,1,913,0.605026006698608,clock,clock,cr,0913_cl_s02_cr_clock_40_n03196217_6293.png
subject-02,1,914,0.656570911407471,airplane,airplane,cr,0914_cl_s02_cr_airplane_40_n02690373_9086.png
subject-02,1,915,0.620465993881226,chair,chair,cr,0915_cl_s02_cr_chair_40_n02791124_1239.png
subject-02,1,916,0.596644878387451,airplane,airplane,cr,0916_cl_s02_cr_airplane_40_n02690373_4695.png
subject-02,1,917,0.762189865112305,dog,dog,cr,0917_cl_s02_cr_dog_40_n02090622_11748.png
subject-02,1,918,0.563891172409058,cat,cat,cr,0918_cl_s02_cr_cat_40_n02125311_28254.png
subject-02,1,919,0.641880035400391,bear,bear,bw,0919_cl_s02_bw_bear_40_n02134418_12628.png
subject-02,1,920,0.765759944915771,knife,knife,bw,0920_cl_s02_bw_knife_40_n03041632_11327.png
subject-02,1,921,0.639277935028076,car,car,cr,0921_cl_s02_cr_car_40_n03100240_5121.png
subject-02,1,922,0.749362945556641,car,car,bw,0922_cl_s02_bw_car_40_n02814533_45935.png
subject-02,1,923,0.828909158706665,truck,truck,bw,0923_cl_s02_bw_truck_40_n03796401_713.png
subject-02,1,924,0.764703035354614,dog,dog,cr,0924_cl_s02_cr_dog_40_n02105505_4069.png
subject-02,1,925,1.02507901191711,car,car,cr,0925_cl_s02_cr_car_40_n04285008_10901.png
subject-02,1,926,0.962639808654785,bird,bird,bw,0926_cl_s02_bw_bird_40_n02025239_7746.png
subject-02,1,927,0.848645210266113,clock,chair,bw,0927_cl_s02_bw_chair_40_n04429376_14170.png
subject-02,1,928,0.840211868286133,car,car,cr,0928_cl_s02_cr_car_40_n02814533_72213.png
subject-02,1,929,0.847849130630493,oven,clock,cr,0929_cl_s02_cr_clock_40_n04548280_4637.png
subject-02,1,930,0.700055122375488,bicycle,bicycle,cr,0930_cl_s02_cr_bicycle_40_n02835271_2753.png
subject-02,1,931,0.593655109405518,boat,boat,bw,0931_cl_s02_bw_boat_40_n04612504_26666.png
subject-02,1,932,0.685364007949829,dog,dog,cr,0932_cl_s02_cr_dog_40_n02091635_6519.png
subject-02,1,933,0.591230869293213,chair,chair,bw,0933_cl_s02_bw_chair_40_n02791124_14.png
subject-02,1,934,0.629365921020508,chair,chair,bw,0934_cl_s02_bw_chair_40_n04099969_8509.png
subject-02,1,935,0.582935810089111,oven,oven,bw,0935_cl_s02_bw_oven_40_n04111531_20359.png
subject-02,1,936,0.590907096862793,keyboard,keyboard,cr,0936_cl_s02_cr_keyboard_40_n03085013_35084.png
subject-02,1,937,1.0066249370575,keyboard,knife,cr,0937_cl_s02_cr_knife_40_n03041632_32350.png
subject-02,1,938,0.996285915374756,airplane,airplane,bw,0938_cl_s02_bw_airplane_40_n02690373_4107.png
subject-02,1,939,0.587961196899414,car,car,cr,0939_cl_s02_cr_car_40_n04285008_953.png
subject-02,1,940,0.844135046005249,dog,dog,bw,0940_cl_s02_bw_dog_40_n02105056_15484.png
subject-02,1,941,0.619942188262939,oven,oven,bw,0941_cl_s02_bw_oven_40_n04111531_5904.png
subject-02,1,942,0.579652070999146,clock,clock,bw,0942_cl_s02_bw_clock_40_n04548280_7211.png
subject-02,1,943,0.735467910766602,chair,chair,bw,0943_cl_s02_bw_chair_40_n04429376_27560.png
subject-02,1,944,1.15694189071655,chair,knife,cr,0944_cl_s02_cr_knife_40_n03041632_99875.png
subject-02,1,945,0.607000112533569,oven,oven,bw,0945_cl_s02_bw_oven_40_n04111531_9762.png
subject-02,1,946,0.424685955047607,cat,cat,bw,0946_cl_s02_bw_cat_40_n02123045_12762.png
subject-02,1,947,0.846492052078247,bicycle,bicycle,cr,0947_cl_s02_cr_bicycle_40_n02835271_17509.png
subject-02,1,948,0.632585048675537,elephant,elephant,bw,0948_cl_s02_bw_elephant_40_n02504458_10344.png
subject-02,1,949,0.962226867675781,bear,bear,bw,0949_cl_s02_bw_bear_40_n02132136_2463.png
subject-02,1,950,0.630357027053833,cat,cat,cr,0950_cl_s02_cr_cat_40_n02125311_6429.png
subject-02,1,951,0.60974907875061,keyboard,keyboard,cr,0951_cl_s02_cr_keyboard_40_n04505470_7161.png
subject-02,1,952,0.851390838623047,car,car,cr,0952_cl_s02_cr_car_40_n04285008_713.png
subject-02,1,953,0.68134880065918,airplane,airplane,cr,0953_cl_s02_cr_airplane_40_n02690373_1233.png
subject-02,1,954,0.697162866592407,chair,chair,cr,0954_cl_s02_cr_chair_40_n04099969_17727.png
subject-02,1,955,0.612856149673462,knife,knife,cr,0955_cl_s02_cr_knife_40_n03041632_32048.png
subject-02,1,956,0.818862915039062,bicycle,bicycle,bw,0956_cl_s02_bw_bicycle_40_n03792782_4102.png
subject-02,1,957,0.666513919830322,car,car,bw,0957_cl_s02_bw_car_40_n02814533_10557.png
subject-02,1,958,0.878388166427612,bear,bear,cr,0958_cl_s02_cr_bear_40_n02134084_13339.png
subject-02,1,959,0.976253032684326,bear,bear,cr,0959_cl_s02_cr_bear_40_n02134418_1351.png
subject-02,1,960,1.21002006530762,chair,chair,bw,0960_cl_s02_bw_chair_40_n02791124_960.png
subject-02,1,961,0.859910011291504,bear,bear,cr,0961_cl_s02_cr_bear_40_n02134084_868.png
subject-02,1,962,0.774021148681641,bear,bear,bw,0962_cl_s02_bw_bear_40_n02134084_1009.png
subject-02,1,963,0.565581083297729,bear,bear,cr,0963_cl_s02_cr_bear_40_n02132136_10060.png
subject-02,1,964,0.623408794403076,cat,cat,cr,0964_cl_s02_cr_cat_40_n02123159_2317.png
subject-02,1,965,0.639610052108765,boat,boat,cr,0965_cl_s02_cr_boat_40_n03344393_9732.png
subject-02,1,966,0.576820135116577,oven,truck,bw,0966_cl_s02_bw_truck_40_n03417042_3039.png
subject-02,1,967,0.692809104919434,truck,truck,cr,0967_cl_s02_cr_truck_40_n03796401_27184.png
subject-02,1,968,0.650675058364868,bird,bird,bw,0968_cl_s02_bw_bird_40_n01601694_13054.png
subject-02,1,969,0.584311008453369,keyboard,keyboard,cr,0969_cl_s02_cr_keyboard_40_n03085013_19618.png
subject-02,1,970,0.740645885467529,elephant,elephant,cr,0970_cl_s02_cr_elephant_40_n02504458_6185.png
subject-02,1,971,0.828042030334473,knife,knife,bw,0971_cl_s02_bw_knife_40_n03041632_10109.png
subject-02,1,972,0.689879894256592,bottle,bottle,cr,0972_cl_s02_cr_bottle_40_n03937543_1231.png
subject-02,1,973,0.697743892669678,airplane,airplane,bw,0973_cl_s02_bw_airplane_40_n02690373_18936.png
subject-02,1,974,0.609817981719971,boat,boat,cr,0974_cl_s02_cr_boat_40_n03344393_9818.png
subject-02,1,975,0.88324499130249,dog,dog,bw,0975_cl_s02_bw_dog_40_n02099601_8005.png
subject-02,1,976,0.596997022628784,boat,boat,cr,0976_cl_s02_cr_boat_40_n03662601_4437.png
subject-02,1,977,0.754873991012573,keyboard,keyboard,bw,0977_cl_s02_bw_keyboard_40_n03085013_7440.png
subject-02,1,978,0.611076831817627,elephant,elephant,cr,0978_cl_s02_cr_elephant_40_n02504013_19831.png
subject-02,1,979,0.752660036087036,airplane,airplane,cr,0979_cl_s02_cr_airplane_40_n02690373_303.png
subject-02,1,980,0.924155950546265,knife,knife,bw,0980_cl_s02_bw_knife_40_n03041632_4808.png
subject-02,1,981,0.706525087356567,bear,bear,bw,0981_cl_s02_bw_bear_40_n02134418_496.png
subject-02,1,982,0.604063034057617,bird,bird,cr,0982_cl_s02_cr_bird_40_n01855672_5670.png
subject-02,1,983,0.668050050735474,elephant,elephant,cr,0983_cl_s02_cr_elephant_40_n02504013_13560.png
subject-02,1,984,0.49343204498291,boat,boat,bw,0984_cl_s02_bw_boat_40_n03344393_5322.png
subject-02,1,985,0.965327978134155,clock,clock,cr,0985_cl_s02_cr_clock_40_n02708093_1559.png
subject-02,1,986,0.581070899963379,bottle,bottle,bw,0986_cl_s02_bw_bottle_40_n04560804_10989.png
subject-02,1,987,0.953315019607544,elephant,elephant,bw,0987_cl_s02_bw_elephant_40_n02504458_4711.png
subject-02,1,988,0.894690036773682,knife,knife,bw,0988_cl_s02_bw_knife_40_n03041632_27575.png
subject-02,1,989,0.764549970626831,bear,bear,cr,0989_cl_s02_cr_bear_40_n02134084_5822.png
subject-02,1,990,0.630576848983765,cat,dog,bw,0990_cl_s02_bw_dog_40_n02110958_5624.png
subject-02,1,991,0.936522960662842,dog,dog,bw,0991_cl_s02_bw_dog_40_n02105505_2121.png
subject-02,1,992,0.536006927490234,oven,oven,bw,0992_cl_s02_bw_oven_40_n04111531_4407.png
subject-02,1,993,1.45785593986511,chair,cat,bw,0993_cl_s02_bw_cat_40_n02123597_1544.png
subject-02,1,994,1.33766198158264,truck,truck,bw,0994_cl_s02_bw_truck_40_n04467665_22573.png
subject-02,1,995,0.545593976974487,elephant,elephant,cr,0995_cl_s02_cr_elephant_40_n02504458_481.png
subject-02,1,996,0.66729998588562,bottle,bottle,cr,0996_cl_s02_cr_bottle_40_n03937543_2469.png
subject-02,1,997,1.15348696708679,chair,car,bw,0997_cl_s02_bw_car_40_n02814533_14335.png
subject-02,1,998,0.704833030700684,airplane,airplane,cr,0998_cl_s02_cr_airplane_40_n02690373_10181.png
subject-02,1,999,0.936995029449463,elephant,elephant,cr,0999_cl_s02_cr_elephant_40_n02504013_2460.png
subject-02,1,1000,0.614595174789429,bird,bird,bw,1000_cl_s02_bw_bird_40_n01558993_6287.png
subject-02,1,1001,0.906410932540894,keyboard,keyboard,bw,1001_cl_s02_bw_keyboard_40_n03085013_23800.png
subject-02,1,1002,0.730125904083252,keyboard,keyboard,bw,1002_cl_s02_bw_keyboard_40_n04505470_4856.png
subject-02,1,1003,0.580268144607544,bird,bird,bw,1003_cl_s02_bw_bird_40_n02009229_12179.png
subject-02,1,1004,0.697777032852173,bottle,bottle,bw,1004_cl_s02_bw_bottle_40_n04560804_29208.png
subject-02,1,1005,0.649569034576416,airplane,airplane,bw,1005_cl_s02_bw_airplane_40_n02690373_6046.png
subject-02,1,1006,0.655463933944702,bicycle,bicycle,cr,1006_cl_s02_cr_bicycle_40_n03792782_85.png
subject-02,1,1007,1.33718705177307,truck,truck,cr,1007_cl_s02_cr_truck_40_n03417042_19479.png
subject-02,1,1008,0.6474609375,clock,clock,cr,1008_cl_s02_cr_clock_40_n04548280_24041.png
subject-02,1,1009,0.928716897964478,bear,bear,bw,1009_cl_s02_bw_bear_40_n02134418_4456.png
subject-02,1,1010,0.592751026153564,bottle,bottle,bw,1010_cl_s02_bw_bottle_40_n02823428_1678.png
subject-02,1,1011,0.700634002685547,bicycle,bicycle,bw,1011_cl_s02_bw_bicycle_40_n03792782_1778.png
subject-02,1,1012,0.994207859039307,truck,truck,cr,1012_cl_s02_cr_truck_40_n04467665_68332.png
subject-02,1,1013,0.840167045593262,elephant,elephant,bw,1013_cl_s02_bw_elephant_40_n02504458_4633.png
subject-02,1,1014,0.691943883895874,elephant,elephant,cr,1014_cl_s02_cr_elephant_40_n02504458_169.png
subject-02,1,1015,0.769968032836914,keyboard,keyboard,bw,1015_cl_s02_bw_keyboard_40_n03085013_31513.png
subject-02,1,1016,0.597620964050293,cat,cat,cr,1016_cl_s02_cr_cat_40_n02123394_133.png
subject-02,1,1017,0.82558798789978,truck,truck,cr,1017_cl_s02_cr_truck_40_n03796401_8100.png
subject-02,1,1018,0.667249202728271,elephant,elephant,bw,1018_cl_s02_bw_elephant_40_n02504013_1432.png
subject-02,1,1019,0.594848871231079,bottle,bottle,bw,1019_cl_s02_bw_bottle_40_n03983396_11632.png
subject-02,1,1020,0.662888050079346,boat,boat,bw,1020_cl_s02_bw_boat_40_n02951358_4128.png
subject-02,1,1021,0.6167311668396,elephant,elephant,cr,1021_cl_s02_cr_elephant_40_n02504013_4590.png
subject-02,1,1022,0.676814079284668,cat,cat,bw,1022_cl_s02_bw_cat_40_n02125311_7527.png
subject-02,1,1023,0.868072986602783,bird,bird,cr,1023_cl_s02_cr_bird_40_n01537544_23002.png
subject-02,1,1024,0.733989000320435,boat,boat,bw,1024_cl_s02_bw_boat_40_n02951358_34163.png
subject-02,1,1025,0.703574180603027,bird,bird,cr,1025_cl_s02_cr_bird_40_n01843383_10720.png
subject-02,1,1026,0.599493026733398,boat,boat,bw,1026_cl_s02_bw_boat_40_n04273569_5901.png
subject-02,1,1027,0.713388204574585,bicycle,bicycle,cr,1027_cl_s02_cr_bicycle_40_n02835271_8125.png
subject-02,1,1028,0.54546594619751,keyboard,keyboard,cr,1028_cl_s02_cr_keyboard_40_n03085013_24001.png
subject-02,1,1029,0.555366992950439,boat,boat,cr,1029_cl_s02_cr_boat_40_n03344393_8625.png
subject-02,1,1030,0.868878841400146,bird,bird,bw,1030_cl_s02_bw_bird_40_n02006656_3185.png
subject-02,1,1031,0.640563011169434,bird,bird,cr,1031_cl_s02_cr_bird_40_n02011460_2435.png
subject-02,1,1032,0.668803215026855,chair,chair,bw,1032_cl_s02_bw_chair_40_n04099969_11863.png
subject-02,1,1033,1.12225604057312,oven,oven,cr,1033_cl_s02_cr_oven_40_n04111531_2592.png
subject-02,1,1034,1.13813591003418,airplane,airplane,bw,1034_cl_s02_bw_airplane_40_n02690373_971.png
subject-02,1,1035,1.07191681861877,elephant,elephant,cr,1035_cl_s02_cr_elephant_40_n02504458_7839.png
subject-02,1,1036,0.53783106803894,boat,boat,bw,1036_cl_s02_bw_boat_40_n03344393_6458.png
subject-02,1,1037,0.883577108383179,bear,dog,bw,1037_cl_s02_bw_dog_40_n02102973_5217.png
subject-02,1,1038,1.08762407302856,knife,knife,bw,1038_cl_s02_bw_knife_40_n03041632_9302.png
subject-02,1,1039,0.699156045913696,dog,dog,cr,1039_cl_s02_cr_dog_40_n02099849_6488.png
subject-02,1,1040,1.03499984741211,bird,oven,bw,1040_cl_s02_bw_oven_40_n04111531_3181.png
subject-02,1,1041,0.54184103012085,bicycle,bicycle,cr,1041_cl_s02_cr_bicycle_40_n02835271_3308.png
subject-02,1,1042,0.447646856307983,cat,cat,bw,1042_cl_s02_bw_cat_40_n02124075_14242.png
subject-02,1,1043,0.639312028884888,chair,chair,cr,1043_cl_s02_cr_chair_40_n03376595_19165.png
subject-02,1,1044,1.11749219894409,boat,truck,cr,1044_cl_s02_cr_truck_40_n04467665_34228.png
subject-02,1,1045,0.582973957061768,car,car,bw,1045_cl_s02_bw_car_40_n02814533_92940.png
subject-02,1,1046,0.583124876022339,airplane,airplane,bw,1046_cl_s02_bw_airplane_40_n02690373_4269.png
subject-02,1,1047,0.583002090454102,oven,oven,cr,1047_cl_s02_cr_oven_40_n04111531_605.png
subject-02,1,1048,0.586484909057617,car,car,cr,1048_cl_s02_cr_car_40_n02814533_6233.png
subject-02,1,1049,0.644198894500732,airplane,airplane,cr,1049_cl_s02_cr_airplane_40_n02690373_6845.png
subject-02,1,1050,0.571989059448242,bottle,bottle,bw,1050_cl_s02_bw_bottle_40_n03983396_2057.png
subject-02,1,1051,0.694116115570068,bird,bird,cr,1051_cl_s02_cr_bird_40_n01558993_5744.png
subject-02,1,1052,1.12983822822571,bear,bear,cr,1052_cl_s02_cr_bear_40_n02134418_5273.png
subject-02,1,1053,0.87945294380188,bear,bear,cr,1053_cl_s02_cr_bear_40_n02132136_4314.png
subject-02,1,1054,0.647342920303345,bird,bird,bw,1054_cl_s02_bw_bird_40_n02006656_6733.png
subject-02,1,1055,0.603240013122559,car,car,cr,1055_cl_s02_cr_car_40_n02814533_74825.png
subject-02,1,1056,0.658990144729614,chair,chair,cr,1056_cl_s02_cr_chair_40_n04429376_16325.png
subject-02,1,1057,0.804791927337646,chair,chair,cr,1057_cl_s02_cr_chair_40_n03376595_6570.png
subject-02,1,1058,0.568481922149658,clock,clock,cr,1058_cl_s02_cr_clock_40_n03196217_4821.png
subject-02,1,1059,0.536379814147949,cat,cat,cr,1059_cl_s02_cr_cat_40_n02123159_782.png
subject-02,1,1060,0.460160970687866,cat,cat,bw,1060_cl_s02_bw_cat_40_n02123597_7142.png
subject-02,1,1061,0.53804087638855,cat,cat,cr,1061_cl_s02_cr_cat_40_n02125311_39106.png
subject-02,1,1062,0.995699882507324,truck,truck,bw,1062_cl_s02_bw_truck_40_n03417042_5659.png
subject-02,1,1063,1.1135470867157,bird,bird,cr,1063_cl_s02_cr_bird_40_n01818515_10517.png
subject-02,1,1064,0.579347133636475,keyboard,keyboard,cr,1064_cl_s02_cr_keyboard_40_n03085013_6644.png
subject-02,1,1065,0.565283060073853,cat,cat,bw,1065_cl_s02_bw_cat_40_n02123394_4542.png
subject-02,1,1066,0.724976062774658,bird,bird,bw,1066_cl_s02_bw_bird_40_n01829413_1997.png
subject-02,1,1067,0.808941125869751,boat,boat,bw,1067_cl_s02_bw_boat_40_n02951358_12354.png
subject-02,1,1068,0.946699142456055,bear,bear,cr,1068_cl_s02_cr_bear_40_n02134084_13663.png
subject-02,1,1069,0.560481071472168,cat,cat,bw,1069_cl_s02_bw_cat_40_n02125311_46330.png
subject-02,1,1070,0.886723041534424,dog,dog,bw,1070_cl_s02_bw_dog_40_n02090721_4088.png
subject-02,1,1071,0.674193143844604,elephant,elephant,bw,1071_cl_s02_bw_elephant_40_n02504458_6130.png
