subj,Session,trial,rt,object_response,category,condition,imagename
subject-03,1,1,0.586735963821411,boat,boat,cr,0001_cl_s03_cr_boat_40_n03344393_4496.png
subject-03,1,2,0.760459899902344,boat,boat,bw,0002_cl_s03_bw_boat_40_n04273569_517.png
subject-03,1,3,0.730513095855713,car,car,bw,0003_cl_s03_bw_car_40_n03100240_18873.png
subject-03,1,4,0.804487943649292,knife,knife,cr,0004_cl_s03_cr_knife_40_n03041632_36277.png
subject-03,1,5,1.03634691238403,car,car,bw,0005_cl_s03_bw_car_40_n04285008_14334.png
subject-03,1,6,0.841928958892822,bear,dog,bw,0006_cl_s03_bw_dog_40_n02093256_3792.png
subject-03,1,7,0.574122905731201,cat,cat,cr,0007_cl_s03_cr_cat_40_n02124075_1999.png
subject-03,1,8,0.683604001998901,car,car,bw,0008_cl_s03_bw_car_40_n04285008_658.png
subject-03,1,9,0.695129871368408,bear,oven,bw,0009_cl_s03_bw_oven_40_n04111531_978.png
subject-03,1,10,1.04487299919128,bicycle,bicycle,bw,0010_cl_s03_bw_bicycle_40_n03792782_5426.png
subject-03,1,11,0.840785980224609,elephant,elephant,cr,0011_cl_s03_cr_elephant_40_n02504458_1179.png
subject-03,1,12,0.738699913024902,cat,bird,cr,0012_cl_s03_cr_bird_40_n02013706_2849.png
subject-03,1,13,0.850528955459595,truck,truck,cr,0013_cl_s03_cr_truck_40_n03796401_9384.png
subject-03,1,14,0.804141998291016,keyboard,keyboard,bw,0014_cl_s03_bw_keyboard_40_n04505470_3666.png
subject-03,1,15,0.888105154037476,oven,oven,cr,0015_cl_s03_cr_oven_40_n04111531_12080.png
subject-03,1,16,1.10236978530884,car,clock,bw,0016_cl_s03_bw_clock_40_n02708093_544.png
subject-03,1,17,0.822034120559692,oven,clock,bw,0017_cl_s03_bw_clock_40_n03196217_5888.png
subject-03,1,18,0.843753099441528,clock,chair,cr,0018_cl_s03_cr_chair_40_n04429376_9432.png
subject-03,1,19,0.873322010040283,bicycle,clock,cr,0019_cl_s03_cr_clock_40_n03196217_10578.png
subject-03,1,20,1.06711912155151,car,car,cr,0020_cl_s03_cr_car_40_n04285008_713.png
subject-03,1,21,0.651120901107788,cat,dog,bw,0021_cl_s03_bw_dog_40_n02093256_7181.png
subject-03,1,22,0.681079864501953,car,car,cr,0022_cl_s03_cr_car_40_n02814533_6297.png
subject-03,1,23,0.946685075759888,bottle,bottle,cr,0023_cl_s03_cr_bottle_40_n03937543_5322.png
subject-03,1,24,1.19830298423767,boat,knife,bw,0024_cl_s03_bw_knife_40_n03041632_32177.png
subject-03,1,25,0.804240942001343,truck,truck,bw,0025_cl_s03_bw_truck_40_n03417042_265.png
subject-03,1,26,0.85394811630249,knife,knife,bw,0026_cl_s03_bw_knife_40_n03041632_33326.png
subject-03,1,27,0.803934097290039,elephant,elephant,bw,0027_cl_s03_bw_elephant_40_n02504013_8308.png
subject-03,1,28,0.762027978897095,airplane,airplane,bw,0028_cl_s03_bw_airplane_40_n02690373_3493.png
subject-03,1,29,0.877326011657715,dog,dog,bw,0029_cl_s03_bw_dog_40_n02106550_12642.png
subject-03,1,30,0.757335901260376,knife,knife,bw,0030_cl_s03_bw_knife_40_n03041632_20413.png
subject-03,1,31,0.841453075408936,boat,oven,bw,0031_cl_s03_bw_oven_40_n04111531_11868.png
subject-03,1,32,0.689013004302979,airplane,airplane,bw,0032_cl_s03_bw_airplane_40_n02690373_3054.png
subject-03,1,33,1.054603099823,bicycle,bicycle,cr,0033_cl_s03_cr_bicycle_40_n03792782_3296.png
subject-03,1,34,1.42058396339417,clock,clock,bw,0034_cl_s03_bw_clock_40_n03196217_6477.png
subject-03,1,35,1.15225505828857,bird,bird,cr,0035_cl_s03_cr_bird_40_n01860187_2825.png
subject-03,1,36,0.768318176269531,car,car,bw,0036_cl_s03_bw_car_40_n04285008_4749.png
subject-03,1,37,0.867976903915405,dog,dog,bw,0037_cl_s03_bw_dog_40_n02091467_3727.png
subject-03,1,38,0.695631980895996,bear,bear,cr,0038_cl_s03_cr_bear_40_n02134084_20500.png
subject-03,1,39,0.913367033004761,cat,cat,cr,0039_cl_s03_cr_cat_40_n02123045_11472.png
subject-03,1,40,0.517385005950928,oven,oven,cr,0040_cl_s03_cr_oven_40_n04111531_10749.png
subject-03,1,41,1.22915983200073,bottle,bottle,cr,0041_cl_s03_cr_bottle_40_n02823428_987.png
subject-03,1,42,0.93907904624939,dog,bear,cr,0042_cl_s03_cr_bear_40_n02134418_1482.png
subject-03,1,43,0.908887147903442,dog,dog,cr,0043_cl_s03_cr_dog_40_n02097209_1491.png
subject-03,1,44,0.562619924545288,oven,oven,bw,0044_cl_s03_bw_oven_40_n04111531_12702.png
subject-03,1,45,1.01638197898865,bear,bear,bw,0045_cl_s03_bw_bear_40_n02134418_2324.png
subject-03,1,46,1.37439799308777,bird,bird,cr,0046_cl_s03_cr_bird_40_n02009912_24304.png
subject-03,1,47,0.734478950500488,airplane,airplane,bw,0047_cl_s03_bw_airplane_40_n02690373_4727.png
subject-03,1,48,1.04198908805847,bottle,bottle,cr,0048_cl_s03_cr_bottle_40_n04557648_2122.png
subject-03,1,49,0.553719997406006,clock,clock,cr,0049_cl_s03_cr_clock_40_n02708093_7076.png
subject-03,1,50,1.07544207572937,dog,dog,cr,0050_cl_s03_cr_dog_40_n02088466_1671.png
subject-03,1,51,0.951575040817261,bird,bird,bw,0051_cl_s03_bw_bird_40_n01537544_2875.png
subject-03,1,52,1.17097306251526,dog,dog,cr,0052_cl_s03_cr_dog_40_n02087394_7104.png
subject-03,1,53,0.723467111587524,bird,bird,cr,0053_cl_s03_cr_bird_40_n01558993_3939.png
subject-03,1,54,1.50013422966003,boat,boat,cr,0054_cl_s03_cr_boat_40_n04273569_13641.png
subject-03,1,55,1.05647897720337,bicycle,bicycle,cr,0055_cl_s03_cr_bicycle_40_n02835271_17914.png
subject-03,1,56,0.680451154708862,chair,chair,bw,0056_cl_s03_bw_chair_40_n04099969_43.png
subject-03,1,57,0.696609020233154,oven,chair,bw,0057_cl_s03_bw_chair_40_n04429376_9121.png
subject-03,1,58,0.9460129737854,chair,chair,cr,0058_cl_s03_cr_chair_40_n02791124_3323.png
subject-03,1,59,0.773883104324341,bottle,bottle,cr,0059_cl_s03_cr_bottle_40_n04557648_1856.png
subject-03,1,60,0.797621011734009,bear,elephant,bw,0060_cl_s03_bw_elephant_40_n02504013_1103.png
subject-03,1,61,0.901612043380737,oven,clock,bw,0061_cl_s03_bw_clock_40_n04548280_7384.png
subject-03,1,62,0.837224006652832,boat,bear,bw,0062_cl_s03_bw_bear_40_n02133161_1066.png
subject-03,1,63,1.01512002944946,oven,oven,bw,0063_cl_s03_bw_oven_40_n04111531_12103.png
subject-03,1,64,0.80677604675293,airplane,airplane,bw,0064_cl_s03_bw_airplane_40_n02690373_6516.png
subject-03,1,65,0.688801050186157,knife,knife,cr,0065_cl_s03_cr_knife_40_n03041632_51256.png
subject-03,1,66,1.05267000198364,cat,cat,cr,0066_cl_s03_cr_cat_40_n02125311_20921.png
subject-03,1,67,0.846258878707886,bottle,bottle,bw,0067_cl_s03_bw_bottle_40_n04557648_2523.png
subject-03,1,68,1.22849583625793,boat,airplane,cr,0068_cl_s03_cr_airplane_40_n02690373_3859.png
subject-03,1,69,1.38187003135681,dog,dog,cr,0069_cl_s03_cr_dog_40_n02102040_7465.png
subject-03,1,70,0.846029996871948,truck,truck,bw,0070_cl_s03_bw_truck_40_n03796401_1710.png
subject-03,1,71,0.853911161422729,chair,chair,cr,0071_cl_s03_cr_chair_40_n02791124_3161.png
subject-03,1,72,0.941473960876465,truck,truck,cr,0072_cl_s03_cr_truck_40_n03417042_8046.png
subject-03,1,73,0.901187181472778,bear,bear,cr,0073_cl_s03_cr_bear_40_n02133161_12868.png
subject-03,1,74,0.650896072387695,knife,knife,cr,0074_cl_s03_cr_knife_40_n03041632_44738.png
subject-03,1,75,0.796820163726807,bicycle,bicycle,cr,0075_cl_s03_cr_bicycle_40_n02835271_8502.png
subject-03,1,76,0.874466896057129,car,car,cr,0076_cl_s03_cr_car_40_n04285008_953.png
subject-03,1,77,0.77049708366394,cat,cat,cr,0077_cl_s03_cr_cat_40_n02123159_1794.png
subject-03,1,78,0.612273931503296,bottle,bottle,bw,0078_cl_s03_bw_bottle_40_n03983396_5611.png
subject-03,1,79,0.787935018539429,oven,knife,cr,0079_cl_s03_cr_knife_40_n03041632_20707.png
subject-03,1,80,0.698162078857422,clock,clock,bw,0080_cl_s03_bw_clock_40_n04548280_3330.png
subject-03,1,81,0.686837196350098,clock,clock,bw,0081_cl_s03_bw_clock_40_n02708093_6655.png
subject-03,1,82,0.844654083251953,clock,knife,bw,0082_cl_s03_bw_knife_40_n03041632_7380.png
subject-03,1,83,0.64637017250061,chair,chair,bw,0083_cl_s03_bw_chair_40_n03376595_8140.png
subject-03,1,84,0.762290000915527,truck,truck,cr,0084_cl_s03_cr_truck_40_n03417042_6213.png
subject-03,1,85,1.08984303474426,bicycle,bicycle,bw,0085_cl_s03_bw_bicycle_40_n03792782_1778.png
subject-03,1,86,0.893969058990479,truck,truck,cr,0086_cl_s03_cr_truck_40_n03417042_27587.png
subject-03,1,87,0.867713928222656,cat,cat,bw,0087_cl_s03_bw_cat_40_n02123597_5298.png
subject-03,1,88,0.609513998031616,truck,truck,cr,0088_cl_s03_cr_truck_40_n03796401_5515.png
subject-03,1,89,1.40738391876221,chair,knife,cr,0089_cl_s03_cr_knife_40_n03041632_32350.png
subject-03,1,90,0.871160984039307,keyboard,keyboard,bw,0090_cl_s03_bw_keyboard_40_n04505470_2907.png
subject-03,1,91,0.975282907485962,dog,dog,bw,0091_cl_s03_bw_dog_40_n02108915_4936.png
subject-03,1,92,0.792701959609985,knife,knife,cr,0092_cl_s03_cr_knife_40_n03041632_7173.png
subject-03,1,93,0.656458139419556,bear,bear,cr,0093_cl_s03_cr_bear_40_n02134084_4490.png
subject-03,1,94,0.548449039459229,clock,clock,bw,0094_cl_s03_bw_clock_40_n04548280_7211.png
subject-03,1,95,0.704049110412598,elephant,elephant,cr,0095_cl_s03_cr_elephant_40_n02504013_4288.png
subject-03,1,96,0.565911054611206,chair,chair,bw,0096_cl_s03_bw_chair_40_n04099969_9847.png
subject-03,1,97,0.808058023452759,keyboard,keyboard,cr,0097_cl_s03_cr_keyboard_40_n03085013_18625.png
subject-03,1,98,1.14951395988464,car,car,cr,0098_cl_s03_cr_car_40_n03100240_1910.png
subject-03,1,99,1.06523394584656,dog,dog,bw,0099_cl_s03_bw_dog_40_n02100583_2707.png
subject-03,1,100,0.875195026397705,bear,bear,bw,0100_cl_s03_bw_bear_40_n02133161_13461.png
subject-03,1,101,0.711062908172607,airplane,airplane,bw,0101_cl_s03_bw_airplane_40_n02690373_15966.png
subject-03,1,102,0.822882890701294,keyboard,keyboard,cr,0102_cl_s03_cr_keyboard_40_n03085013_21325.png
subject-03,1,103,1.16058397293091,airplane,airplane,cr,0103_cl_s03_cr_airplane_40_n02690373_6812.png
subject-03,1,104,0.684551000595093,airplane,airplane,bw,0104_cl_s03_bw_airplane_40_n02690373_5184.png
subject-03,1,105,0.948354005813599,chair,car,bw,0105_cl_s03_bw_car_40_n02814533_14335.png
subject-03,1,106,0.915974855422974,bottle,bottle,cr,0106_cl_s03_cr_bottle_40_n03983396_5864.png
subject-03,1,107,0.892157077789307,airplane,airplane,bw,0107_cl_s03_bw_airplane_40_n02690373_693.png
subject-03,1,108,1.08968496322632,oven,clock,cr,0108_cl_s03_cr_clock_40_n03196217_3416.png
subject-03,1,109,0.869536876678467,truck,truck,bw,0109_cl_s03_bw_truck_40_n03417042_27907.png
subject-03,1,110,1.01745510101318,bird,bird,bw,0110_cl_s03_bw_bird_40_n01616318_1071.png
subject-03,1,111,1.03912496566772,elephant,elephant,bw,0111_cl_s03_bw_elephant_40_n02504458_6336.png
subject-03,1,112,0.747090101242065,knife,knife,cr,0112_cl_s03_cr_knife_40_n03041632_11475.png
subject-03,1,113,0.696743011474609,oven,oven,bw,0113_cl_s03_bw_oven_40_n04111531_8036.png
subject-03,1,114,1.35853695869446,bottle,chair,cr,0114_cl_s03_cr_chair_40_n04429376_16081.png
subject-03,1,115,0.832354068756104,bird,bird,cr,0115_cl_s03_cr_bird_40_n01828970_23168.png
subject-03,1,116,0.768161773681641,boat,boat,bw,0116_cl_s03_bw_boat_40_n03662601_3984.png
subject-03,1,117,0.94241189956665,cat,cat,cr,0117_cl_s03_cr_cat_40_n02125311_13383.png
subject-03,1,118,1.48394203186035,boat,boat,cr,0118_cl_s03_cr_boat_40_n03344393_661.png
subject-03,1,119,0.737749099731445,bottle,bottle,cr,0119_cl_s03_cr_bottle_40_n04560804_3683.png
subject-03,1,120,0.799416065216064,keyboard,keyboard,cr,0120_cl_s03_cr_keyboard_40_n03085013_17455.png
subject-03,1,121,0.939208984375,bottle,bottle,cr,0121_cl_s03_cr_bottle_40_n04557648_4302.png
subject-03,1,122,1.43090915679932,dog,dog,cr,0122_cl_s03_cr_dog_40_n02102480_5452.png
subject-03,1,123,0.788987874984741,keyboard,keyboard,bw,0123_cl_s03_bw_keyboard_40_n03085013_7992.png
subject-03,1,124,0.968641042709351,bear,bear,cr,0124_cl_s03_cr_bear_40_n02133161_739.png
subject-03,1,125,0.586543798446655,keyboard,knife,bw,0125_cl_s03_bw_knife_40_n03041632_85488.png
subject-03,1,126,0.808284997940063,keyboard,keyboard,bw,0126_cl_s03_bw_keyboard_40_n04505470_510.png
subject-03,1,127,1.14611601829529,truck,truck,bw,0127_cl_s03_bw_truck_40_n03417042_19585.png
subject-03,1,128,1.5001049041748,cat,cat,bw,0128_cl_s03_bw_cat_40_n02123597_11613.png
subject-03,1,129,0.577731132507324,airplane,airplane,cr,0129_cl_s03_cr_airplane_40_n02690373_6621.png
subject-03,1,130,0.927572011947632,clock,clock,bw,0130_cl_s03_bw_clock_40_n02708093_3079.png
subject-03,1,131,0.963300943374634,chair,chair,cr,0131_cl_s03_cr_chair_40_n02791124_1239.png
subject-03,1,132,0.727490901947021,elephant,elephant,cr,0132_cl_s03_cr_elephant_40_n02504013_3599.png
subject-03,1,133,1.00091886520386,bird,bird,cr,0133_cl_s03_cr_bird_40_n02027492_8707.png
subject-03,1,134,0.764721870422363,airplane,airplane,cr,0134_cl_s03_cr_airplane_40_n02690373_7387.png
subject-03,1,135,0.722656011581421,bottle,bottle,cr,0135_cl_s03_cr_bottle_40_n04591713_2879.png
subject-03,1,136,1.21223115921021,cat,cat,bw,0136_cl_s03_bw_cat_40_n02124075_14242.png
subject-03,1,137,1.1662130355835,elephant,elephant,bw,0137_cl_s03_bw_elephant_40_n02504458_2556.png
subject-03,1,138,0.642106056213379,bicycle,knife,cr,0138_cl_s03_cr_knife_40_n03041632_28201.png
subject-03,1,139,0.921924829483032,airplane,airplane,cr,0139_cl_s03_cr_airplane_40_n02690373_3313.png
subject-03,1,140,0.799705028533936,bicycle,bicycle,cr,0140_cl_s03_cr_bicycle_40_n03792782_10281.png
subject-03,1,141,1.01349997520447,dog,dog,bw,0141_cl_s03_bw_dog_40_n02105162_5667.png
subject-03,1,142,0.769160985946655,clock,clock,cr,0142_cl_s03_cr_clock_40_n04548280_8795.png
subject-03,1,143,NaN,na,bird,cr,0143_cl_s03_cr_bird_40_n02009229_6551.png
subject-03,1,144,0.688940048217773,clock,clock,bw,0144_cl_s03_bw_clock_40_n03196217_868.png
subject-03,1,145,1.04083204269409,airplane,airplane,cr,0145_cl_s03_cr_airplane_40_n02690373_303.png
subject-03,1,146,0.744578123092651,bear,bear,cr,0146_cl_s03_cr_bear_40_n02133161_3988.png
subject-03,1,147,1.00235509872437,chair,chair,cr,0147_cl_s03_cr_chair_40_n02791124_7942.png
subject-03,1,148,1.20221304893494,cat,chair,bw,0148_cl_s03_bw_chair_40_n04099969_17412.png
subject-03,1,149,0.773911952972412,airplane,airplane,bw,0149_cl_s03_bw_airplane_40_n02690373_19104.png
subject-03,1,150,1.00963401794434,bottle,bottle,cr,0150_cl_s03_cr_bottle_40_n04560804_10184.png
subject-03,1,151,0.843477964401245,truck,truck,cr,0151_cl_s03_cr_truck_40_n04467665_55848.png
subject-03,1,152,0.695621013641357,boat,boat,cr,0152_cl_s03_cr_boat_40_n02951358_5355.png
subject-03,1,153,0.697288990020752,clock,clock,bw,0153_cl_s03_bw_clock_40_n04548280_2411.png
subject-03,1,154,0.986961841583252,bottle,clock,bw,0154_cl_s03_bw_clock_40_n03196217_127.png
subject-03,1,155,0.910892009735107,knife,knife,bw,0155_cl_s03_bw_knife_40_n03041632_16172.png
subject-03,1,156,0.874463081359863,bird,bird,cr,0156_cl_s03_cr_bird_40_n01537544_23002.png
subject-03,1,157,1.50005388259888,dog,dog,bw,0157_cl_s03_bw_dog_40_n02106550_10279.png
subject-03,1,158,0.926444053649902,truck,truck,bw,0158_cl_s03_bw_truck_40_n03417042_22513.png
subject-03,1,159,0.800140857696533,knife,knife,bw,0159_cl_s03_bw_knife_40_n03041632_21477.png
subject-03,1,160,1.4799919128418,airplane,airplane,bw,0160_cl_s03_bw_airplane_40_n02690373_6992.png
subject-03,1,161,0.711859941482544,airplane,airplane,cr,0161_cl_s03_cr_airplane_40_n02690373_5176.png
subject-03,1,162,0.561720848083496,cat,cat,cr,0162_cl_s03_cr_cat_40_n02124075_17464.png
subject-03,1,163,1.17191410064697,keyboard,bottle,cr,0163_cl_s03_cr_bottle_40_n04591713_2899.png
subject-03,1,164,0.855334997177124,bottle,bottle,bw,0164_cl_s03_bw_bottle_40_n02823428_5214.png
subject-03,1,165,0.647647142410278,truck,truck,cr,0165_cl_s03_cr_truck_40_n03796401_18240.png
subject-03,1,166,1.13307404518127,chair,clock,bw,0166_cl_s03_bw_clock_40_n03196217_5165.png
subject-03,1,167,0.810701847076416,bicycle,bicycle,cr,0167_cl_s03_cr_bicycle_40_n02835271_2068.png
subject-03,1,168,0.724725008010864,oven,chair,cr,0168_cl_s03_cr_chair_40_n02791124_4294.png
subject-03,1,169,0.592499017715454,boat,boat,bw,0169_cl_s03_bw_boat_40_n03662601_8283.png
subject-03,1,170,NaN,na,truck,bw,0170_cl_s03_bw_truck_40_n04467665_2230.png
subject-03,1,171,0.793948888778687,bear,bear,cr,0171_cl_s03_cr_bear_40_n02133161_6946.png
subject-03,1,172,0.666277885437012,clock,clock,bw,0172_cl_s03_bw_clock_40_n02708093_8033.png
subject-03,1,173,0.635731935501099,bicycle,bicycle,cr,0173_cl_s03_cr_bicycle_40_n02835271_18276.png
subject-03,1,174,0.729531049728394,chair,chair,bw,0174_cl_s03_bw_chair_40_n04099969_8509.png
subject-03,1,175,0.861164093017578,bottle,bottle,bw,0175_cl_s03_bw_bottle_40_n03937543_4340.png
subject-03,1,176,0.851446866989136,clock,clock,cr,0176_cl_s03_cr_clock_40_n03196217_1109.png
subject-03,1,177,0.85114598274231,knife,knife,cr,0177_cl_s03_cr_knife_40_n03041632_9759.png
subject-03,1,178,0.814625978469849,clock,clock,bw,0178_cl_s03_bw_clock_40_n04548280_3305.png
subject-03,1,179,0.734585046768188,airplane,airplane,bw,0179_cl_s03_bw_airplane_40_n02690373_2750.png
subject-03,1,180,0.720367193222046,airplane,airplane,cr,0180_cl_s03_cr_airplane_40_n02690373_610.png
subject-03,1,181,0.658694982528687,boat,boat,bw,0181_cl_s03_bw_boat_40_n02951358_381.png
subject-03,1,182,1.1942150592804,dog,dog,bw,0182_cl_s03_bw_dog_40_n02109047_2662.png
subject-03,1,183,0.989977121353149,elephant,elephant,cr,0183_cl_s03_cr_elephant_40_n02504013_4523.png
subject-03,1,184,1.26199507713318,elephant,elephant,cr,0184_cl_s03_cr_elephant_40_n02504458_1600.png
subject-03,1,185,0.695581912994385,bear,bear,bw,0185_cl_s03_bw_bear_40_n02132136_6890.png
subject-03,1,186,0.899305105209351,keyboard,keyboard,cr,0186_cl_s03_cr_keyboard_40_n04505470_996.png
subject-03,1,187,0.724997997283936,bicycle,bicycle,bw,0187_cl_s03_bw_bicycle_40_n03792782_818.png
subject-03,1,188,0.675213098526001,boat,boat,cr,0188_cl_s03_cr_boat_40_n04273569_1087.png
subject-03,1,189,0.60258412361145,cat,cat,cr,0189_cl_s03_cr_cat_40_n02123394_1594.png
subject-03,1,190,0.844593048095703,oven,truck,bw,0190_cl_s03_bw_truck_40_n03417042_3236.png
subject-03,1,191,0.87235689163208,chair,chair,cr,0191_cl_s03_cr_chair_40_n02791124_1865.png
subject-03,1,192,1.15448689460754,oven,chair,cr,0192_cl_s03_cr_chair_40_n04429376_21546.png
subject-03,1,193,0.8418869972229,dog,dog,cr,0193_cl_s03_cr_dog_40_n02097658_16.png
subject-03,1,194,0.589712858200073,truck,truck,cr,0194_cl_s03_cr_truck_40_n03417042_2778.png
subject-03,1,195,0.497684001922607,airplane,airplane,bw,0195_cl_s03_bw_airplane_40_n02690373_9812.png
subject-03,1,196,0.757359027862549,elephant,elephant,bw,0196_cl_s03_bw_elephant_40_n02504013_720.png
subject-03,1,197,1.02111911773682,oven,oven,cr,0197_cl_s03_cr_oven_40_n04111531_15912.png
subject-03,1,198,0.847002029418945,dog,dog,cr,0198_cl_s03_cr_dog_40_n02091635_6519.png
subject-03,1,199,0.596801042556763,oven,oven,bw,0199_cl_s03_bw_oven_40_n04111531_9322.png
subject-03,1,200,0.702802896499634,car,car,bw,0200_cl_s03_bw_car_40_n02814533_45312.png
subject-03,1,201,0.890727996826172,bird,bird,bw,0201_cl_s03_bw_bird_40_n01531178_10905.png
subject-03,1,202,0.766334056854248,clock,clock,bw,0202_cl_s03_bw_clock_40_n04548280_8990.png
subject-03,1,203,0.72412896156311,oven,boat,bw,0203_cl_s03_bw_boat_40_n02951358_30020.png
subject-03,1,204,0.705961942672729,airplane,airplane,cr,0204_cl_s03_cr_airplane_40_n02690373_8231.png
subject-03,1,205,0.941743135452271,truck,truck,bw,0205_cl_s03_bw_truck_40_n03417042_5659.png
subject-03,1,206,0.745517015457153,knife,knife,cr,0206_cl_s03_cr_knife_40_n03041632_32292.png
subject-03,1,207,0.99531102180481,bear,bear,cr,0207_cl_s03_cr_bear_40_n02134084_23974.png
subject-03,1,208,0.711134910583496,car,car,bw,0208_cl_s03_bw_car_40_n04285008_13354.png
subject-03,1,209,0.702841997146606,keyboard,keyboard,bw,0209_cl_s03_bw_keyboard_40_n03085013_3264.png
subject-03,1,210,0.558590173721313,oven,oven,bw,0210_cl_s03_bw_oven_40_n04111531_4407.png
subject-03,1,211,0.714378118515015,bicycle,bicycle,bw,0211_cl_s03_bw_bicycle_40_n03792782_49707.png
subject-03,1,212,0.944411039352417,car,car,cr,0212_cl_s03_cr_car_40_n02814533_80049.png
subject-03,1,213,1.12436413764954,bottle,bottle,cr,0213_cl_s03_cr_bottle_40_n03983396_2053.png
subject-03,1,214,0.750001907348633,boat,boat,cr,0214_cl_s03_cr_boat_40_n03662601_28640.png
subject-03,1,215,1.50003886222839,keyboard,clock,bw,0215_cl_s03_bw_clock_40_n02708093_7841.png
subject-03,1,216,0.682029962539673,knife,knife,cr,0216_cl_s03_cr_knife_40_n03041632_3717.png
subject-03,1,217,0.789447069168091,car,car,bw,0217_cl_s03_bw_car_40_n03100240_6479.png
subject-03,1,218,0.755239963531494,car,car,cr,0218_cl_s03_cr_car_40_n02814533_54845.png
subject-03,1,219,0.830981016159058,bicycle,bicycle,bw,0219_cl_s03_bw_bicycle_40_n02835271_5602.png
subject-03,1,220,1.24316787719727,elephant,elephant,cr,0220_cl_s03_cr_elephant_40_n02504013_5014.png
subject-03,1,221,0.744558095932007,elephant,elephant,bw,0221_cl_s03_bw_elephant_40_n02504013_1432.png
subject-03,1,222,0.746439933776855,bear,bear,bw,0222_cl_s03_bw_bear_40_n02134084_21413.png
subject-03,1,223,0.638365983963013,car,car,bw,0223_cl_s03_bw_car_40_n04285008_9404.png
subject-03,1,224,0.788072824478149,knife,knife,cr,0224_cl_s03_cr_knife_40_n03041632_992.png
subject-03,1,225,0.822026014328003,chair,chair,cr,0225_cl_s03_cr_chair_40_n02791124_7031.png
subject-03,1,226,0.723778009414673,oven,oven,cr,0226_cl_s03_cr_oven_40_n04111531_5888.png
subject-03,1,227,0.699445962905884,clock,clock,cr,0227_cl_s03_cr_clock_40_n03196217_4821.png
subject-03,1,228,0.633439064025879,car,car,bw,0228_cl_s03_bw_car_40_n02814533_95054.png
subject-03,1,229,1.18108296394348,dog,dog,cr,0229_cl_s03_cr_dog_40_n02107683_3640.png
subject-03,1,230,1.16320395469666,chair,chair,bw,0230_cl_s03_bw_chair_40_n04429376_1954.png
subject-03,1,231,0.851067066192627,keyboard,keyboard,cr,0231_cl_s03_cr_keyboard_40_n04505470_7161.png
subject-03,1,232,0.888631105422974,chair,chair,cr,0232_cl_s03_cr_chair_40_n04429376_20906.png
subject-03,1,233,1.1083300113678,elephant,elephant,cr,0233_cl_s03_cr_elephant_40_n02504458_1304.png
subject-03,1,234,0.69054913520813,bicycle,bicycle,cr,0234_cl_s03_cr_bicycle_40_n02835271_26731.png
subject-03,1,235,0.791951894760132,knife,knife,bw,0235_cl_s03_bw_knife_40_n03041632_100645.png
subject-03,1,236,0.65789008140564,cat,bear,cr,0236_cl_s03_cr_bear_40_n02133161_4282.png
subject-03,1,237,0.705665111541748,car,car,bw,0237_cl_s03_bw_car_40_n03100240_10982.png
subject-03,1,238,0.767427921295166,bottle,bottle,cr,0238_cl_s03_cr_bottle_40_n03983396_3702.png
subject-03,1,239,0.835294961929321,elephant,elephant,cr,0239_cl_s03_cr_elephant_40_n02504013_4892.png
subject-03,1,240,0.935052156448364,truck,truck,cr,0240_cl_s03_cr_truck_40_n03417042_10283.png
subject-03,1,241,1.01649379730225,knife,knife,cr,0241_cl_s03_cr_knife_40_n03041632_4279.png
subject-03,1,242,0.708194971084595,bicycle,bicycle,cr,0242_cl_s03_cr_bicycle_40_n02835271_22263.png
subject-03,1,243,0.650038003921509,truck,truck,cr,0243_cl_s03_cr_truck_40_n03417042_1263.png
subject-03,1,244,0.670062065124512,knife,knife,bw,0244_cl_s03_bw_knife_40_n03041632_32337.png
subject-03,1,245,0.749698877334595,dog,dog,cr,0245_cl_s03_cr_dog_40_n02096294_2375.png
subject-03,1,246,0.917455196380615,bear,elephant,cr,0246_cl_s03_cr_elephant_40_n02504013_811.png
subject-03,1,247,0.511292934417725,chair,chair,bw,0247_cl_s03_bw_chair_40_n03376595_10266.png
subject-03,1,248,0.829095840454102,oven,knife,cr,0248_cl_s03_cr_knife_40_n03041632_27929.png
subject-03,1,249,1.05500221252441,bear,bear,bw,0249_cl_s03_bw_bear_40_n02134418_2503.png
subject-03,1,250,0.58657693862915,cat,cat,cr,0250_cl_s03_cr_cat_40_n02123045_4089.png
subject-03,1,251,0.664504051208496,airplane,airplane,cr,0251_cl_s03_cr_airplane_40_n02690373_7145.png
subject-03,1,252,0.768630981445312,knife,knife,bw,0252_cl_s03_bw_knife_40_n03041632_10000.png
subject-03,1,253,0.674245834350586,airplane,airplane,bw,0253_cl_s03_bw_airplane_40_n02690373_5838.png
subject-03,1,254,0.79790210723877,chair,chair,cr,0254_cl_s03_cr_chair_40_n04429376_7181.png
subject-03,1,255,0.833683013916016,dog,dog,cr,0255_cl_s03_cr_dog_40_n02102318_19745.png
subject-03,1,256,0.859776020050049,airplane,airplane,bw,0256_cl_s03_bw_airplane_40_n02690373_6836.png
subject-03,1,257,1.14548087120056,chair,bear,cr,0257_cl_s03_cr_bear_40_n02134418_1063.png
subject-03,1,258,0.567177057266235,cat,cat,bw,0258_cl_s03_bw_cat_40_n02123394_916.png
subject-03,1,259,0.809416055679321,elephant,elephant,cr,0259_cl_s03_cr_elephant_40_n02504013_14918.png
subject-03,1,260,0.806869029998779,bear,bear,cr,0260_cl_s03_cr_bear_40_n02133161_12152.png
subject-03,1,261,0.885041952133179,chair,chair,bw,0261_cl_s03_bw_chair_40_n02791124_6077.png
subject-03,1,262,1.11047697067261,dog,dog,bw,0262_cl_s03_bw_dog_40_n02104365_9837.png
subject-03,1,263,0.896352052688599,bicycle,bicycle,cr,0263_cl_s03_cr_bicycle_40_n02835271_14383.png
subject-03,1,264,1.09212017059326,boat,boat,cr,0264_cl_s03_cr_boat_40_n03662601_14818.png
subject-03,1,265,0.927994012832642,dog,dog,bw,0265_cl_s03_bw_dog_40_n02101556_8410.png
subject-03,1,266,0.851691961288452,bird,bird,bw,0266_cl_s03_bw_bird_40_n02027492_546.png
subject-03,1,267,1.24160504341125,chair,bicycle,bw,0267_cl_s03_bw_bicycle_40_n03792782_3705.png
subject-03,1,268,0.765273094177246,dog,dog,cr,0268_cl_s03_cr_dog_40_n02093647_2890.png
subject-03,1,269,0.601557970046997,oven,oven,cr,0269_cl_s03_cr_oven_40_n04111531_1815.png
subject-03,1,270,1.05897307395935,bear,bear,bw,0270_cl_s03_bw_bear_40_n02134418_5824.png
subject-03,1,271,0.73088812828064,bottle,bottle,cr,0271_cl_s03_cr_bottle_40_n03983396_11519.png
subject-03,1,272,0.814662933349609,dog,dog,cr,0272_cl_s03_cr_dog_40_n02105641_4701.png
subject-03,1,273,0.648332118988037,knife,knife,bw,0273_cl_s03_bw_knife_40_n03041632_3101.png
subject-03,1,274,0.840245008468628,bicycle,bicycle,cr,0274_cl_s03_cr_bicycle_40_n02835271_2753.png
subject-03,1,275,0.686168909072876,airplane,airplane,cr,0275_cl_s03_cr_airplane_40_n02690373_16250.png
subject-03,1,276,0.806189060211182,dog,dog,cr,0276_cl_s03_cr_dog_40_n02089867_2298.png
subject-03,1,277,0.883766889572144,boat,boat,cr,0277_cl_s03_cr_boat_40_n03344393_9732.png
subject-03,1,278,0.641592979431152,bear,bear,cr,0278_cl_s03_cr_bear_40_n02133161_1362.png
subject-03,1,279,0.813308954238892,bicycle,bicycle,cr,0279_cl_s03_cr_bicycle_40_n02835271_10469.png
subject-03,1,280,0.769120931625366,clock,clock,bw,0280_cl_s03_bw_clock_40_n03196217_5365.png
subject-03,1,281,0.830840110778809,clock,clock,bw,0281_cl_s03_bw_clock_40_n03196217_711.png
subject-03,1,282,0.554693937301636,cat,cat,bw,0282_cl_s03_bw_cat_40_n02123597_2219.png
subject-03,1,283,1.39851498603821,chair,keyboard,cr,0283_cl_s03_cr_keyboard_40_n03085013_22837.png
subject-03,1,284,1.0622661113739,chair,chair,bw,0284_cl_s03_bw_chair_40_n04429376_14170.png
subject-03,1,285,0.834510803222656,keyboard,keyboard,cr,0285_cl_s03_cr_keyboard_40_n04505470_4906.png
subject-03,1,286,0.981884956359863,cat,cat,bw,0286_cl_s03_bw_cat_40_n02123159_1769.png
subject-03,1,287,0.616158962249756,bicycle,bicycle,bw,0287_cl_s03_bw_bicycle_40_n02835271_8529.png
subject-03,1,288,0.817652940750122,boat,oven,cr,0288_cl_s03_cr_oven_40_n04111531_8959.png
subject-03,1,289,0.863393068313599,bottle,bottle,bw,0289_cl_s03_bw_bottle_40_n02823428_1678.png
subject-03,1,290,0.725323915481567,chair,chair,cr,0290_cl_s03_cr_chair_40_n03376595_6570.png
subject-03,1,291,0.669008016586304,truck,truck,cr,0291_cl_s03_cr_truck_40_n04467665_4287.png
subject-03,1,292,0.856801986694336,bottle,bottle,cr,0292_cl_s03_cr_bottle_40_n02823428_5813.png
subject-03,1,293,0.606571912765503,bicycle,bicycle,bw,0293_cl_s03_bw_bicycle_40_n03792782_3783.png
subject-03,1,294,0.908771991729736,bottle,bottle,cr,0294_cl_s03_cr_bottle_40_n03937543_1231.png
subject-03,1,295,0.604407072067261,clock,clock,cr,0295_cl_s03_cr_clock_40_n02708093_57.png
subject-03,1,296,0.860353946685791,cat,cat,bw,0296_cl_s03_bw_cat_40_n02125311_46330.png
subject-03,1,297,1.50003504753113,bicycle,bicycle,bw,0297_cl_s03_bw_bicycle_40_n02835271_4742.png
subject-03,1,298,1.08400416374207,knife,knife,cr,0298_cl_s03_cr_knife_40_n03041632_44212.png
subject-03,1,299,0.70146107673645,cat,cat,bw,0299_cl_s03_bw_cat_40_n02124075_11252.png
subject-03,1,300,0.621569871902466,keyboard,keyboard,bw,0300_cl_s03_bw_keyboard_40_n03085013_24045.png
subject-03,1,301,0.917078971862793,car,car,cr,0301_cl_s03_cr_car_40_n03100240_2552.png
subject-03,1,302,0.623040914535522,cat,cat,bw,0302_cl_s03_bw_cat_40_n02123045_569.png
subject-03,1,303,0.846973896026611,bear,bear,bw,0303_cl_s03_bw_bear_40_n02132136_10134.png
subject-03,1,304,0.742623090744019,bottle,bottle,bw,0304_cl_s03_bw_bottle_40_n02823428_6830.png
subject-03,1,305,1.41439485549927,keyboard,oven,bw,0305_cl_s03_bw_oven_40_n04111531_14055.png
subject-03,1,306,0.772188186645508,keyboard,keyboard,cr,0306_cl_s03_cr_keyboard_40_n03085013_30335.png
subject-03,1,307,1.19204616546631,bottle,elephant,cr,0307_cl_s03_cr_elephant_40_n02504013_6167.png
subject-03,1,308,0.737957954406738,car,car,bw,0308_cl_s03_bw_car_40_n04285008_8784.png
subject-03,1,309,0.641832113265991,cat,cat,bw,0309_cl_s03_bw_cat_40_n02123045_8336.png
subject-03,1,310,0.777743101119995,car,car,bw,0310_cl_s03_bw_car_40_n02814533_12388.png
subject-03,1,311,0.73537278175354,airplane,airplane,cr,0311_cl_s03_cr_airplane_40_n02690373_4202.png
subject-03,1,312,0.687175989151001,boat,boat,bw,0312_cl_s03_bw_boat_40_n04273569_9821.png
subject-03,1,313,0.756889820098877,bicycle,bicycle,cr,0313_cl_s03_cr_bicycle_40_n02835271_8511.png
subject-03,1,314,0.781177043914795,car,truck,bw,0314_cl_s03_bw_truck_40_n04467665_22573.png
subject-03,1,315,1.14657187461853,car,truck,bw,0315_cl_s03_bw_truck_40_n03417042_27093.png
subject-03,1,316,0.776463985443115,truck,truck,bw,0316_cl_s03_bw_truck_40_n03417042_16871.png
subject-03,1,317,0.734127044677734,bear,bear,cr,0317_cl_s03_cr_bear_40_n02132136_4314.png
subject-03,1,318,0.838127136230469,car,car,cr,0318_cl_s03_cr_car_40_n02814533_83614.png
subject-03,1,319,0.765718936920166,bottle,bottle,bw,0319_cl_s03_bw_bottle_40_n02823428_3049.png
subject-03,1,320,1.10777807235718,airplane,airplane,cr,0320_cl_s03_cr_airplane_40_n02690373_4015.png
subject-03,1,321,0.628570079803467,truck,truck,cr,0321_cl_s03_cr_truck_40_n04467665_22838.png
subject-03,1,322,0.660254001617432,truck,truck,bw,0322_cl_s03_bw_truck_40_n03796401_27288.png
subject-03,1,323,0.728203058242798,clock,clock,cr,0323_cl_s03_cr_clock_40_n04548280_7153.png
subject-03,1,324,0.660362958908081,keyboard,keyboard,cr,0324_cl_s03_cr_keyboard_40_n03085013_19483.png
subject-03,1,325,0.623780965805054,boat,bear,bw,0325_cl_s03_bw_bear_40_n02133161_1360.png
subject-03,1,326,0.891556978225708,bird,bird,cr,0326_cl_s03_cr_bird_40_n02028035_12542.png
subject-03,1,327,0.77131986618042,bicycle,bicycle,cr,0327_cl_s03_cr_bicycle_40_n02835271_7351.png
subject-03,1,328,0.649041891098022,clock,clock,cr,0328_cl_s03_cr_clock_40_n02708093_6696.png
subject-03,1,329,1.03887987136841,bicycle,bicycle,bw,0329_cl_s03_bw_bicycle_40_n02835271_8137.png
subject-03,1,330,0.66668701171875,airplane,airplane,bw,0330_cl_s03_bw_airplane_40_n02690373_4269.png
subject-03,1,331,0.654409885406494,clock,clock,cr,0331_cl_s03_cr_clock_40_n03196217_970.png
subject-03,1,332,0.652256011962891,airplane,airplane,bw,0332_cl_s03_bw_airplane_40_n02690373_1492.png
subject-03,1,333,0.77619194984436,chair,chair,bw,0333_cl_s03_bw_chair_40_n04099969_4577.png
subject-03,1,334,0.937916994094849,knife,knife,cr,0334_cl_s03_cr_knife_40_n03041632_29125.png
subject-03,1,335,0.709938049316406,oven,oven,cr,0335_cl_s03_cr_oven_40_n04111531_8687.png
subject-03,1,336,0.655636072158813,oven,oven,bw,0336_cl_s03_bw_oven_40_n04111531_6120.png
subject-03,1,337,1.29336881637573,airplane,bottle,bw,0337_cl_s03_bw_bottle_40_n04591713_2680.png
subject-03,1,338,0.821326971054077,car,car,cr,0338_cl_s03_cr_car_40_n04285008_901.png
subject-03,1,339,1.03696393966675,bird,bird,bw,0339_cl_s03_bw_bird_40_n02009912_9425.png
subject-03,1,340,1.1149570941925,cat,keyboard,bw,0340_cl_s03_bw_keyboard_40_n03085013_23648.png
subject-03,1,341,0.628570079803467,cat,cat,bw,0341_cl_s03_bw_cat_40_n02123045_12762.png
subject-03,1,342,0.780575037002563,boat,boat,cr,0342_cl_s03_cr_boat_40_n03344393_5017.png
subject-03,1,343,0.630248069763184,oven,oven,bw,0343_cl_s03_bw_oven_40_n04111531_14329.png
subject-03,1,344,0.940268993377686,airplane,airplane,cr,0344_cl_s03_cr_airplane_40_n02690373_2075.png
subject-03,1,345,0.931875944137573,oven,truck,bw,0345_cl_s03_bw_truck_40_n04467665_66535.png
subject-03,1,346,0.679657936096191,chair,bicycle,bw,0346_cl_s03_bw_bicycle_40_n02835271_9434.png
subject-03,1,347,0.655670166015625,boat,boat,cr,0347_cl_s03_cr_boat_40_n03344393_3355.png
subject-03,1,348,0.677283048629761,chair,chair,cr,0348_cl_s03_cr_chair_40_n02791124_7424.png
subject-03,1,349,0.567198991775513,cat,cat,bw,0349_cl_s03_bw_cat_40_n02123045_1787.png
subject-03,1,350,0.954885959625244,car,boat,cr,0350_cl_s03_cr_boat_40_n02951358_10162.png
subject-03,1,351,0.724697828292847,car,car,bw,0351_cl_s03_bw_car_40_n04285008_15177.png
subject-03,1,352,0.634534120559692,chair,chair,cr,0352_cl_s03_cr_chair_40_n04429376_16325.png
subject-03,1,353,0.91845703125,oven,oven,bw,0353_cl_s03_bw_oven_40_n04111531_16463.png
subject-03,1,354,0.832354068756104,bird,bird,bw,0354_cl_s03_bw_bird_40_n02025239_7746.png
subject-03,1,355,0.776071071624756,bottle,bottle,bw,0355_cl_s03_bw_bottle_40_n04560804_10989.png
subject-03,1,356,0.614203929901123,knife,knife,bw,0356_cl_s03_bw_knife_40_n03041632_10109.png
subject-03,1,357,0.779583930969238,bird,bird,bw,0357_cl_s03_bw_bird_40_n01829413_1997.png
subject-03,1,358,0.877467155456543,cat,bear,cr,0358_cl_s03_cr_bear_40_n02132136_860.png
subject-03,1,359,0.637141942977905,airplane,airplane,bw,0359_cl_s03_bw_airplane_40_n02690373_2800.png
subject-03,1,360,0.773441076278687,cat,cat,bw,0360_cl_s03_bw_cat_40_n02125311_75445.png
subject-03,1,361,1.1430459022522,car,truck,bw,0361_cl_s03_bw_truck_40_n04467665_53635.png
subject-03,1,362,0.69055700302124,cat,cat,cr,0362_cl_s03_cr_cat_40_n02125311_4261.png
subject-03,1,363,0.756595134735107,truck,truck,bw,0363_cl_s03_bw_truck_40_n03417042_2056.png
subject-03,1,364,0.908225059509277,clock,clock,cr,0364_cl_s03_cr_clock_40_n02708093_444.png
subject-03,1,365,0.732161045074463,truck,truck,bw,0365_cl_s03_bw_truck_40_n04467665_10060.png
subject-03,1,366,1.37802886962891,clock,boat,bw,0366_cl_s03_bw_boat_40_n03344393_5322.png
subject-03,1,367,0.659779071807861,car,car,cr,0367_cl_s03_cr_car_40_n02814533_33205.png
subject-03,1,368,0.659503936767578,cat,cat,cr,0368_cl_s03_cr_cat_40_n02123597_660.png
subject-03,1,369,0.587387084960938,airplane,airplane,bw,0369_cl_s03_bw_airplane_40_n02690373_4233.png
subject-03,1,370,0.87705397605896,boat,chair,bw,0370_cl_s03_bw_chair_40_n02791124_2491.png
subject-03,1,371,1.18734288215637,bicycle,bicycle,bw,0371_cl_s03_bw_bicycle_40_n03792782_6194.png
subject-03,1,372,0.721149921417236,bicycle,bicycle,cr,0372_cl_s03_cr_bicycle_40_n03792782_32379.png
subject-03,1,373,0.740731954574585,truck,truck,cr,0373_cl_s03_cr_truck_40_n03417042_7005.png
subject-03,1,374,0.872513055801392,car,bear,cr,0374_cl_s03_cr_bear_40_n02134084_6669.png
subject-03,1,375,1.03448510169983,chair,chair,cr,0375_cl_s03_cr_chair_40_n03376595_6704.png
subject-03,1,376,1.40793704986572,bear,truck,bw,0376_cl_s03_bw_truck_40_n03417042_13635.png
subject-03,1,377,0.934067964553833,elephant,elephant,bw,0377_cl_s03_bw_elephant_40_n02504458_4633.png
subject-03,1,378,0.917819023132324,boat,oven,bw,0378_cl_s03_bw_oven_40_n04111531_3181.png
subject-03,1,379,0.72756290435791,airplane,airplane,cr,0379_cl_s03_cr_airplane_40_n02690373_2059.png
subject-03,1,380,0.759223937988281,oven,oven,cr,0380_cl_s03_cr_oven_40_n04111531_8688.png
subject-03,1,381,0.655112981796265,cat,cat,bw,0381_cl_s03_bw_cat_40_n02123597_9939.png
subject-03,1,382,0.738862991333008,keyboard,keyboard,cr,0382_cl_s03_cr_keyboard_40_n03085013_1797.png
subject-03,1,383,1.067058801651,cat,bear,bw,0383_cl_s03_bw_bear_40_n02134418_4456.png
subject-03,1,384,0.742476224899292,airplane,airplane,bw,0384_cl_s03_bw_airplane_40_n02690373_7107.png
subject-03,1,385,0.742346048355103,chair,chair,cr,0385_cl_s03_cr_chair_40_n02791124_2796.png
subject-03,1,386,0.970519065856934,dog,dog,bw,0386_cl_s03_bw_dog_40_n02095570_6717.png
subject-03,1,387,0.812205076217651,bottle,boat,cr,0387_cl_s03_cr_boat_40_n03344393_3337.png
subject-03,1,388,0.915889024734497,car,car,cr,0388_cl_s03_cr_car_40_n02814533_27942.png
subject-03,1,389,0.765686988830566,truck,truck,cr,0389_cl_s03_cr_truck_40_n03417042_9580.png
subject-03,1,390,0.661508083343506,bicycle,bicycle,bw,0390_cl_s03_bw_bicycle_40_n02835271_381.png
subject-03,1,391,0.83107590675354,bottle,keyboard,cr,0391_cl_s03_cr_keyboard_40_n04505470_3089.png
subject-03,1,392,0.831153869628906,bird,bird,bw,0392_cl_s03_bw_bird_40_n01614925_267.png
subject-03,1,393,1.50009799003601,keyboard,keyboard,bw,0393_cl_s03_bw_keyboard_40_n03085013_19916.png
subject-03,1,394,1.00865888595581,boat,boat,cr,0394_cl_s03_cr_boat_40_n03344393_2408.png
subject-03,1,395,0.694398880004883,airplane,airplane,cr,0395_cl_s03_cr_airplane_40_n02690373_9626.png
subject-03,1,396,0.90038013458252,bear,bear,cr,0396_cl_s03_cr_bear_40_n02133161_7604.png
subject-03,1,397,0.916491985321045,chair,elephant,cr,0397_cl_s03_cr_elephant_40_n02504013_8497.png
subject-03,1,398,0.745859146118164,airplane,airplane,bw,0398_cl_s03_bw_airplane_40_n02690373_5909.png
subject-03,1,399,0.781887054443359,chair,chair,cr,0399_cl_s03_cr_chair_40_n04099969_7998.png
subject-03,1,400,1.04160189628601,truck,truck,bw,0400_cl_s03_bw_truck_40_n03417042_29849.png
subject-03,1,401,0.669007062911987,bicycle,bicycle,cr,0401_cl_s03_cr_bicycle_40_n03792782_5864.png
subject-03,1,402,0.934761047363281,bicycle,bicycle,cr,0402_cl_s03_cr_bicycle_40_n02835271_13023.png
subject-03,1,403,0.756829977035522,car,car,bw,0403_cl_s03_bw_car_40_n03100240_15407.png
subject-03,1,404,0.976334810256958,bird,bird,bw,0404_cl_s03_bw_bird_40_n01531178_32624.png
subject-03,1,405,0.564409017562866,knife,knife,bw,0405_cl_s03_bw_knife_40_n03041632_35365.png
subject-03,1,406,0.888208150863647,truck,car,bw,0406_cl_s03_bw_car_40_n02814533_35863.png
subject-03,1,407,0.691882848739624,knife,knife,bw,0407_cl_s03_bw_knife_40_n03041632_36215.png
subject-03,1,408,1.50000810623169,keyboard,keyboard,bw,0408_cl_s03_bw_keyboard_40_n03085013_22820.png
subject-03,1,409,0.603482007980347,car,car,cr,0409_cl_s03_cr_car_40_n02814533_76817.png
subject-03,1,410,0.523423910140991,airplane,airplane,bw,0410_cl_s03_bw_airplane_40_n02690373_2514.png
subject-03,1,411,0.987110137939453,airplane,airplane,cr,0411_cl_s03_cr_airplane_40_n02690373_9086.png
subject-03,1,412,0.76708984375,clock,clock,cr,0412_cl_s03_cr_clock_40_n02708093_2394.png
subject-03,1,413,0.788857936859131,car,car,bw,0413_cl_s03_bw_car_40_n04285008_2906.png
subject-03,1,414,0.828569173812866,truck,boat,cr,0414_cl_s03_cr_boat_40_n03662601_24852.png
subject-03,1,415,1.12246513366699,bear,bear,bw,0415_cl_s03_bw_bear_40_n02134084_742.png
subject-03,1,416,1.0142068862915,keyboard,chair,bw,0416_cl_s03_bw_chair_40_n04099969_1775.png
subject-03,1,417,1.14798212051392,bird,bird,bw,0417_cl_s03_bw_bird_40_n02006656_6733.png
subject-03,1,418,0.807911157608032,chair,chair,bw,0418_cl_s03_bw_chair_40_n04099969_6309.png
subject-03,1,419,1.29000616073608,knife,knife,bw,0419_cl_s03_bw_knife_40_n03041632_11186.png
subject-03,1,420,1.02148413658142,bear,bear,cr,0420_cl_s03_cr_bear_40_n02132136_5158.png
subject-03,1,421,1.36530303955078,bottle,bottle,cr,0421_cl_s03_cr_bottle_40_n04579145_7431.png
subject-03,1,422,0.631227016448975,bird,bird,cr,0422_cl_s03_cr_bird_40_n01833805_4859.png
subject-03,1,423,0.465189933776855,clock,clock,cr,0423_cl_s03_cr_clock_40_n04548280_2988.png
subject-03,1,424,1.11887288093567,dog,dog,bw,0424_cl_s03_bw_dog_40_n02093256_1653.png
subject-03,1,425,0.650605916976929,boat,boat,cr,0425_cl_s03_cr_boat_40_n03662601_27165.png
subject-03,1,426,1.18633103370667,elephant,elephant,cr,0426_cl_s03_cr_elephant_40_n02504013_4038.png
subject-03,1,427,0.708295106887817,bird,bird,cr,0427_cl_s03_cr_bird_40_n01601694_24991.png
subject-03,1,428,1.04791307449341,bird,bird,cr,0428_cl_s03_cr_bird_40_n01833805_8584.png
subject-03,1,429,1.02378582954407,bicycle,bicycle,bw,0429_cl_s03_bw_bicycle_40_n03792782_5323.png
subject-03,1,430,0.811551094055176,chair,chair,cr,0430_cl_s03_cr_chair_40_n02791124_392.png
subject-03,1,431,0.803488969802856,car,car,bw,0431_cl_s03_bw_car_40_n03100240_2583.png
subject-03,1,432,0.835142850875854,elephant,elephant,bw,0432_cl_s03_bw_elephant_40_n02504458_6930.png
subject-03,1,433,0.881407022476196,truck,truck,cr,0433_cl_s03_cr_truck_40_n03796401_23711.png
subject-03,1,434,1.19891405105591,bicycle,bicycle,bw,0434_cl_s03_bw_bicycle_40_n03792782_13665.png
subject-03,1,435,0.830631971359253,truck,truck,bw,0435_cl_s03_bw_truck_40_n03796401_4423.png
subject-03,1,436,0.976621866226196,chair,chair,cr,0436_cl_s03_cr_chair_40_n04429376_7089.png
subject-03,1,437,1.04827404022217,bottle,bottle,bw,0437_cl_s03_bw_bottle_40_n04591713_7959.png
subject-03,1,438,0.764246940612793,clock,clock,bw,0438_cl_s03_bw_clock_40_n04548280_4346.png
subject-03,1,439,0.949815988540649,clock,clock,bw,0439_cl_s03_bw_clock_40_n02708093_3484.png
subject-03,1,440,1.02383208274841,airplane,airplane,bw,0440_cl_s03_bw_airplane_40_n02690373_4134.png
subject-03,1,441,0.669579029083252,bird,bird,bw,0441_cl_s03_bw_bird_40_n01560419_5714.png
subject-03,1,442,1.27945613861084,knife,knife,bw,0442_cl_s03_bw_knife_40_n03041632_3063.png
subject-03,1,443,0.837223052978516,bird,bird,cr,0443_cl_s03_cr_bird_40_n02011460_2435.png
subject-03,1,444,0.945007801055908,bird,bird,bw,0444_cl_s03_bw_bird_40_n02009229_12179.png
subject-03,1,445,0.740782976150513,clock,clock,bw,0445_cl_s03_bw_clock_40_n04548280_1202.png
subject-03,1,446,0.776506900787354,clock,clock,cr,0446_cl_s03_cr_clock_40_n03196217_9736.png
subject-03,1,447,0.840373992919922,bear,bear,cr,0447_cl_s03_cr_bear_40_n02134418_1351.png
subject-03,1,448,0.808444976806641,chair,chair,cr,0448_cl_s03_cr_chair_40_n04429376_21081.png
subject-03,1,449,1.19596195220947,elephant,elephant,bw,0449_cl_s03_bw_elephant_40_n02504458_4570.png
subject-03,1,450,0.653799057006836,cat,cat,cr,0450_cl_s03_cr_cat_40_n02123045_2968.png
subject-03,1,451,0.965611934661865,bear,bear,cr,0451_cl_s03_cr_bear_40_n02134084_1090.png
subject-03,1,452,0.907833099365234,dog,dog,bw,0452_cl_s03_bw_dog_40_n02111129_797.png
subject-03,1,453,0.615272998809814,clock,clock,cr,0453_cl_s03_cr_clock_40_n02708093_8267.png
subject-03,1,454,0.795056104660034,oven,oven,cr,0454_cl_s03_cr_oven_40_n04111531_3570.png
subject-03,1,455,1.3088231086731,bottle,bottle,bw,0455_cl_s03_bw_bottle_40_n03937543_5088.png
subject-03,1,456,0.846611022949219,truck,truck,bw,0456_cl_s03_bw_truck_40_n04467665_30683.png
subject-03,1,457,0.770639896392822,car,car,bw,0457_cl_s03_bw_car_40_n02814533_85368.png
subject-03,1,458,0.992272853851318,chair,clock,cr,0458_cl_s03_cr_clock_40_n04548280_4349.png
subject-03,1,459,0.702054977416992,bicycle,bicycle,bw,0459_cl_s03_bw_bicycle_40_n03792782_47426.png
subject-03,1,460,1.03799700737,bicycle,bicycle,bw,0460_cl_s03_bw_bicycle_40_n03792782_2628.png
subject-03,1,461,0.965619087219238,dog,dog,bw,0461_cl_s03_bw_dog_40_n02105855_17596.png
subject-03,1,462,0.849536180496216,bear,keyboard,bw,0462_cl_s03_bw_keyboard_40_n03085013_3910.png
subject-03,1,463,0.675459146499634,boat,boat,bw,0463_cl_s03_bw_boat_40_n04612504_26666.png
subject-03,1,464,1.18955302238464,bird,bird,bw,0464_cl_s03_bw_bird_40_n02009912_1919.png
subject-03,1,465,0.646969079971313,cat,cat,bw,0465_cl_s03_bw_cat_40_n02125311_31318.png
subject-03,1,466,0.772845983505249,airplane,airplane,bw,0466_cl_s03_bw_airplane_40_n02690373_1442.png
subject-03,1,467,1.14669990539551,car,car,cr,0467_cl_s03_cr_car_40_n03100240_770.png
subject-03,1,468,1.50008082389832,dog,dog,cr,0468_cl_s03_cr_dog_40_n02100236_5828.png
subject-03,1,469,1.17624115943909,bird,bird,bw,0469_cl_s03_bw_bird_40_n01819313_146.png
subject-03,1,470,1.02439093589783,cat,cat,cr,0470_cl_s03_cr_cat_40_n02123394_3605.png
subject-03,1,471,0.529857158660889,clock,clock,cr,0471_cl_s03_cr_clock_40_n02708093_6610.png
subject-03,1,472,1.11587500572205,elephant,elephant,cr,0472_cl_s03_cr_elephant_40_n02504458_2607.png
subject-03,1,473,0.643380880355835,airplane,airplane,cr,0473_cl_s03_cr_airplane_40_n02690373_6543.png
subject-03,1,474,0.807430982589722,oven,chair,bw,0474_cl_s03_bw_chair_40_n04429376_2304.png
subject-03,1,475,0.847115039825439,elephant,elephant,bw,0475_cl_s03_bw_elephant_40_n02504458_5799.png
subject-03,1,476,0.710957050323486,cat,cat,bw,0476_cl_s03_bw_cat_40_n02125311_20219.png
subject-03,1,477,0.838626861572266,airplane,airplane,cr,0477_cl_s03_cr_airplane_40_n02690373_5342.png
subject-03,1,478,0.912944078445435,keyboard,keyboard,cr,0478_cl_s03_cr_keyboard_40_n04505470_2321.png
subject-03,1,479,1.09240007400513,bicycle,bicycle,cr,0479_cl_s03_cr_bicycle_40_n03792782_3342.png
subject-03,1,480,1.00434589385986,knife,knife,bw,0480_cl_s03_bw_knife_40_n03041632_37513.png
subject-03,1,481,0.997714996337891,oven,bottle,bw,0481_cl_s03_bw_bottle_40_n02823428_3298.png
subject-03,1,482,0.713674068450928,airplane,airplane,bw,0482_cl_s03_bw_airplane_40_n02690373_4107.png
subject-03,1,483,0.695343017578125,car,car,cr,0483_cl_s03_cr_car_40_n04285008_6200.png
subject-03,1,484,1.34527897834778,knife,knife,cr,0484_cl_s03_cr_knife_40_n03041632_4708.png
subject-03,1,485,1.24090719223022,bottle,dog,cr,0485_cl_s03_cr_dog_40_n02090622_11748.png
subject-03,1,486,0.952858924865723,boat,knife,bw,0486_cl_s03_bw_knife_40_n03041632_5102.png
subject-03,1,487,0.628565073013306,bear,bear,cr,0487_cl_s03_cr_bear_40_n02133161_574.png
subject-03,1,488,0.548470973968506,oven,oven,cr,0488_cl_s03_cr_oven_40_n04111531_9498.png
subject-03,1,489,1.28432011604309,elephant,elephant,cr,0489_cl_s03_cr_elephant_40_n02504013_6731.png
subject-03,1,490,0.8281409740448,clock,clock,cr,0490_cl_s03_cr_clock_40_n03196217_3267.png
subject-03,1,491,0.983881950378418,oven,oven,cr,0491_cl_s03_cr_oven_40_n04111531_6412.png
subject-03,1,492,0.717999935150146,boat,boat,bw,0492_cl_s03_bw_boat_40_n04612504_1748.png
subject-03,1,493,1.20778584480286,chair,knife,cr,0493_cl_s03_cr_knife_40_n03041632_83472.png
subject-03,1,494,0.731475830078125,truck,truck,bw,0494_cl_s03_bw_truck_40_n04467665_31376.png
subject-03,1,495,0.677654027938843,clock,clock,bw,0495_cl_s03_bw_clock_40_n03196217_3689.png
subject-03,1,496,0.712884902954102,chair,chair,cr,0496_cl_s03_cr_chair_40_n04099969_4543.png
subject-03,1,497,0.742890119552612,cat,cat,cr,0497_cl_s03_cr_cat_40_n02125311_12557.png
subject-03,1,498,0.670520067214966,airplane,airplane,cr,0498_cl_s03_cr_airplane_40_n02690373_6212.png
subject-03,1,499,0.712417125701904,bird,bird,bw,0499_cl_s03_bw_bird_40_n01795545_6290.png
subject-03,1,500,1.00810599327087,car,car,cr,0500_cl_s03_cr_car_40_n02814533_57176.png
subject-03,1,501,0.812268018722534,bird,bird,cr,0501_cl_s03_cr_bird_40_n01558993_11456.png
subject-03,1,502,1.34368991851807,boat,bicycle,bw,0502_cl_s03_bw_bicycle_40_n03792782_67333.png
subject-03,1,503,1.30952191352844,boat,boat,cr,0503_cl_s03_cr_boat_40_n02951358_30622.png
subject-03,1,504,1.03551912307739,elephant,elephant,bw,0504_cl_s03_bw_elephant_40_n02504458_5059.png
subject-03,1,505,0.689175128936768,bicycle,bicycle,cr,0505_cl_s03_cr_bicycle_40_n02835271_24104.png
subject-03,1,506,1.15295815467834,bear,bear,bw,0506_cl_s03_bw_bear_40_n02134418_1043.png
subject-03,1,507,0.728955984115601,keyboard,keyboard,bw,0507_cl_s03_bw_keyboard_40_n04505470_713.png
subject-03,1,508,0.832657814025879,boat,boat,bw,0508_cl_s03_bw_boat_40_n04273569_12917.png
subject-03,1,509,0.58453106880188,oven,oven,bw,0509_cl_s03_bw_oven_40_n04111531_8193.png
subject-03,1,510,1.34241795539856,cat,cat,cr,0510_cl_s03_cr_cat_40_n02124075_8351.png
subject-03,1,511,1.01224493980408,cat,cat,bw,0511_cl_s03_bw_cat_40_n02125311_17543.png
subject-03,1,512,1.20828914642334,chair,chair,bw,0512_cl_s03_bw_chair_40_n03376595_1766.png
subject-03,1,513,0.923648118972778,knife,knife,bw,0513_cl_s03_bw_knife_40_n03041632_4214.png
subject-03,1,514,0.933629989624023,keyboard,keyboard,cr,0514_cl_s03_cr_keyboard_40_n03085013_24538.png
subject-03,1,515,0.813380002975464,elephant,elephant,bw,0515_cl_s03_bw_elephant_40_n02504458_12303.png
subject-03,1,516,0.683449983596802,bicycle,bicycle,bw,0516_cl_s03_bw_bicycle_40_n02835271_12926.png
subject-03,1,517,0.697057008743286,bear,bear,cr,0517_cl_s03_cr_bear_40_n02134084_5274.png
subject-03,1,518,0.486863136291504,oven,oven,cr,0518_cl_s03_cr_oven_40_n04111531_2342.png
subject-03,1,519,0.954545021057129,knife,knife,cr,0519_cl_s03_cr_knife_40_n03041632_24060.png
subject-03,1,520,1.10879302024841,elephant,elephant,cr,0520_cl_s03_cr_elephant_40_n02504458_10439.png
subject-03,1,521,1.01258206367493,bicycle,bottle,bw,0521_cl_s03_bw_bottle_40_n04557648_20614.png
subject-03,1,522,0.660129070281982,bottle,bottle,bw,0522_cl_s03_bw_bottle_40_n02823428_4405.png
subject-03,1,523,0.556040048599243,oven,oven,cr,0523_cl_s03_cr_oven_40_n04111531_11499.png
subject-03,1,524,0.781542062759399,oven,oven,cr,0524_cl_s03_cr_oven_40_n04111531_5290.png
subject-03,1,525,0.773569107055664,cat,cat,bw,0525_cl_s03_bw_cat_40_n02123394_4877.png
subject-03,1,526,0.673594951629639,keyboard,keyboard,bw,0526_cl_s03_bw_keyboard_40_n03085013_23534.png
subject-03,1,527,0.999238967895508,bird,bird,cr,0527_cl_s03_cr_bird_40_n01797886_3876.png
subject-03,1,528,0.676893949508667,cat,cat,cr,0528_cl_s03_cr_cat_40_n02124075_3533.png
subject-03,1,529,0.600571155548096,oven,oven,cr,0529_cl_s03_cr_oven_40_n04111531_4662.png
subject-03,1,530,1.2085599899292,boat,knife,cr,0530_cl_s03_cr_knife_40_n03041632_90125.png
subject-03,1,531,0.758211135864258,chair,chair,bw,0531_cl_s03_bw_chair_40_n04429376_27560.png
subject-03,1,532,0.546176910400391,clock,clock,cr,0532_cl_s03_cr_clock_40_n02708093_3621.png
subject-03,1,533,0.642073154449463,keyboard,keyboard,bw,0533_cl_s03_bw_keyboard_40_n04505470_4363.png
subject-03,1,534,0.703783988952637,bird,bird,cr,0534_cl_s03_cr_bird_40_n02007558_19064.png
subject-03,1,535,0.775701999664307,cat,cat,bw,0535_cl_s03_bw_cat_40_n02123394_5708.png
subject-03,1,536,1.09344100952148,knife,knife,cr,0536_cl_s03_cr_knife_40_n03041632_17285.png
subject-03,1,537,0.861078023910522,bear,bear,bw,0537_cl_s03_bw_bear_40_n02134084_1009.png
subject-03,1,538,0.7274010181427,car,car,cr,0538_cl_s03_cr_car_40_n03100240_7737.png
subject-03,1,539,0.982841968536377,airplane,airplane,cr,0539_cl_s03_cr_airplane_40_n02690373_2837.png
subject-03,1,540,0.680758953094482,oven,oven,bw,0540_cl_s03_bw_oven_40_n04111531_17922.png
subject-03,1,541,1.43642902374268,elephant,elephant,cr,0541_cl_s03_cr_elephant_40_n02504013_4590.png
subject-03,1,542,0.622460842132568,bicycle,bicycle,bw,0542_cl_s03_bw_bicycle_40_n03792782_9412.png
subject-03,1,543,0.594558000564575,oven,oven,bw,0543_cl_s03_bw_oven_40_n04111531_12830.png
subject-03,1,544,0.721982955932617,bear,bear,cr,0544_cl_s03_cr_bear_40_n02134084_1201.png
subject-03,1,545,0.761829853057861,bird,bear,cr,0545_cl_s03_cr_bear_40_n02133161_1916.png
subject-03,1,546,0.589698076248169,oven,oven,bw,0546_cl_s03_bw_oven_40_n04111531_887.png
subject-03,1,547,1.05136489868164,bird,bird,bw,0547_cl_s03_bw_bird_40_n01534433_8318.png
subject-03,1,548,0.777211904525757,car,car,cr,0548_cl_s03_cr_car_40_n02814533_6233.png
subject-03,1,549,0.557352066040039,keyboard,keyboard,bw,0549_cl_s03_bw_keyboard_40_n04505470_3065.png
subject-03,1,550,0.650782108306885,bicycle,bicycle,bw,0550_cl_s03_bw_bicycle_40_n03792782_4102.png
subject-03,1,551,0.956614017486572,boat,boat,cr,0551_cl_s03_cr_boat_40_n03662601_873.png
subject-03,1,552,0.694518089294434,bird,bird,cr,0552_cl_s03_cr_bird_40_n02002556_15337.png
subject-03,1,553,0.864183187484741,clock,clock,cr,0553_cl_s03_cr_clock_40_n04548280_13469.png
subject-03,1,554,0.658032894134521,airplane,airplane,bw,0554_cl_s03_bw_airplane_40_n02690373_6046.png
subject-03,1,555,0.48586893081665,cat,cat,cr,0555_cl_s03_cr_cat_40_n02123159_10952.png
subject-03,1,556,0.677762985229492,car,car,cr,0556_cl_s03_cr_car_40_n02814533_50194.png
subject-03,1,557,0.895401000976562,oven,keyboard,bw,0557_cl_s03_bw_keyboard_40_n03085013_7613.png
subject-03,1,558,0.63129997253418,oven,oven,bw,0558_cl_s03_bw_oven_40_n04111531_14959.png
subject-03,1,559,0.763145923614502,bird,bird,cr,0559_cl_s03_cr_bird_40_n01818515_10517.png
subject-03,1,560,0.751001119613647,clock,clock,cr,0560_cl_s03_cr_clock_40_n02708093_1559.png
subject-03,1,561,0.757104158401489,bottle,bottle,cr,0561_cl_s03_cr_bottle_40_n04557648_10744.png
subject-03,1,562,0.76292610168457,boat,boat,bw,0562_cl_s03_bw_boat_40_n02951358_32698.png
subject-03,1,563,0.980679988861084,elephant,elephant,cr,0563_cl_s03_cr_elephant_40_n02504458_169.png
subject-03,1,564,0.680755853652954,keyboard,keyboard,cr,0564_cl_s03_cr_keyboard_40_n03085013_2842.png
subject-03,1,565,0.610521078109741,bird,bird,bw,0565_cl_s03_bw_bird_40_n01817953_5039.png
subject-03,1,566,0.65013599395752,airplane,airplane,cr,0566_cl_s03_cr_airplane_40_n02690373_2293.png
subject-03,1,567,1.1139600276947,dog,dog,bw,0567_cl_s03_bw_dog_40_n02088466_5521.png
subject-03,1,568,0.719633102416992,knife,knife,bw,0568_cl_s03_bw_knife_40_n03041632_131.png
subject-03,1,569,0.977456092834473,elephant,elephant,cr,0569_cl_s03_cr_elephant_40_n02504013_3141.png
subject-03,1,570,0.64734411239624,bird,bird,cr,0570_cl_s03_cr_bird_40_n01855032_5511.png
subject-03,1,571,0.721055030822754,bicycle,bicycle,bw,0571_cl_s03_bw_bicycle_40_n02835271_6736.png
subject-03,1,572,0.742972850799561,bird,bird,bw,0572_cl_s03_bw_bird_40_n02002724_1459.png
subject-03,1,573,0.928928852081299,boat,boat,cr,0573_cl_s03_cr_boat_40_n03344393_6226.png
subject-03,1,574,1.2426860332489,oven,truck,bw,0574_cl_s03_bw_truck_40_n03417042_3039.png
subject-03,1,575,0.614371061325073,boat,boat,cr,0575_cl_s03_cr_boat_40_n02951358_8456.png
subject-03,1,576,0.522247076034546,oven,oven,bw,0576_cl_s03_bw_oven_40_n04111531_741.png
subject-03,1,577,0.754307985305786,cat,cat,bw,0577_cl_s03_bw_cat_40_n02123159_6041.png
subject-03,1,578,0.857899904251099,chair,chair,cr,0578_cl_s03_cr_chair_40_n04099969_23961.png
subject-03,1,579,0.85793399810791,bear,bear,bw,0579_cl_s03_bw_bear_40_n02133161_12187.png
subject-03,1,580,1.21527600288391,bird,bird,cr,0580_cl_s03_cr_bird_40_n01558993_7366.png
subject-03,1,581,0.975507974624634,car,car,bw,0581_cl_s03_bw_car_40_n03100240_9471.png
subject-03,1,582,0.841145992279053,bird,bird,cr,0582_cl_s03_cr_bird_40_n01855672_5670.png
subject-03,1,583,0.832709074020386,bear,bear,bw,0583_cl_s03_bw_bear_40_n02132136_1644.png
subject-03,1,584,0.784665822982788,elephant,elephant,cr,0584_cl_s03_cr_elephant_40_n02504458_1661.png
subject-03,1,585,0.878798007965088,bottle,bottle,cr,0585_cl_s03_cr_bottle_40_n03937543_2469.png
subject-03,1,586,0.96642804145813,elephant,elephant,bw,0586_cl_s03_bw_elephant_40_n02504013_9401.png
subject-03,1,587,0.882251024246216,knife,knife,cr,0587_cl_s03_cr_knife_40_n03041632_379.png
subject-03,1,588,0.983973979949951,knife,knife,bw,0588_cl_s03_bw_knife_40_n03041632_29037.png
subject-03,1,589,0.703888893127441,oven,oven,cr,0589_cl_s03_cr_oven_40_n04111531_584.png
subject-03,1,590,0.879561901092529,truck,truck,cr,0590_cl_s03_cr_truck_40_n03796401_8864.png
subject-03,1,591,0.959518909454346,cat,cat,bw,0591_cl_s03_bw_cat_40_n02124075_12369.png
subject-03,1,592,0.801238059997559,airplane,airplane,cr,0592_cl_s03_cr_airplane_40_n02690373_4695.png
subject-03,1,593,0.667061805725098,boat,boat,cr,0593_cl_s03_cr_boat_40_n03662601_26681.png
subject-03,1,594,0.693290948867798,airplane,airplane,bw,0594_cl_s03_bw_airplane_40_n02690373_3620.png
subject-03,1,595,0.666659832000732,clock,clock,bw,0595_cl_s03_bw_clock_40_n04548280_21263.png
subject-03,1,596,0.804404973983765,elephant,elephant,cr,0596_cl_s03_cr_elephant_40_n02504013_5035.png
subject-03,1,597,0.678223848342896,bird,bird,bw,0597_cl_s03_bw_bird_40_n01601694_13054.png
subject-03,1,598,1.01408696174622,bottle,bottle,cr,0598_cl_s03_cr_bottle_40_n04579145_1134.png
subject-03,1,599,0.619884014129639,cat,cat,bw,0599_cl_s03_bw_cat_40_n02123045_6773.png
subject-03,1,600,0.83807110786438,elephant,elephant,bw,0600_cl_s03_bw_elephant_40_n02504458_3485.png
subject-03,1,601,0.525599002838135,clock,clock,cr,0601_cl_s03_cr_clock_40_n04548280_5237.png
subject-03,1,602,1.06936502456665,bear,bear,bw,0602_cl_s03_bw_bear_40_n02134418_7795.png
subject-03,1,603,0.637087106704712,keyboard,keyboard,cr,0603_cl_s03_cr_keyboard_40_n03085013_35084.png
subject-03,1,604,0.714813947677612,car,car,bw,0604_cl_s03_bw_car_40_n03100240_23849.png
subject-03,1,605,0.732607841491699,bird,bird,cr,0605_cl_s03_cr_bird_40_n01558993_5744.png
subject-03,1,606,0.608493089675903,oven,oven,cr,0606_cl_s03_cr_oven_40_n04111531_18430.png
subject-03,1,607,0.654331922531128,cat,cat,cr,0607_cl_s03_cr_cat_40_n02123394_2395.png
subject-03,1,608,0.842159986495972,knife,knife,bw,0608_cl_s03_bw_knife_40_n03041632_33739.png
subject-03,1,609,0.791857957839966,bird,bird,cr,0609_cl_s03_cr_bird_40_n01796340_5508.png
subject-03,1,610,0.68171501159668,bear,bear,cr,0610_cl_s03_cr_bear_40_n02134084_5822.png
subject-03,1,611,0.557797908782959,boat,boat,cr,0611_cl_s03_cr_boat_40_n03662601_8333.png
subject-03,1,612,0.703466176986694,keyboard,keyboard,cr,0612_cl_s03_cr_keyboard_40_n03085013_6644.png
subject-03,1,613,0.717158079147339,truck,truck,cr,0613_cl_s03_cr_truck_40_n03417042_7458.png
subject-03,1,614,0.693053960800171,bird,bird,cr,0614_cl_s03_cr_bird_40_n02025239_6030.png
subject-03,1,615,0.881186962127686,clock,clock,cr,0615_cl_s03_cr_clock_40_n04548280_4637.png
subject-03,1,616,0.814594984054565,airplane,airplane,bw,0616_cl_s03_bw_airplane_40_n02690373_9619.png
subject-03,1,617,1.28066110610962,elephant,elephant,cr,0617_cl_s03_cr_elephant_40_n02504013_7026.png
subject-03,1,618,0.992254018783569,cat,cat,bw,0618_cl_s03_bw_cat_40_n02124075_14425.png
subject-03,1,619,0.966232776641846,bicycle,bicycle,cr,0619_cl_s03_cr_bicycle_40_n02835271_17509.png
subject-03,1,620,1.09784603118896,truck,truck,bw,0620_cl_s03_bw_truck_40_n04467665_12177.png
subject-03,1,621,1.05019092559814,elephant,elephant,bw,0621_cl_s03_bw_elephant_40_n02504458_7133.png
subject-03,1,622,NaN,na,knife,bw,0622_cl_s03_bw_knife_40_n03041632_28009.png
subject-03,1,623,0.647265195846558,car,car,bw,0623_cl_s03_bw_car_40_n03100240_19223.png
subject-03,1,624,1.4050772190094,bird,bird,cr,0624_cl_s03_cr_bird_40_n01817953_10964.png
subject-03,1,625,1.06290483474731,chair,chair,bw,0625_cl_s03_bw_chair_40_n04429376_15334.png
subject-03,1,626,0.582713842391968,chair,chair,bw,0626_cl_s03_bw_chair_40_n03376595_6673.png
subject-03,1,627,0.838529825210571,bird,bird,bw,0627_cl_s03_bw_bird_40_n02027492_9786.png
subject-03,1,628,0.828508138656616,bear,bear,cr,0628_cl_s03_cr_bear_40_n02134084_868.png
subject-03,1,629,0.976337909698486,knife,knife,cr,0629_cl_s03_cr_knife_40_n03041632_45090.png
subject-03,1,630,0.974364042282104,chair,chair,bw,0630_cl_s03_bw_chair_40_n02791124_7324.png
subject-03,1,631,0.981712818145752,truck,truck,cr,0631_cl_s03_cr_truck_40_n03796401_8100.png
subject-03,1,632,0.753711938858032,truck,truck,bw,0632_cl_s03_bw_truck_40_n03417042_5229.png
subject-03,1,633,0.681411027908325,bottle,bottle,bw,0633_cl_s03_bw_bottle_40_n03983396_16300.png
subject-03,1,634,0.889258861541748,truck,truck,cr,0634_cl_s03_cr_truck_40_n04467665_68332.png
subject-03,1,635,1.27324199676514,bird,bird,bw,0635_cl_s03_bw_bird_40_n01818515_10536.png
subject-03,1,636,0.631025075912476,bear,bear,cr,0636_cl_s03_cr_bear_40_n02134084_13339.png
subject-03,1,637,0.818640947341919,elephant,elephant,bw,0637_cl_s03_bw_elephant_40_n02504013_53.png
subject-03,1,638,0.872590065002441,cat,cat,cr,0638_cl_s03_cr_cat_40_n02123045_9661.png
subject-03,1,639,1.29261112213135,bear,bear,bw,0639_cl_s03_bw_bear_40_n02132136_1626.png
subject-03,1,640,0.650229930877686,boat,boat,cr,0640_cl_s03_cr_boat_40_n04612504_18536.png
subject-03,1,641,0.896572828292847,truck,truck,cr,0641_cl_s03_cr_truck_40_n03796401_14203.png
subject-03,1,642,0.600415945053101,bottle,bottle,cr,0642_cl_s03_cr_bottle_40_n04557648_830.png
subject-03,1,643,0.53016996383667,boat,boat,bw,0643_cl_s03_bw_boat_40_n04273569_27625.png
subject-03,1,644,0.948343992233276,elephant,elephant,bw,0644_cl_s03_bw_elephant_40_n02504458_6721.png
subject-03,1,645,0.722135066986084,clock,clock,cr,0645_cl_s03_cr_clock_40_n03196217_4541.png
subject-03,1,646,0.541731119155884,clock,clock,bw,0646_cl_s03_bw_clock_40_n02708093_391.png
subject-03,1,647,0.445824146270752,boat,boat,cr,0647_cl_s03_cr_boat_40_n03662601_26298.png
subject-03,1,648,0.983256101608276,bird,bird,cr,0648_cl_s03_cr_bird_40_n02017213_7558.png
subject-03,1,649,0.70098090171814,boat,boat,bw,0649_cl_s03_bw_boat_40_n04273569_4044.png
subject-03,1,650,0.624951839447021,boat,boat,bw,0650_cl_s03_bw_boat_40_n03662601_8709.png
subject-03,1,651,0.833003044128418,knife,knife,cr,0651_cl_s03_cr_knife_40_n03041632_49570.png
subject-03,1,652,0.782413005828857,chair,chair,cr,0652_cl_s03_cr_chair_40_n04099969_17727.png
subject-03,1,653,0.878249883651733,oven,oven,cr,0653_cl_s03_cr_oven_40_n04111531_807.png
subject-03,1,654,0.958149909973145,elephant,elephant,cr,0654_cl_s03_cr_elephant_40_n02504458_6185.png
subject-03,1,655,0.767884016036987,bear,bear,bw,0655_cl_s03_bw_bear_40_n02134418_6123.png
subject-03,1,656,0.609805822372437,keyboard,keyboard,cr,0656_cl_s03_cr_keyboard_40_n03085013_19618.png
subject-03,1,657,0.583800077438354,car,car,cr,0657_cl_s03_cr_car_40_n04285008_874.png
subject-03,1,658,0.621412038803101,bottle,bottle,cr,0658_cl_s03_cr_bottle_40_n04579145_445.png
subject-03,1,659,1.14126181602478,elephant,cat,bw,0659_cl_s03_bw_cat_40_n02125311_7527.png
subject-03,1,660,0.512924909591675,clock,clock,cr,0660_cl_s03_cr_clock_40_n04548280_77.png
subject-03,1,661,0.551185131072998,cat,cat,bw,0661_cl_s03_bw_cat_40_n02123597_7142.png
subject-03,1,662,0.762578010559082,bicycle,bicycle,cr,0662_cl_s03_cr_bicycle_40_n02835271_4434.png
subject-03,1,663,0.586503028869629,oven,oven,cr,0663_cl_s03_cr_oven_40_n04111531_2296.png
subject-03,1,664,0.594696998596191,oven,oven,bw,0664_cl_s03_bw_oven_40_n04111531_8263.png
subject-03,1,665,0.58015513420105,cat,cat,cr,0665_cl_s03_cr_cat_40_n02123159_1339.png
subject-03,1,666,0.982349872589111,car,car,cr,0666_cl_s03_cr_car_40_n02814533_55399.png
subject-03,1,667,1.07376313209534,chair,bottle,cr,0667_cl_s03_cr_bottle_40_n04560804_15293.png
subject-03,1,668,0.893503904342651,truck,truck,bw,0668_cl_s03_bw_truck_40_n04467665_18234.png
subject-03,1,669,1.03717494010925,chair,chair,bw,0669_cl_s03_bw_chair_40_n04429376_21865.png
subject-03,1,670,0.755401849746704,clock,clock,cr,0670_cl_s03_cr_clock_40_n02708093_6766.png
subject-03,1,671,1.35485911369324,bottle,bottle,cr,0671_cl_s03_cr_bottle_40_n04560804_2005.png
subject-03,1,672,0.736613988876343,cat,cat,cr,0672_cl_s03_cr_cat_40_n02123045_7646.png
subject-03,1,673,1.32038688659668,boat,car,cr,0673_cl_s03_cr_car_40_n02814533_7769.png
subject-03,1,674,0.958248138427734,dog,dog,cr,0674_cl_s03_cr_dog_40_n02113799_6997.png
subject-03,1,675,0.576067924499512,boat,boat,bw,0675_cl_s03_bw_boat_40_n02951358_4128.png
subject-03,1,676,1.07390713691711,bird,bird,bw,0676_cl_s03_bw_bird_40_n02006656_3185.png
subject-03,1,677,0.666122913360596,boat,boat,cr,0677_cl_s03_cr_boat_40_n03662601_4437.png
subject-03,1,678,0.759592056274414,cat,dog,cr,0678_cl_s03_cr_dog_40_n02097298_4393.png
subject-03,1,679,1.50009202957153,cat,knife,cr,0679_cl_s03_cr_knife_40_n03041632_4305.png
subject-03,1,680,0.729121923446655,bicycle,bicycle,bw,0680_cl_s03_bw_bicycle_40_n03792782_551.png
subject-03,1,681,1.0090479850769,clock,clock,cr,0681_cl_s03_cr_clock_40_n03196217_1499.png
subject-03,1,682,0.842839002609253,dog,dog,cr,0682_cl_s03_cr_dog_40_n02093647_4091.png
subject-03,1,683,0.612618923187256,clock,clock,bw,0683_cl_s03_bw_clock_40_n04548280_4354.png
subject-03,1,684,0.666400909423828,oven,oven,bw,0684_cl_s03_bw_oven_40_n04111531_12468.png
subject-03,1,685,0.564301013946533,boat,boat,cr,0685_cl_s03_cr_boat_40_n02951358_34003.png
subject-03,1,686,0.532077074050903,oven,oven,bw,0686_cl_s03_bw_oven_40_n04111531_20359.png
subject-03,1,687,0.825731039047241,oven,oven,cr,0687_cl_s03_cr_oven_40_n04111531_2592.png
subject-03,1,688,0.801939964294434,bottle,bottle,bw,0688_cl_s03_bw_bottle_40_n04557648_5665.png
subject-03,1,689,0.791491985321045,car,car,cr,0689_cl_s03_cr_car_40_n02814533_27983.png
subject-03,1,690,0.775788068771362,bird,bird,bw,0690_cl_s03_bw_bird_40_n01514859_17156.png
subject-03,1,691,0.703244209289551,cat,cat,cr,0691_cl_s03_cr_cat_40_n02123597_12266.png
subject-03,1,692,0.576821804046631,car,car,bw,0692_cl_s03_bw_car_40_n02814533_92940.png
subject-03,1,693,0.70307183265686,cat,cat,cr,0693_cl_s03_cr_cat_40_n02125311_2959.png
subject-03,1,694,0.53864312171936,oven,oven,cr,0694_cl_s03_cr_oven_40_n04111531_6080.png
subject-03,1,695,1.01623392105103,bottle,bottle,bw,0695_cl_s03_bw_bottle_40_n02823428_3505.png
subject-03,1,696,0.976119995117188,knife,knife,bw,0696_cl_s03_bw_knife_40_n03041632_96714.png
subject-03,1,697,1.15607786178589,elephant,elephant,bw,0697_cl_s03_bw_elephant_40_n02504013_22388.png
subject-03,1,698,1.26969790458679,dog,bear,bw,0698_cl_s03_bw_bear_40_n02133161_1003.png
subject-03,1,699,0.693591117858887,airplane,airplane,bw,0699_cl_s03_bw_airplane_40_n02690373_7748.png
subject-03,1,700,0.555815935134888,airplane,airplane,bw,0700_cl_s03_bw_airplane_40_n02690373_17130.png
subject-03,1,701,0.563241004943848,cat,cat,bw,0701_cl_s03_bw_cat_40_n02123394_6598.png
subject-03,1,702,1.07718801498413,elephant,elephant,bw,0702_cl_s03_bw_elephant_40_n02504013_8638.png
subject-03,1,703,0.902910947799683,elephant,elephant,bw,0703_cl_s03_bw_elephant_40_n02504458_6995.png
subject-03,1,704,0.72866415977478,truck,truck,cr,0704_cl_s03_cr_truck_40_n03417042_8298.png
subject-03,1,705,1.45447206497192,dog,bear,cr,0705_cl_s03_cr_bear_40_n02134418_1253.png
subject-03,1,706,0.730239868164062,bird,bird,cr,0706_cl_s03_cr_bird_40_n01531178_5780.png
subject-03,1,707,0.829989194869995,bear,bear,bw,0707_cl_s03_bw_bear_40_n02134084_7841.png
subject-03,1,708,0.641862154006958,bottle,keyboard,cr,0708_cl_s03_cr_keyboard_40_n03085013_3489.png
subject-03,1,709,0.875906944274902,keyboard,keyboard,cr,0709_cl_s03_cr_keyboard_40_n03085013_7576.png
subject-03,1,710,1.07746410369873,oven,knife,bw,0710_cl_s03_bw_knife_40_n03041632_15299.png
subject-03,1,711,0.585445165634155,oven,oven,cr,0711_cl_s03_cr_oven_40_n04111531_14753.png
subject-03,1,712,0.809240818023682,elephant,elephant,cr,0712_cl_s03_cr_elephant_40_n02504458_481.png
subject-03,1,713,0.74494194984436,keyboard,keyboard,cr,0713_cl_s03_cr_keyboard_40_n04505470_4385.png
subject-03,1,714,0.978733062744141,truck,truck,cr,0714_cl_s03_cr_truck_40_n03796401_27184.png
subject-03,1,715,0.908615112304688,keyboard,keyboard,cr,0715_cl_s03_cr_keyboard_40_n04505470_2740.png
subject-03,1,716,1.00062608718872,bicycle,bicycle,cr,0716_cl_s03_cr_bicycle_40_n02835271_5886.png
subject-03,1,717,0.928162097930908,clock,clock,cr,0717_cl_s03_cr_clock_40_n02708093_4976.png
subject-03,1,718,0.640100002288818,keyboard,keyboard,bw,0718_cl_s03_bw_keyboard_40_n03085013_19197.png
subject-03,1,719,0.645914077758789,bird,bird,cr,0719_cl_s03_cr_bird_40_n01829413_122.png
subject-03,1,720,0.823737859725952,truck,truck,cr,0720_cl_s03_cr_truck_40_n03417042_14575.png
subject-03,1,721,0.578859090805054,keyboard,keyboard,cr,0721_cl_s03_cr_keyboard_40_n04505470_4356.png
subject-03,1,722,0.760694026947021,oven,knife,cr,0722_cl_s03_cr_knife_40_n03041632_18859.png
subject-03,1,723,0.646295785903931,boat,boat,cr,0723_cl_s03_cr_boat_40_n03662601_35008.png
subject-03,1,724,0.846647024154663,bottle,bottle,bw,0724_cl_s03_bw_bottle_40_n03983396_3173.png
subject-03,1,725,0.596045017242432,bicycle,bicycle,bw,0725_cl_s03_bw_bicycle_40_n02835271_506.png
subject-03,1,726,0.537921190261841,clock,clock,cr,0726_cl_s03_cr_clock_40_n03196217_3430.png
subject-03,1,727,1.06778717041016,chair,elephant,bw,0727_cl_s03_bw_elephant_40_n02504458_4908.png
subject-03,1,728,0.751910209655762,dog,dog,cr,0728_cl_s03_cr_dog_40_n02105505_4069.png
subject-03,1,729,0.64126181602478,boat,boat,bw,0729_cl_s03_bw_boat_40_n03344393_5066.png
subject-03,1,730,0.693079948425293,truck,truck,bw,0730_cl_s03_bw_truck_40_n04467665_71126.png
subject-03,1,731,1.24086999893188,oven,oven,cr,0731_cl_s03_cr_oven_40_n04111531_20028.png
subject-03,1,732,0.992932081222534,dog,dog,bw,0732_cl_s03_bw_dog_40_n02110806_21755.png
subject-03,1,733,0.53663182258606,boat,boat,bw,0733_cl_s03_bw_boat_40_n02951358_863.png
subject-03,1,734,1.50015711784363,boat,knife,bw,0734_cl_s03_bw_knife_40_n03041632_49363.png
subject-03,1,735,0.894449949264526,cat,cat,bw,0735_cl_s03_bw_cat_40_n02123159_2107.png
subject-03,1,736,0.860144138336182,oven,oven,bw,0736_cl_s03_bw_oven_40_n04111531_3353.png
subject-03,1,737,0.709760904312134,bicycle,bicycle,cr,0737_cl_s03_cr_bicycle_40_n03792782_18343.png
subject-03,1,738,0.651489973068237,keyboard,keyboard,cr,0738_cl_s03_cr_keyboard_40_n04505470_4594.png
subject-03,1,739,0.705618143081665,bicycle,bicycle,cr,0739_cl_s03_cr_bicycle_40_n03792782_18707.png
subject-03,1,740,0.811437845230103,elephant,elephant,bw,0740_cl_s03_bw_elephant_40_n02504458_5444.png
subject-03,1,741,0.629050970077515,airplane,airplane,bw,0741_cl_s03_bw_airplane_40_n02690373_3090.png
subject-03,1,742,0.698969125747681,airplane,airplane,cr,0742_cl_s03_cr_airplane_40_n02690373_8560.png
subject-03,1,743,0.790987968444824,dog,dog,bw,0743_cl_s03_bw_dog_40_n02099601_8005.png
subject-03,1,744,0.618458032608032,clock,clock,cr,0744_cl_s03_cr_clock_40_n02708093_6812.png
subject-03,1,745,NaN,na,knife,cr,0745_cl_s03_cr_knife_40_n03041632_94620.png
subject-03,1,746,0.588150978088379,cat,cat,cr,0746_cl_s03_cr_cat_40_n02125311_8567.png
subject-03,1,747,0.634346961975098,keyboard,keyboard,bw,0747_cl_s03_bw_keyboard_40_n03085013_20843.png
subject-03,1,748,0.891619205474854,boat,boat,cr,0748_cl_s03_cr_boat_40_n03344393_8160.png
subject-03,1,749,1.15750789642334,bird,bird,bw,0749_cl_s03_bw_bird_40_n02025239_2481.png
subject-03,1,750,0.563259840011597,keyboard,keyboard,cr,0750_cl_s03_cr_keyboard_40_n04505470_2787.png
subject-03,1,751,0.763118028640747,oven,oven,bw,0751_cl_s03_bw_oven_40_n04111531_5904.png
subject-03,1,752,0.861150026321411,bird,cat,bw,0752_cl_s03_bw_cat_40_n02125311_5300.png
subject-03,1,753,0.822881937026978,oven,knife,cr,0753_cl_s03_cr_knife_40_n03041632_6708.png
subject-03,1,754,1.50003504753113,dog,dog,bw,0754_cl_s03_bw_dog_40_n02106662_50272.png
subject-03,1,755,0.646402835845947,cat,cat,cr,0755_cl_s03_cr_cat_40_n02123394_979.png
subject-03,1,756,0.850459098815918,car,car,cr,0756_cl_s03_cr_car_40_n02814533_51190.png
subject-03,1,757,0.504106998443604,keyboard,keyboard,bw,0757_cl_s03_bw_keyboard_40_n03085013_7440.png
subject-03,1,758,0.705743074417114,clock,clock,bw,0758_cl_s03_bw_clock_40_n04548280_4839.png
subject-03,1,759,0.551634073257446,boat,boat,bw,0759_cl_s03_bw_boat_40_n03662601_6340.png
subject-03,1,760,0.65758204460144,chair,chair,bw,0760_cl_s03_bw_chair_40_n02791124_1443.png
subject-03,1,761,0.967483043670654,dog,dog,cr,0761_cl_s03_cr_dog_40_n02102177_5870.png
subject-03,1,762,1.0351870059967,bottle,bottle,cr,0762_cl_s03_cr_bottle_40_n03983396_21043.png
subject-03,1,763,1.19501709938049,dog,dog,bw,0763_cl_s03_bw_dog_40_n02090721_464.png
subject-03,1,764,0.632835149765015,airplane,airplane,cr,0764_cl_s03_cr_airplane_40_n02690373_5142.png
subject-03,1,765,0.788595199584961,elephant,elephant,cr,0765_cl_s03_cr_elephant_40_n02504458_5788.png
subject-03,1,766,0.800539016723633,airplane,airplane,cr,0766_cl_s03_cr_airplane_40_n02690373_6854.png
subject-03,1,767,1.01824116706848,dog,bear,cr,0767_cl_s03_cr_bear_40_n02134418_685.png
subject-03,1,768,0.557934999465942,boat,boat,bw,0768_cl_s03_bw_boat_40_n03344393_5296.png
subject-03,1,769,1.18584418296814,bottle,bottle,bw,0769_cl_s03_bw_bottle_40_n04557648_26823.png
subject-03,1,770,1.50007700920105,cat,oven,bw,0770_cl_s03_bw_oven_40_n04111531_8963.png
subject-03,1,771,0.575370073318481,airplane,airplane,bw,0771_cl_s03_bw_airplane_40_n02690373_18936.png
subject-03,1,772,0.839202880859375,keyboard,keyboard,cr,0772_cl_s03_cr_keyboard_40_n03085013_5622.png
subject-03,1,773,0.945344924926758,bottle,bottle,cr,0773_cl_s03_cr_bottle_40_n03937543_396.png
subject-03,1,774,0.726866006851196,airplane,airplane,cr,0774_cl_s03_cr_airplane_40_n02690373_713.png
subject-03,1,775,1.35058188438416,bicycle,bicycle,bw,0775_cl_s03_bw_bicycle_40_n02835271_5113.png
subject-03,1,776,0.652472019195557,airplane,airplane,cr,0776_cl_s03_cr_airplane_40_n02690373_6845.png
subject-03,1,777,0.896190881729126,bear,bear,bw,0777_cl_s03_bw_bear_40_n02134418_5405.png
subject-03,1,778,0.600259065628052,boat,boat,bw,0778_cl_s03_bw_boat_40_n04273569_23705.png
subject-03,1,779,0.8160719871521,truck,truck,bw,0779_cl_s03_bw_truck_40_n03796401_1758.png
subject-03,1,780,0.769760847091675,chair,chair,cr,0780_cl_s03_cr_chair_40_n04429376_7788.png
subject-03,1,781,0.50953483581543,oven,oven,bw,0781_cl_s03_bw_oven_40_n04111531_4012.png
subject-03,1,782,0.819411993026733,dog,dog,bw,0782_cl_s03_bw_dog_40_n02102973_5217.png
subject-03,1,783,0.743105173110962,clock,clock,cr,0783_cl_s03_cr_clock_40_n02708093_3595.png
subject-03,1,784,0.970942974090576,chair,chair,cr,0784_cl_s03_cr_chair_40_n03376595_9813.png
subject-03,1,785,0.862685918807983,knife,knife,cr,0785_cl_s03_cr_knife_40_n03041632_29276.png
subject-03,1,786,0.970553874969482,car,car,cr,0786_cl_s03_cr_car_40_n04285008_3453.png
subject-03,1,787,0.678432941436768,airplane,airplane,cr,0787_cl_s03_cr_airplane_40_n02690373_4578.png
subject-03,1,788,1.04230999946594,truck,truck,bw,0788_cl_s03_bw_truck_40_n03417042_17099.png
subject-03,1,789,0.705988168716431,chair,chair,cr,0789_cl_s03_cr_chair_40_n02791124_4528.png
subject-03,1,790,0.953742027282715,bottle,bottle,bw,0790_cl_s03_bw_bottle_40_n04560804_15679.png
subject-03,1,791,0.987740039825439,oven,bird,cr,0791_cl_s03_cr_bird_40_n01797886_6946.png
subject-03,1,792,0.983515977859497,bird,bird,cr,0792_cl_s03_cr_bird_40_n02007558_2822.png
subject-03,1,793,0.70728588104248,chair,chair,cr,0793_cl_s03_cr_chair_40_n03376595_1302.png
subject-03,1,794,NaN,na,bicycle,bw,0794_cl_s03_bw_bicycle_40_n03792782_7388.png
subject-03,1,795,0.74908709526062,chair,chair,bw,0795_cl_s03_bw_chair_40_n02791124_5690.png
subject-03,1,796,0.809091806411743,keyboard,keyboard,bw,0796_cl_s03_bw_keyboard_40_n04505470_5060.png
subject-03,1,797,0.744485139846802,bottle,bottle,bw,0797_cl_s03_bw_bottle_40_n03983396_2057.png
subject-03,1,798,0.61458683013916,keyboard,keyboard,cr,0798_cl_s03_cr_keyboard_40_n04505470_4878.png
subject-03,1,799,0.722406148910522,boat,boat,bw,0799_cl_s03_bw_boat_40_n04273569_10021.png
subject-03,1,800,0.665949821472168,bicycle,bicycle,cr,0800_cl_s03_cr_bicycle_40_n02835271_3308.png
subject-03,1,801,0.830351829528809,knife,knife,cr,0801_cl_s03_cr_knife_40_n03041632_23546.png
subject-03,1,802,0.669897079467773,knife,knife,bw,0802_cl_s03_bw_knife_40_n03041632_27575.png
subject-03,1,803,1.17746591567993,clock,clock,cr,0803_cl_s03_cr_clock_40_n04548280_7816.png
subject-03,1,804,0.861377000808716,elephant,elephant,cr,0804_cl_s03_cr_elephant_40_n02504013_2460.png
subject-03,1,805,0.955533027648926,bird,bird,bw,0805_cl_s03_bw_bird_40_n01616318_26436.png
subject-03,1,806,0.625146865844727,bicycle,bicycle,bw,0806_cl_s03_bw_bicycle_40_n03792782_710.png
subject-03,1,807,0.778757095336914,chair,chair,bw,0807_cl_s03_bw_chair_40_n04099969_22572.png
subject-03,1,808,0.62067985534668,clock,clock,cr,0808_cl_s03_cr_clock_40_n04548280_5889.png
subject-03,1,809,1.30442404747009,elephant,elephant,cr,0809_cl_s03_cr_elephant_40_n02504013_19831.png
subject-03,1,810,0.536162137985229,bear,bear,bw,0810_cl_s03_bw_bear_40_n02132136_7647.png
subject-03,1,811,0.792078018188477,keyboard,keyboard,cr,0811_cl_s03_cr_keyboard_40_n04505470_8575.png
subject-03,1,812,0.635843992233276,bottle,bottle,bw,0812_cl_s03_bw_bottle_40_n04557648_23801.png
subject-03,1,813,0.811728954315186,car,car,cr,0813_cl_s03_cr_car_40_n02814533_74825.png
subject-03,1,814,0.809478044509888,bear,bear,cr,0814_cl_s03_cr_bear_40_n02134084_13663.png
subject-03,1,815,0.985408067703247,car,bear,cr,0815_cl_s03_cr_bear_40_n02133161_9949.png
subject-03,1,816,0.933114051818848,knife,knife,bw,0816_cl_s03_bw_knife_40_n03041632_101553.png
subject-03,1,817,0.633087873458862,bottle,bottle,cr,0817_cl_s03_cr_bottle_40_n03983396_15260.png
subject-03,1,818,0.840731859207153,bear,bear,bw,0818_cl_s03_bw_bear_40_n02134084_32585.png
subject-03,1,819,0.682488918304443,clock,clock,bw,0819_cl_s03_bw_clock_40_n04548280_7813.png
subject-03,1,820,0.884397029876709,elephant,elephant,bw,0820_cl_s03_bw_elephant_40_n02504013_237.png
subject-03,1,821,0.704186201095581,bottle,bottle,bw,0821_cl_s03_bw_bottle_40_n04560804_29208.png
subject-03,1,822,0.638037919998169,bicycle,bicycle,cr,0822_cl_s03_cr_bicycle_40_n02835271_8180.png
subject-03,1,823,0.757745981216431,dog,dog,bw,0823_cl_s03_bw_dog_40_n02088466_3052.png
subject-03,1,824,0.86365795135498,elephant,elephant,cr,0824_cl_s03_cr_elephant_40_n02504458_7839.png
subject-03,1,825,1.04741501808167,chair,chair,bw,0825_cl_s03_bw_chair_40_n03376595_9695.png
subject-03,1,826,0.589247941970825,boat,boat,bw,0826_cl_s03_bw_boat_40_n02951358_34163.png
subject-03,1,827,1.10307693481445,dog,dog,bw,0827_cl_s03_bw_dog_40_n02091244_9271.png
subject-03,1,828,0.692953109741211,bird,bird,cr,0828_cl_s03_cr_bird_40_n01616318_4878.png
subject-03,1,829,0.812656879425049,car,car,bw,0829_cl_s03_bw_car_40_n04285008_11410.png
subject-03,1,830,0.592646837234497,bottle,bottle,cr,0830_cl_s03_cr_bottle_40_n03983396_4132.png
subject-03,1,831,0.682276010513306,bicycle,bicycle,bw,0831_cl_s03_bw_bicycle_40_n03792782_25799.png
subject-03,1,832,0.774187088012695,oven,oven,cr,0832_cl_s03_cr_oven_40_n04111531_13479.png
subject-03,1,833,0.691919088363647,clock,clock,bw,0833_cl_s03_bw_clock_40_n02708093_3691.png
subject-03,1,834,1.17377805709839,bicycle,truck,cr,0834_cl_s03_cr_truck_40_n04467665_37066.png
subject-03,1,835,0.695619106292725,bird,bird,bw,0835_cl_s03_bw_bird_40_n01592084_19555.png
subject-03,1,836,0.453299999237061,boat,boat,cr,0836_cl_s03_cr_boat_40_n04273569_17983.png
subject-03,1,837,0.679025888442993,keyboard,keyboard,bw,0837_cl_s03_bw_keyboard_40_n04505470_1600.png
subject-03,1,838,0.606931209564209,airplane,airplane,bw,0838_cl_s03_bw_airplane_40_n02690373_6406.png
subject-03,1,839,0.887006998062134,chair,chair,cr,0839_cl_s03_cr_chair_40_n03376595_3169.png
subject-03,1,840,0.774631977081299,keyboard,keyboard,cr,0840_cl_s03_cr_keyboard_40_n04505470_4770.png
subject-03,1,841,0.812528848648071,car,car,cr,0841_cl_s03_cr_car_40_n03100240_12146.png
subject-03,1,842,0.748247146606445,airplane,airplane,cr,0842_cl_s03_cr_airplane_40_n02690373_19438.png
subject-03,1,843,0.98207688331604,elephant,elephant,cr,0843_cl_s03_cr_elephant_40_n02504458_2190.png
subject-03,1,844,0.805674076080322,elephant,dog,bw,0844_cl_s03_bw_dog_40_n02088466_292.png
subject-03,1,845,0.615750074386597,keyboard,keyboard,bw,0845_cl_s03_bw_keyboard_40_n03085013_31513.png
subject-03,1,846,1.10541009902954,boat,dog,cr,0846_cl_s03_cr_dog_40_n02110185_7540.png
subject-03,1,847,0.681194067001343,oven,oven,cr,0847_cl_s03_cr_oven_40_n04111531_21931.png
subject-03,1,848,0.970978975296021,truck,truck,bw,0848_cl_s03_bw_truck_40_n04467665_22637.png
subject-03,1,849,0.692898035049438,oven,oven,cr,0849_cl_s03_cr_oven_40_n04111531_605.png
subject-03,1,850,0.683052062988281,bottle,bottle,cr,0850_cl_s03_cr_bottle_40_n04560804_545.png
subject-03,1,851,0.704499959945679,clock,clock,bw,0851_cl_s03_bw_clock_40_n02708093_3745.png
subject-03,1,852,0.742280960083008,airplane,airplane,bw,0852_cl_s03_bw_airplane_40_n02690373_4150.png
subject-03,1,853,0.966131925582886,dog,dog,cr,0853_cl_s03_cr_dog_40_n02100583_1267.png
subject-03,1,854,0.769963979721069,keyboard,keyboard,cr,0854_cl_s03_cr_keyboard_40_n04505470_1518.png
subject-03,1,855,0.853708982467651,airplane,airplane,cr,0855_cl_s03_cr_airplane_40_n02690373_1732.png
subject-03,1,856,0.829461097717285,truck,truck,bw,0856_cl_s03_bw_truck_40_n03796401_1853.png
subject-03,1,857,0.61529016494751,airplane,airplane,bw,0857_cl_s03_bw_airplane_40_n02690373_3899.png
subject-03,1,858,1.22710514068604,elephant,elephant,bw,0858_cl_s03_bw_elephant_40_n02504013_1060.png
subject-03,1,859,0.727041006088257,bird,bird,bw,0859_cl_s03_bw_bird_40_n01558993_6287.png
subject-03,1,860,0.718784809112549,knife,knife,cr,0860_cl_s03_cr_knife_40_n03041632_47410.png
subject-03,1,861,1.02859997749329,knife,bottle,bw,0861_cl_s03_bw_bottle_40_n03983396_20329.png
subject-03,1,862,0.808416128158569,elephant,elephant,cr,0862_cl_s03_cr_elephant_40_n02504013_6672.png
subject-03,1,863,0.650617837905884,truck,truck,cr,0863_cl_s03_cr_truck_40_n03417042_19479.png
subject-03,1,864,0.702084064483643,keyboard,keyboard,cr,0864_cl_s03_cr_keyboard_40_n03085013_21645.png
subject-03,1,865,1.43585276603699,chair,chair,cr,0865_cl_s03_cr_chair_40_n03376595_2056.png
subject-03,1,866,0.693671941757202,cat,cat,bw,0866_cl_s03_bw_cat_40_n02123045_6445.png
subject-03,1,867,0.739397048950195,chair,chair,cr,0867_cl_s03_cr_chair_40_n02791124_359.png
subject-03,1,868,0.853355169296265,truck,truck,cr,0868_cl_s03_cr_truck_40_n04467665_64492.png
subject-03,1,869,1.42911601066589,cat,bear,cr,0869_cl_s03_cr_bear_40_n02133161_575.png
subject-03,1,870,0.683247089385986,chair,knife,bw,0870_cl_s03_bw_knife_40_n03041632_33424.png
subject-03,1,871,0.877124071121216,keyboard,knife,bw,0871_cl_s03_bw_knife_40_n03041632_85416.png
subject-03,1,872,0.632510900497437,clock,clock,bw,0872_cl_s03_bw_clock_40_n03196217_5258.png
subject-03,1,873,0.908414840698242,dog,dog,bw,0873_cl_s03_bw_dog_40_n02110063_16336.png
subject-03,1,874,0.818259000778198,truck,truck,bw,0874_cl_s03_bw_truck_40_n03796401_8099.png
subject-03,1,875,0.622089147567749,clock,clock,bw,0875_cl_s03_bw_clock_40_n02708093_1430.png
subject-03,1,876,0.793887138366699,elephant,elephant,bw,0876_cl_s03_bw_elephant_40_n02504013_1560.png
subject-03,1,877,0.901524066925049,elephant,elephant,cr,0877_cl_s03_cr_elephant_40_n02504013_13560.png
subject-03,1,878,0.705625057220459,keyboard,keyboard,bw,0878_cl_s03_bw_keyboard_40_n04505470_6623.png
subject-03,1,879,0.695293188095093,bottle,bottle,bw,0879_cl_s03_bw_bottle_40_n03983396_11632.png
subject-03,1,880,0.685105085372925,clock,clock,cr,0880_cl_s03_cr_clock_40_n04548280_3605.png
subject-03,1,881,0.727599859237671,airplane,airplane,cr,0881_cl_s03_cr_airplane_40_n02690373_2648.png
subject-03,1,882,0.614974021911621,clock,clock,bw,0882_cl_s03_bw_clock_40_n04548280_17198.png
subject-03,1,883,0.840680122375488,chair,cat,bw,0883_cl_s03_bw_cat_40_n02123597_1544.png
subject-03,1,884,0.464485168457031,oven,oven,cr,0884_cl_s03_cr_oven_40_n04111531_14876.png
subject-03,1,885,0.578357934951782,keyboard,keyboard,cr,0885_cl_s03_cr_keyboard_40_n03085013_24001.png
subject-03,1,886,1.14057898521423,clock,bird,bw,0886_cl_s03_bw_bird_40_n01817953_6548.png
subject-03,1,887,0.848112106323242,dog,dog,bw,0887_cl_s03_bw_dog_40_n02097130_8277.png
subject-03,1,888,0.614025831222534,airplane,airplane,cr,0888_cl_s03_cr_airplane_40_n02690373_9939.png
subject-03,1,889,0.527733087539673,boat,boat,cr,0889_cl_s03_cr_boat_40_n02951358_12080.png
subject-03,1,890,1.14182090759277,cat,bottle,bw,0890_cl_s03_bw_bottle_40_n04591713_3896.png
subject-03,1,891,0.561305999755859,keyboard,keyboard,bw,0891_cl_s03_bw_keyboard_40_n03085013_23800.png
subject-03,1,892,1.34703516960144,dog,dog,cr,0892_cl_s03_cr_dog_40_n02099849_6488.png
subject-03,1,893,0.512866020202637,clock,clock,bw,0893_cl_s03_bw_clock_40_n04548280_4473.png
subject-03,1,894,0.7306809425354,truck,truck,bw,0894_cl_s03_bw_truck_40_n03417042_10043.png
subject-03,1,895,0.884510040283203,dog,dog,bw,0895_cl_s03_bw_dog_40_n02105056_15484.png
subject-03,1,896,0.670768976211548,bird,bird,cr,0896_cl_s03_cr_bird_40_n02013706_9024.png
subject-03,1,897,0.794388055801392,airplane,airplane,bw,0897_cl_s03_bw_airplane_40_n02690373_4195.png
subject-03,1,898,0.668015003204346,dog,dog,cr,0898_cl_s03_cr_dog_40_n02097130_456.png
subject-03,1,899,0.575779914855957,airplane,airplane,cr,0899_cl_s03_cr_airplane_40_n02690373_1233.png
subject-03,1,900,1.25950884819031,bottle,bottle,cr,0900_cl_s03_cr_bottle_40_n03937543_1486.png
subject-03,1,901,0.543409824371338,knife,knife,bw,0901_cl_s03_bw_knife_40_n03041632_13203.png
subject-03,1,902,0.931214094161987,cat,cat,bw,0902_cl_s03_bw_cat_40_n02123159_4879.png
subject-03,1,903,1.39115405082703,car,car,bw,0903_cl_s03_bw_car_40_n04285008_5997.png
subject-03,1,904,0.567235946655273,chair,chair,cr,0904_cl_s03_cr_chair_40_n03376595_19165.png
subject-03,1,905,1.06488513946533,dog,dog,cr,0905_cl_s03_cr_dog_40_n02088466_6371.png
subject-03,1,906,0.772434949874878,boat,boat,bw,0906_cl_s03_bw_boat_40_n02951358_34662.png
subject-03,1,907,0.636259794235229,bicycle,bicycle,bw,0907_cl_s03_bw_bicycle_40_n02835271_11332.png
subject-03,1,908,0.796200037002563,truck,truck,cr,0908_cl_s03_cr_truck_40_n03417042_5752.png
subject-03,1,909,0.81778883934021,oven,oven,cr,0909_cl_s03_cr_oven_40_n04111531_6609.png
subject-03,1,910,0.9496169090271,bicycle,bottle,cr,0910_cl_s03_cr_bottle_40_n03937543_4586.png
subject-03,1,911,0.851505041122437,bottle,bottle,bw,0911_cl_s03_bw_bottle_40_n04579145_5921.png
subject-03,1,912,0.66546893119812,cat,cat,bw,0912_cl_s03_bw_cat_40_n02123597_11981.png
subject-03,1,913,0.969315052032471,boat,oven,bw,0913_cl_s03_bw_oven_40_n04111531_19000.png
subject-03,1,914,0.493245124816895,oven,oven,bw,0914_cl_s03_bw_oven_40_n04111531_10436.png
subject-03,1,915,1.287113904953,bottle,knife,cr,0915_cl_s03_cr_knife_40_n03041632_14801.png
subject-03,1,916,0.586612939834595,bicycle,bicycle,cr,0916_cl_s03_cr_bicycle_40_n02835271_1426.png
subject-03,1,917,0.606482028961182,boat,boat,bw,0917_cl_s03_bw_boat_40_n02951358_7944.png
subject-03,1,918,0.774197101593018,oven,oven,bw,0918_cl_s03_bw_oven_40_n04111531_3575.png
subject-03,1,919,0.914129018783569,elephant,elephant,bw,0919_cl_s03_bw_elephant_40_n02504013_4071.png
subject-03,1,920,0.625860929489136,chair,chair,bw,0920_cl_s03_bw_chair_40_n02791124_14.png
subject-03,1,921,0.867835998535156,dog,dog,cr,0921_cl_s03_cr_dog_40_n02109525_12602.png
subject-03,1,922,0.793606042861938,elephant,elephant,cr,0922_cl_s03_cr_elephant_40_n02504013_10351.png
subject-03,1,923,0.887210845947266,bottle,bottle,bw,0923_cl_s03_bw_bottle_40_n04579145_1829.png
subject-03,1,924,0.645081043243408,bird,bird,cr,0924_cl_s03_cr_bird_40_n02056570_6364.png
subject-03,1,925,1.33873105049133,dog,oven,cr,0925_cl_s03_cr_oven_40_n04111531_9455.png
subject-03,1,926,1.27319693565369,dog,dog,bw,0926_cl_s03_bw_dog_40_n02099849_4121.png
subject-03,1,927,0.838495016098022,truck,truck,bw,0927_cl_s03_bw_truck_40_n03796401_713.png
subject-03,1,928,0.696375131607056,elephant,elephant,bw,0928_cl_s03_bw_elephant_40_n02504458_3714.png
subject-03,1,929,0.946233034133911,boat,boat,bw,0929_cl_s03_bw_boat_40_n03344393_547.png
subject-03,1,930,0.658203125,cat,bear,bw,0930_cl_s03_bw_bear_40_n02133161_13267.png
subject-03,1,931,0.641759157180786,bicycle,bicycle,bw,0931_cl_s03_bw_bicycle_40_n03792782_24591.png
subject-03,1,932,0.709666967391968,bicycle,bicycle,cr,0932_cl_s03_cr_bicycle_40_n02835271_10377.png
subject-03,1,933,0.723587036132812,elephant,elephant,bw,0933_cl_s03_bw_elephant_40_n02504458_4711.png
subject-03,1,934,0.621248960494995,bicycle,bicycle,cr,0934_cl_s03_cr_bicycle_40_n03792782_33853.png
subject-03,1,935,0.777241945266724,car,car,bw,0935_cl_s03_bw_car_40_n02814533_51154.png
subject-03,1,936,0.598982095718384,bicycle,bicycle,bw,0936_cl_s03_bw_bicycle_40_n02835271_12847.png
subject-03,1,937,0.936586856842041,elephant,elephant,bw,0937_cl_s03_bw_elephant_40_n02504013_2770.png
subject-03,1,938,0.504325866699219,boat,boat,cr,0938_cl_s03_cr_boat_40_n04273569_111.png
subject-03,1,939,0.902246952056885,car,car,cr,0939_cl_s03_cr_car_40_n04285008_6131.png
subject-03,1,940,0.515945911407471,oven,oven,bw,0940_cl_s03_bw_oven_40_n04111531_5328.png
subject-03,1,941,0.718104124069214,dog,dog,bw,0941_cl_s03_bw_dog_40_n02090721_4088.png
subject-03,1,942,0.607722043991089,cat,cat,bw,0942_cl_s03_bw_cat_40_n02123394_6698.png
subject-03,1,943,0.809432029724121,knife,knife,cr,0943_cl_s03_cr_knife_40_n03041632_32048.png
subject-03,1,944,0.963174104690552,truck,truck,cr,0944_cl_s03_cr_truck_40_n03417042_27404.png
subject-03,1,945,0.639005899429321,cat,keyboard,cr,0945_cl_s03_cr_keyboard_40_n03085013_20398.png
subject-03,1,946,1.00483584403992,truck,truck,bw,0946_cl_s03_bw_truck_40_n04467665_68331.png
subject-03,1,947,0.996721029281616,car,car,bw,0947_cl_s03_bw_car_40_n04285008_4834.png
subject-03,1,948,1.41844606399536,elephant,elephant,bw,0948_cl_s03_bw_elephant_40_n02504458_10344.png
subject-03,1,949,0.500411033630371,car,car,cr,0949_cl_s03_cr_car_40_n02814533_72213.png
subject-03,1,950,0.660124063491821,chair,chair,bw,0950_cl_s03_bw_chair_40_n02791124_3926.png
subject-03,1,951,0.512128114700317,cat,cat,bw,0951_cl_s03_bw_cat_40_n02123159_7851.png
subject-03,1,952,0.720168828964233,bicycle,bicycle,cr,0952_cl_s03_cr_bicycle_40_n02835271_8982.png
subject-03,1,953,0.66380500793457,keyboard,keyboard,cr,0953_cl_s03_cr_keyboard_40_n03085013_8936.png
subject-03,1,954,0.867521047592163,chair,chair,cr,0954_cl_s03_cr_chair_40_n03376595_3038.png
subject-03,1,955,0.91152811050415,knife,knife,bw,0955_cl_s03_bw_knife_40_n03041632_4808.png
subject-03,1,956,0.622996091842651,bottle,bottle,bw,0956_cl_s03_bw_bottle_40_n02823428_1154.png
subject-03,1,957,0.645255088806152,boat,boat,bw,0957_cl_s03_bw_boat_40_n03344393_11855.png
subject-03,1,958,0.722753047943115,bird,bird,bw,0958_cl_s03_bw_bird_40_n01833805_28946.png
subject-03,1,959,0.720784902572632,boat,bear,bw,0959_cl_s03_bw_bear_40_n02132136_18543.png
subject-03,1,960,0.800087928771973,truck,truck,bw,0960_cl_s03_bw_truck_40_n03417042_29855.png
subject-03,1,961,0.7621009349823,bird,bear,bw,0961_cl_s03_bw_bear_40_n02134084_3695.png
subject-03,1,962,0.718355894088745,bird,bird,cr,0962_cl_s03_cr_bird_40_n01860187_1258.png
subject-03,1,963,1.1078360080719,car,car,cr,0963_cl_s03_cr_car_40_n03100240_6627.png
subject-03,1,964,1.13151907920837,dog,elephant,bw,0964_cl_s03_bw_elephant_40_n02504458_1961.png
subject-03,1,965,0.701475143432617,keyboard,keyboard,bw,0965_cl_s03_bw_keyboard_40_n04505470_1903.png
subject-03,1,966,0.585330963134766,chair,chair,cr,0966_cl_s03_cr_chair_40_n03376595_8228.png
subject-03,1,967,1.00504207611084,bottle,bottle,cr,0967_cl_s03_cr_bottle_40_n03937543_3219.png
subject-03,1,968,0.674813032150269,keyboard,keyboard,bw,0968_cl_s03_bw_keyboard_40_n03085013_3632.png
subject-03,1,969,0.962871789932251,cat,dog,cr,0969_cl_s03_cr_dog_40_n02113023_8552.png
subject-03,1,970,0.630403995513916,bicycle,bicycle,cr,0970_cl_s03_cr_bicycle_40_n02835271_15524.png
subject-03,1,971,1.02820706367493,elephant,elephant,cr,0971_cl_s03_cr_elephant_40_n02504458_3525.png
subject-03,1,972,0.752405166625977,elephant,elephant,cr,0972_cl_s03_cr_elephant_40_n02504013_10330.png
subject-03,1,973,0.635895013809204,oven,oven,cr,0973_cl_s03_cr_oven_40_n04111531_7072.png
subject-03,1,974,0.547741174697876,cat,cat,cr,0974_cl_s03_cr_cat_40_n02125311_39106.png
subject-03,1,975,0.625641822814941,clock,clock,bw,0975_cl_s03_bw_clock_40_n02708093_4569.png
subject-03,1,976,0.943664073944092,oven,chair,bw,0976_cl_s03_bw_chair_40_n02791124_957.png
subject-03,1,977,0.615062952041626,cat,cat,cr,0977_cl_s03_cr_cat_40_n02123394_238.png
subject-03,1,978,0.761373043060303,keyboard,keyboard,cr,0978_cl_s03_cr_keyboard_40_n03085013_3795.png
subject-03,1,979,0.412798881530762,clock,clock,cr,0979_cl_s03_cr_clock_40_n04548280_6743.png
subject-03,1,980,0.662471055984497,boat,boat,cr,0980_cl_s03_cr_boat_40_n04273569_4324.png
subject-03,1,981,0.498221874237061,boat,boat,cr,0981_cl_s03_cr_boat_40_n03344393_5859.png
subject-03,1,982,0.816249847412109,boat,bottle,cr,0982_cl_s03_cr_bottle_40_n04557648_364.png
subject-03,1,983,0.477934122085571,cat,cat,bw,0983_cl_s03_bw_cat_40_n02125311_7729.png
subject-03,1,984,0.963953971862793,dog,dog,cr,0984_cl_s03_cr_dog_40_n02093647_1818.png
subject-03,1,985,0.87168288230896,bird,bird,cr,0985_cl_s03_cr_bird_40_n01860187_285.png
subject-03,1,986,0.563563108444214,oven,oven,cr,0986_cl_s03_cr_oven_40_n04111531_2937.png
subject-03,1,987,0.707724094390869,bottle,bottle,bw,0987_cl_s03_bw_bottle_40_n03983396_1006.png
subject-03,1,988,0.805438995361328,bird,bird,cr,0988_cl_s03_cr_bird_40_n02018207_7460.png
subject-03,1,989,0.800874948501587,cat,bear,cr,0989_cl_s03_cr_bear_40_n02132136_10060.png
subject-03,1,990,0.746565818786621,car,car,bw,0990_cl_s03_bw_car_40_n02814533_45594.png
subject-03,1,991,0.882609128952026,knife,knife,bw,0991_cl_s03_bw_knife_40_n03041632_30553.png
subject-03,1,992,0.772321939468384,oven,bottle,bw,0992_cl_s03_bw_bottle_40_n03983396_8684.png
subject-03,1,993,0.692243099212646,chair,chair,cr,0993_cl_s03_cr_chair_40_n04099969_13948.png
subject-03,1,994,0.642096042633057,cat,cat,cr,0994_cl_s03_cr_cat_40_n02123394_686.png
subject-03,1,995,0.765886068344116,chair,chair,bw,0995_cl_s03_bw_chair_40_n02791124_960.png
subject-03,1,996,0.818038940429688,truck,truck,cr,0996_cl_s03_cr_truck_40_n03796401_17318.png
subject-03,1,997,0.721428155899048,knife,knife,cr,0997_cl_s03_cr_knife_40_n03041632_13478.png
subject-03,1,998,0.751121997833252,cat,oven,bw,0998_cl_s03_bw_oven_40_n04111531_14559.png
subject-03,1,999,0.481385946273804,boat,boat,bw,0999_cl_s03_bw_boat_40_n03344393_3443.png
subject-03,1,1000,0.82332706451416,cat,cat,bw,1000_cl_s03_bw_cat_40_n02123045_3568.png
subject-03,1,1001,1.22725892066956,dog,dog,cr,1001_cl_s03_cr_dog_40_n02113624_9189.png
subject-03,1,1002,0.704389095306396,bottle,bottle,bw,1002_cl_s03_bw_bottle_40_n03937543_9756.png
subject-03,1,1003,1.09232306480408,clock,bottle,cr,1003_cl_s03_cr_bottle_40_n04591713_5559.png
subject-03,1,1004,0.76009202003479,clock,clock,bw,1004_cl_s03_bw_clock_40_n03196217_2414.png
subject-03,1,1005,0.949834108352661,boat,oven,bw,1005_cl_s03_bw_oven_40_n04111531_7189.png
subject-03,1,1006,0.96370005607605,chair,elephant,cr,1006_cl_s03_cr_elephant_40_n02504013_3197.png
subject-03,1,1007,0.735507011413574,cat,cat,cr,1007_cl_s03_cr_cat_40_n02123394_8268.png
subject-03,1,1008,0.72728705406189,keyboard,keyboard,bw,1008_cl_s03_bw_keyboard_40_n04505470_4202.png
subject-03,1,1009,1.12111806869507,cat,knife,bw,1009_cl_s03_bw_knife_40_n03041632_9302.png
subject-03,1,1010,0.920892953872681,truck,truck,bw,1010_cl_s03_bw_truck_40_n03417042_2794.png
subject-03,1,1011,0.608992099761963,oven,bottle,bw,1011_cl_s03_bw_bottle_40_n03937543_4850.png
subject-03,1,1012,0.950644016265869,dog,dog,cr,1012_cl_s03_cr_dog_40_n02111500_9179.png
subject-03,1,1013,1.10440993309021,bear,bear,bw,1013_cl_s03_bw_bear_40_n02134418_12628.png
subject-03,1,1014,0.730562925338745,keyboard,keyboard,bw,1014_cl_s03_bw_keyboard_40_n04505470_3957.png
subject-03,1,1015,0.716339111328125,keyboard,keyboard,bw,1015_cl_s03_bw_keyboard_40_n04505470_7312.png
subject-03,1,1016,0.585777044296265,truck,truck,cr,1016_cl_s03_cr_truck_40_n04467665_11299.png
subject-03,1,1017,0.783497095108032,bicycle,bicycle,bw,1017_cl_s03_bw_bicycle_40_n03792782_41992.png
subject-03,1,1018,0.665299892425537,boat,boat,bw,1018_cl_s03_bw_boat_40_n03662601_855.png
subject-03,1,1019,0.725412130355835,cat,cat,cr,1019_cl_s03_cr_cat_40_n02123045_5300.png
subject-03,1,1020,0.673470973968506,airplane,airplane,cr,1020_cl_s03_cr_airplane_40_n02690373_12813.png
subject-03,1,1021,0.735123872756958,car,car,bw,1021_cl_s03_bw_car_40_n04285008_12045.png
subject-03,1,1022,1.13903498649597,elephant,elephant,cr,1022_cl_s03_cr_elephant_40_n02504013_3485.png
subject-03,1,1023,0.78437614440918,knife,knife,cr,1023_cl_s03_cr_knife_40_n03041632_56436.png
subject-03,1,1024,0.588685989379883,clock,clock,cr,1024_cl_s03_cr_clock_40_n03196217_6193.png
subject-03,1,1025,0.8284010887146,car,car,cr,1025_cl_s03_cr_car_40_n03100240_9354.png
subject-03,1,1026,0.609987020492554,car,car,bw,1026_cl_s03_bw_car_40_n02814533_10557.png
subject-03,1,1027,0.939934968948364,bird,bird,bw,1027_cl_s03_bw_bird_40_n01843065_10565.png
subject-03,1,1028,0.801474809646606,elephant,elephant,bw,1028_cl_s03_bw_elephant_40_n02504458_3648.png
subject-03,1,1029,0.827616930007935,elephant,elephant,bw,1029_cl_s03_bw_elephant_40_n02504458_5972.png
subject-03,1,1030,0.7971351146698,cat,cat,cr,1030_cl_s03_cr_cat_40_n02123159_782.png
subject-03,1,1031,0.765323162078857,bird,bird,bw,1031_cl_s03_bw_bird_40_n02007558_5525.png
subject-03,1,1032,0.686834096908569,airplane,airplane,cr,1032_cl_s03_cr_airplane_40_n02690373_1235.png
subject-03,1,1033,0.850473880767822,chair,chair,bw,1033_cl_s03_bw_chair_40_n03376595_17859.png
subject-03,1,1034,1.03042888641357,oven,clock,bw,1034_cl_s03_bw_clock_40_n03196217_243.png
subject-03,1,1035,0.686316013336182,bird,bird,bw,1035_cl_s03_bw_bird_40_n01860187_210.png
subject-03,1,1036,1.15437006950378,keyboard,keyboard,bw,1036_cl_s03_bw_keyboard_40_n04505470_4549.png
subject-03,1,1037,0.788132190704346,chair,chair,bw,1037_cl_s03_bw_chair_40_n04099969_8934.png
subject-03,1,1038,1.11586594581604,keyboard,knife,bw,1038_cl_s03_bw_knife_40_n03041632_9580.png
subject-03,1,1039,1.5001368522644,dog,dog,bw,1039_cl_s03_bw_dog_40_n02092002_10760.png
subject-03,1,1040,0.773250102996826,bear,bear,bw,1040_cl_s03_bw_bear_40_n02132136_2463.png
subject-03,1,1041,0.530306100845337,bicycle,bicycle,cr,1041_cl_s03_cr_bicycle_40_n03792782_51414.png
subject-03,1,1042,0.727834224700928,bird,bird,cr,1042_cl_s03_cr_bird_40_n01843383_10720.png
subject-03,1,1043,0.565526008605957,airplane,airplane,bw,1043_cl_s03_bw_airplane_40_n02690373_971.png
subject-03,1,1044,0.673510074615479,airplane,airplane,bw,1044_cl_s03_bw_airplane_40_n02690373_1800.png
subject-03,1,1045,0.875322103500366,keyboard,keyboard,bw,1045_cl_s03_bw_keyboard_40_n04505470_4477.png
subject-03,1,1046,0.951040983200073,dog,dog,bw,1046_cl_s03_bw_dog_40_n02090721_6440.png
subject-03,1,1047,0.750855207443237,cat,bear,bw,1047_cl_s03_bw_bear_40_n02134418_496.png
subject-03,1,1048,0.836848020553589,car,car,bw,1048_cl_s03_bw_car_40_n04285008_7770.png
subject-03,1,1049,0.752584934234619,cat,cat,cr,1049_cl_s03_cr_cat_40_n02123159_2317.png
subject-03,1,1050,1.14843392372131,elephant,elephant,bw,1050_cl_s03_bw_elephant_40_n02504013_1953.png
subject-03,1,1051,1.38407301902771,bottle,bottle,cr,1051_cl_s03_cr_bottle_40_n03937543_4202.png
subject-03,1,1052,0.607976198196411,cat,cat,cr,1052_cl_s03_cr_cat_40_n02123045_5932.png
subject-03,1,1053,0.603842973709106,oven,oven,bw,1053_cl_s03_bw_oven_40_n04111531_9762.png
subject-03,1,1054,0.829668998718262,elephant,elephant,cr,1054_cl_s03_cr_elephant_40_n02504458_4554.png
subject-03,1,1055,0.781477928161621,car,car,cr,1055_cl_s03_cr_car_40_n04285008_7749.png
subject-03,1,1056,0.907272100448608,chair,chair,bw,1056_cl_s03_bw_chair_40_n04429376_12337.png
subject-03,1,1057,0.741072177886963,bicycle,bicycle,bw,1057_cl_s03_bw_bicycle_40_n02835271_17168.png
subject-03,1,1058,0.840985059738159,chair,chair,bw,1058_cl_s03_bw_chair_40_n02791124_3923.png
subject-03,1,1059,0.538770914077759,oven,oven,cr,1059_cl_s03_cr_oven_40_n04111531_2260.png
subject-03,1,1060,0.592441082000732,clock,clock,cr,1060_cl_s03_cr_clock_40_n02708093_3385.png
subject-03,1,1061,0.95420503616333,oven,knife,bw,1061_cl_s03_bw_knife_40_n03041632_22734.png
subject-03,1,1062,0.75652289390564,bottle,bottle,bw,1062_cl_s03_bw_bottle_40_n02823428_5265.png
subject-03,1,1063,0.673882961273193,truck,truck,bw,1063_cl_s03_bw_truck_40_n04467665_70308.png
subject-03,1,1064,0.499583959579468,oven,oven,bw,1064_cl_s03_bw_oven_40_n04111531_2207.png
subject-03,1,1065,0.711383104324341,chair,chair,cr,1065_cl_s03_cr_chair_40_n03376595_1773.png
subject-03,1,1066,0.5693199634552,knife,knife,cr,1066_cl_s03_cr_knife_40_n03041632_9671.png
subject-03,1,1067,1.34899497032166,bear,bear,bw,1067_cl_s03_bw_bear_40_n02132136_23853.png
subject-03,1,1068,0.558950185775757,boat,boat,bw,1068_cl_s03_bw_boat_40_n03344393_7659.png
subject-03,1,1069,0.730837106704712,bicycle,bicycle,cr,1069_cl_s03_cr_bicycle_40_n02835271_22536.png
subject-03,1,1070,1.11867594718933,dog,dog,cr,1070_cl_s03_cr_dog_40_n02097130_5045.png
subject-03,1,1071,0.722310066223145,keyboard,keyboard,cr,1071_cl_s03_cr_keyboard_40_n04505470_665.png
