subj,Session,trial,rt,object_response,category,condition,imagename
subject-04,1,1,1.18576312065125,knife,knife,bw,0001_cl_s04_bw_knife_40_n03041632_22734.png
subject-04,1,2,0.967399120330811,chair,chair,cr,0002_cl_s04_cr_chair_40_n02791124_7424.png
subject-04,1,3,0.883672952651978,bird,bird,cr,0003_cl_s04_cr_bird_40_n02013706_9024.png
subject-04,1,4,0.733103036880493,bear,bear,cr,0004_cl_s04_cr_bear_40_n02133161_12152.png
subject-04,1,5,0.924960136413574,truck,truck,bw,0005_cl_s04_bw_truck_40_n03417042_29855.png
subject-04,1,6,0.897058010101318,clock,clock,cr,0006_cl_s04_cr_clock_40_n04548280_5889.png
subject-04,1,7,0.674631118774414,boat,boat,cr,0007_cl_s04_cr_boat_40_n02951358_12080.png
subject-04,1,8,0.852317094802856,boat,boat,cr,0008_cl_s04_cr_boat_40_n03344393_4496.png
subject-04,1,9,0.884338140487671,truck,truck,cr,0009_cl_s04_cr_truck_40_n04467665_11299.png
subject-04,1,10,0.818016052246094,boat,boat,cr,0010_cl_s04_cr_boat_40_n03344393_3355.png
subject-04,1,11,0.835820913314819,bottle,bottle,bw,0011_cl_s04_bw_bottle_40_n03983396_11632.png
subject-04,1,12,0.929600954055786,dog,cat,bw,0012_cl_s04_bw_cat_40_n02125311_20219.png
subject-04,1,13,0.793605089187622,chair,chair,cr,0013_cl_s04_cr_chair_40_n02791124_4528.png
subject-04,1,14,0.923259019851685,knife,knife,cr,0014_cl_s04_cr_knife_40_n03041632_4279.png
subject-04,1,15,0.943478107452393,car,car,cr,0015_cl_s04_cr_car_40_n03100240_770.png
subject-04,1,16,0.804736137390137,bird,bird,bw,0016_cl_s04_bw_bird_40_n01531178_32624.png
subject-04,1,17,1.20071697235107,clock,oven,cr,0017_cl_s04_cr_oven_40_n04111531_807.png
subject-04,1,18,0.852480173110962,cat,cat,bw,0018_cl_s04_bw_cat_40_n02123597_11981.png
subject-04,1,19,0.608388900756836,boat,boat,bw,0019_cl_s04_bw_boat_40_n04273569_23705.png
subject-04,1,20,0.91419506072998,dog,dog,cr,0020_cl_s04_cr_dog_40_n02088466_6371.png
subject-04,1,21,0.897957801818848,bottle,bottle,bw,0021_cl_s04_bw_bottle_40_n04557648_5665.png
subject-04,1,22,0.745882987976074,bottle,bottle,bw,0022_cl_s04_bw_bottle_40_n02823428_10814.png
subject-04,1,23,1.37750697135925,elephant,elephant,bw,0023_cl_s04_bw_elephant_40_n02504458_7871.png
subject-04,1,24,1.01937198638916,bottle,bottle,cr,0024_cl_s04_cr_bottle_40_n04560804_19001.png
subject-04,1,25,0.775386095046997,oven,oven,bw,0025_cl_s04_bw_oven_40_n04111531_12103.png
subject-04,1,26,0.847217082977295,clock,clock,bw,0026_cl_s04_bw_clock_40_n02708093_544.png
subject-04,1,27,0.734735012054443,keyboard,keyboard,bw,0027_cl_s04_bw_keyboard_40_n03085013_6561.png
subject-04,1,28,0.936593055725098,truck,truck,bw,0028_cl_s04_bw_truck_40_n03417042_3039.png
subject-04,1,29,1.4104220867157,cat,cat,cr,0029_cl_s04_cr_cat_40_n02125311_6429.png
subject-04,1,30,NaN,na,clock,cr,0030_cl_s04_cr_clock_40_n04548280_4349.png
subject-04,1,31,1.38209295272827,chair,chair,cr,0031_cl_s04_cr_chair_40_n02791124_7942.png
subject-04,1,32,1.34806108474731,oven,bottle,bw,0032_cl_s04_bw_bottle_40_n02823428_3298.png
subject-04,1,33,0.811553955078125,dog,dog,cr,0033_cl_s04_cr_dog_40_n02099849_8726.png
subject-04,1,34,1.16138887405396,bear,bear,bw,0034_cl_s04_bw_bear_40_n02134418_5405.png
subject-04,1,35,1.49330496788025,bird,bird,cr,0035_cl_s04_cr_bird_40_n01797886_6946.png
subject-04,1,36,0.673031091690063,oven,oven,cr,0036_cl_s04_cr_oven_40_n04111531_14876.png
subject-04,1,37,0.898822069168091,airplane,airplane,cr,0037_cl_s04_cr_airplane_40_n02690373_303.png
subject-04,1,38,0.817022085189819,chair,chair,bw,0038_cl_s04_bw_chair_40_n02791124_14.png
subject-04,1,39,1.49256896972656,cat,cat,bw,0039_cl_s04_bw_cat_40_n02123597_1544.png
subject-04,1,40,0.862359046936035,chair,chair,bw,0040_cl_s04_bw_chair_40_n02791124_5690.png
subject-04,1,41,1.13421702384949,elephant,elephant,bw,0041_cl_s04_bw_elephant_40_n02504013_1060.png
subject-04,1,42,0.718265056610107,dog,dog,cr,0042_cl_s04_cr_dog_40_n02093991_434.png
subject-04,1,43,0.715978145599365,oven,oven,bw,0043_cl_s04_bw_oven_40_n04111531_12468.png
subject-04,1,44,0.697557926177979,truck,truck,cr,0044_cl_s04_cr_truck_40_n03417042_8046.png
subject-04,1,45,0.897812128067017,car,car,cr,0045_cl_s04_cr_car_40_n04285008_7749.png
subject-04,1,46,0.879226922988892,elephant,elephant,bw,0046_cl_s04_bw_elephant_40_n02504458_6930.png
subject-04,1,47,0.853087902069092,knife,knife,cr,0047_cl_s04_cr_knife_40_n03041632_11475.png
subject-04,1,48,0.790970087051392,boat,boat,cr,0048_cl_s04_cr_boat_40_n02951358_5355.png
subject-04,1,49,0.546712875366211,oven,chair,bw,0049_cl_s04_bw_chair_40_n04429376_2304.png
subject-04,1,50,0.90285587310791,cat,cat,cr,0050_cl_s04_cr_cat_40_n02123394_686.png
subject-04,1,51,1.03030800819397,oven,chair,bw,0051_cl_s04_bw_chair_40_n03376595_9695.png
subject-04,1,52,0.874014854431152,bird,bird,cr,0052_cl_s04_cr_bird_40_n01558993_7366.png
subject-04,1,53,0.747796058654785,bicycle,bicycle,bw,0053_cl_s04_bw_bicycle_40_n03792782_3783.png
subject-04,1,54,1.50011682510376,dog,dog,bw,0054_cl_s04_bw_dog_40_n02106550_12642.png
subject-04,1,55,0.933598041534424,bottle,bottle,bw,0055_cl_s04_bw_bottle_40_n02823428_3049.png
subject-04,1,56,0.679393768310547,dog,dog,bw,0056_cl_s04_bw_dog_40_n02101556_8410.png
subject-04,1,57,0.839087963104248,airplane,airplane,bw,0057_cl_s04_bw_airplane_40_n02690373_5838.png
subject-04,1,58,0.885118007659912,bicycle,bicycle,bw,0058_cl_s04_bw_bicycle_40_n03792782_7003.png
subject-04,1,59,0.838779926300049,chair,chair,cr,0059_cl_s04_cr_chair_40_n03376595_1302.png
subject-04,1,60,0.954683065414429,bicycle,bicycle,bw,0060_cl_s04_bw_bicycle_40_n02835271_6736.png
subject-04,1,61,0.606307983398438,oven,oven,cr,0061_cl_s04_cr_oven_40_n04111531_6412.png
subject-04,1,62,0.656262874603271,knife,knife,cr,0062_cl_s04_cr_knife_40_n03041632_992.png
subject-04,1,63,0.904017925262451,keyboard,keyboard,cr,0063_cl_s04_cr_keyboard_40_n04505470_213.png
subject-04,1,64,1.33191299438477,bear,elephant,bw,0064_cl_s04_bw_elephant_40_n02504013_1103.png
subject-04,1,65,0.951723098754883,boat,boat,bw,0065_cl_s04_bw_boat_40_n03662601_6340.png
subject-04,1,66,1.06776690483093,bird,bird,cr,0066_cl_s04_cr_bird_40_n01860187_285.png
subject-04,1,67,1.40751194953918,chair,elephant,cr,0067_cl_s04_cr_elephant_40_n02504013_6167.png
subject-04,1,68,0.911191940307617,chair,chair,cr,0068_cl_s04_cr_chair_40_n04429376_9432.png
subject-04,1,69,0.695137023925781,bicycle,bicycle,bw,0069_cl_s04_bw_bicycle_40_n02835271_8137.png
subject-04,1,70,0.85673713684082,bear,bear,cr,0070_cl_s04_cr_bear_40_n02133161_7604.png
subject-04,1,71,1.21056699752808,oven,oven,bw,0071_cl_s04_bw_oven_40_n04111531_14959.png
subject-04,1,72,0.788464069366455,bicycle,bicycle,bw,0072_cl_s04_bw_bicycle_40_n03792782_6194.png
subject-04,1,73,1.1061851978302,bicycle,bicycle,bw,0073_cl_s04_bw_bicycle_40_n02835271_506.png
subject-04,1,74,0.720334053039551,bottle,bottle,cr,0074_cl_s04_cr_bottle_40_n03983396_21043.png
subject-04,1,75,0.947879076004028,car,car,cr,0075_cl_s04_cr_car_40_n03100240_1910.png
subject-04,1,76,0.985512018203735,bicycle,bicycle,cr,0076_cl_s04_cr_bicycle_40_n02835271_15524.png
subject-04,1,77,0.725428104400635,dog,dog,cr,0077_cl_s04_cr_dog_40_n02107683_3640.png
subject-04,1,78,0.753206014633179,airplane,airplane,bw,0078_cl_s04_bw_airplane_40_n02690373_1442.png
subject-04,1,79,0.961045980453491,oven,oven,cr,0079_cl_s04_cr_oven_40_n04111531_1815.png
subject-04,1,80,0.89274787902832,dog,dog,cr,0080_cl_s04_cr_dog_40_n02100236_5828.png
subject-04,1,81,1.17807006835938,dog,dog,bw,0081_cl_s04_bw_dog_40_n02090721_4088.png
subject-04,1,82,0.697957038879395,airplane,airplane,bw,0082_cl_s04_bw_airplane_40_n02690373_4195.png
subject-04,1,83,0.717593193054199,keyboard,keyboard,bw,0083_cl_s04_bw_keyboard_40_n04505470_1903.png
subject-04,1,84,0.731537103652954,knife,knife,bw,0084_cl_s04_bw_knife_40_n03041632_11327.png
subject-04,1,85,0.973302125930786,truck,truck,cr,0085_cl_s04_cr_truck_40_n04467665_4899.png
subject-04,1,86,1.37749695777893,bear,bird,bw,0086_cl_s04_bw_bird_40_n01616318_1071.png
subject-04,1,87,0.846997976303101,knife,knife,cr,0087_cl_s04_cr_knife_40_n03041632_8618.png
subject-04,1,88,0.818773984909058,car,car,bw,0088_cl_s04_bw_car_40_n03100240_18873.png
subject-04,1,89,0.720762014389038,oven,oven,bw,0089_cl_s04_bw_oven_40_n04111531_5904.png
subject-04,1,90,1.1965320110321,car,car,bw,0090_cl_s04_bw_car_40_n04285008_5548.png
subject-04,1,91,0.568372964859009,keyboard,keyboard,bw,0091_cl_s04_bw_keyboard_40_n03085013_23534.png
subject-04,1,92,1.27001786231995,elephant,elephant,bw,0092_cl_s04_bw_elephant_40_n02504013_9401.png
subject-04,1,93,1.05804705619812,knife,oven,cr,0093_cl_s04_cr_oven_40_n04111531_12080.png
subject-04,1,94,0.927834987640381,truck,truck,bw,0094_cl_s04_bw_truck_40_n03417042_16871.png
subject-04,1,95,0.787410020828247,clock,clock,bw,0095_cl_s04_bw_clock_40_n02708093_3484.png
subject-04,1,96,0.971137046813965,cat,cat,bw,0096_cl_s04_bw_cat_40_n02123394_916.png
subject-04,1,97,0.576954126358032,airplane,airplane,bw,0097_cl_s04_bw_airplane_40_n02690373_5909.png
subject-04,1,98,0.756847143173218,elephant,elephant,cr,0098_cl_s04_cr_elephant_40_n02504013_4038.png
subject-04,1,99,0.834769010543823,truck,truck,bw,0099_cl_s04_bw_truck_40_n04467665_2230.png
subject-04,1,100,0.948479890823364,dog,cat,bw,0100_cl_s04_bw_cat_40_n02123394_5708.png
subject-04,1,101,1.11854600906372,boat,boat,bw,0101_cl_s04_bw_boat_40_n02951358_30020.png
subject-04,1,102,0.716133117675781,truck,truck,bw,0102_cl_s04_bw_truck_40_n03417042_13635.png
subject-04,1,103,0.702014923095703,elephant,elephant,cr,0103_cl_s04_cr_elephant_40_n02504458_1179.png
subject-04,1,104,0.901679039001465,airplane,boat,bw,0104_cl_s04_bw_boat_40_n03662601_1197.png
subject-04,1,105,0.815618991851807,dog,bear,cr,0105_cl_s04_cr_bear_40_n02133161_1490.png
subject-04,1,106,0.931472063064575,bear,bear,bw,0106_cl_s04_bw_bear_40_n02132136_1626.png
subject-04,1,107,0.911086082458496,knife,knife,bw,0107_cl_s04_bw_knife_40_n03041632_96345.png
subject-04,1,108,1.02097392082214,bicycle,bicycle,bw,0108_cl_s04_bw_bicycle_40_n03792782_710.png
subject-04,1,109,0.674813985824585,chair,chair,cr,0109_cl_s04_cr_chair_40_n03376595_8228.png
subject-04,1,110,0.796604871749878,car,car,cr,0110_cl_s04_cr_car_40_n02814533_57176.png
subject-04,1,111,0.670650005340576,elephant,elephant,bw,0111_cl_s04_bw_elephant_40_n02504458_12303.png
subject-04,1,112,0.788244962692261,bear,bear,bw,0112_cl_s04_bw_bear_40_n02132136_7647.png
subject-04,1,113,0.652198076248169,keyboard,oven,bw,0113_cl_s04_bw_oven_40_n04111531_10436.png
subject-04,1,114,1.3420078754425,cat,cat,cr,0114_cl_s04_cr_cat_40_n02125311_4261.png
subject-04,1,115,0.75164794921875,bicycle,bicycle,bw,0115_cl_s04_bw_bicycle_40_n03792782_13665.png
subject-04,1,116,NaN,na,bear,bw,0116_cl_s04_bw_bear_40_n02134418_6123.png
subject-04,1,117,1.01947617530823,clock,chair,cr,0117_cl_s04_cr_chair_40_n04429376_21081.png
subject-04,1,118,0.8731529712677,bear,bear,bw,0118_cl_s04_bw_bear_40_n02134418_7795.png
subject-04,1,119,0.79288911819458,elephant,elephant,bw,0119_cl_s04_bw_elephant_40_n02504458_4570.png
subject-04,1,120,0.890869855880737,cat,dog,cr,0120_cl_s04_cr_dog_40_n02097298_4393.png
subject-04,1,121,1.31863808631897,cat,cat,bw,0121_cl_s04_bw_cat_40_n02125311_75445.png
subject-04,1,122,0.760421991348267,bird,bird,cr,0122_cl_s04_cr_bird_40_n02027492_8707.png
subject-04,1,123,0.976644039154053,elephant,elephant,cr,0123_cl_s04_cr_elephant_40_n02504013_6731.png
subject-04,1,124,0.687982082366943,airplane,airplane,cr,0124_cl_s04_cr_airplane_40_n02690373_16250.png
subject-04,1,125,0.801748037338257,elephant,elephant,bw,0125_cl_s04_bw_elephant_40_n02504013_237.png
subject-04,1,126,0.697850942611694,bird,bird,bw,0126_cl_s04_bw_bird_40_n01833805_28946.png
subject-04,1,127,0.957579135894775,bottle,bottle,bw,0127_cl_s04_bw_bottle_40_n04579145_1829.png
subject-04,1,128,0.751447916030884,truck,truck,bw,0128_cl_s04_bw_truck_40_n03417042_17099.png
subject-04,1,129,0.70909595489502,airplane,airplane,bw,0129_cl_s04_bw_airplane_40_n02690373_971.png
subject-04,1,130,1.02690982818604,truck,truck,bw,0130_cl_s04_bw_truck_40_n04467665_22573.png
subject-04,1,131,0.667032957077026,oven,oven,cr,0131_cl_s04_cr_oven_40_n04111531_584.png
subject-04,1,132,1.500079870224,bear,bear,bw,0132_cl_s04_bw_bear_40_n02134418_4157.png
subject-04,1,133,1.13038778305054,oven,oven,bw,0133_cl_s04_bw_oven_40_n04111531_8263.png
subject-04,1,134,0.634378910064697,airplane,airplane,cr,0134_cl_s04_cr_airplane_40_n02690373_6854.png
subject-04,1,135,0.862000942230225,truck,truck,bw,0135_cl_s04_bw_truck_40_n04467665_22637.png
subject-04,1,136,1.06628489494324,cat,cat,cr,0136_cl_s04_cr_cat_40_n02124075_8351.png
subject-04,1,137,0.711736917495728,oven,oven,cr,0137_cl_s04_cr_oven_40_n04111531_5519.png
subject-04,1,138,1.06136298179626,keyboard,chair,bw,0138_cl_s04_bw_chair_40_n04429376_9121.png
subject-04,1,139,0.877216815948486,knife,knife,cr,0139_cl_s04_cr_knife_40_n03041632_379.png
subject-04,1,140,1.359050989151,dog,bear,cr,0140_cl_s04_cr_bear_40_n02134084_1201.png
subject-04,1,141,1.07292580604553,bird,bird,bw,0141_cl_s04_bw_bird_40_n02027492_9786.png
subject-04,1,142,1.00484704971313,truck,truck,cr,0142_cl_s04_cr_truck_40_n03417042_7337.png
subject-04,1,143,0.932835102081299,truck,truck,bw,0143_cl_s04_bw_truck_40_n03417042_2794.png
subject-04,1,144,1.23677897453308,bird,bear,cr,0144_cl_s04_cr_bear_40_n02133161_1916.png
subject-04,1,145,0.808112144470215,bear,bear,bw,0145_cl_s04_bw_bear_40_n02132136_21799.png
subject-04,1,146,0.842043876647949,truck,truck,cr,0146_cl_s04_cr_truck_40_n04467665_67327.png
subject-04,1,147,1.20188021659851,knife,bottle,cr,0147_cl_s04_cr_bottle_40_n04557648_364.png
subject-04,1,148,1.09364414215088,bicycle,bicycle,cr,0148_cl_s04_cr_bicycle_40_n03792782_33853.png
subject-04,1,149,0.895299911499023,clock,clock,cr,0149_cl_s04_cr_clock_40_n02708093_3621.png
subject-04,1,150,0.833558797836304,bottle,bottle,cr,0150_cl_s04_cr_bottle_40_n04560804_3683.png
subject-04,1,151,0.735065937042236,car,car,bw,0151_cl_s04_bw_car_40_n04285008_12045.png
subject-04,1,152,0.829160928726196,cat,cat,bw,0152_cl_s04_bw_cat_40_n02123597_7142.png
subject-04,1,153,0.704723119735718,bicycle,bicycle,cr,0153_cl_s04_cr_bicycle_40_n02835271_17914.png
subject-04,1,154,1.02033114433289,chair,chair,bw,0154_cl_s04_bw_chair_40_n04429376_1954.png
subject-04,1,155,0.804394960403442,bottle,bottle,cr,0155_cl_s04_cr_bottle_40_n03983396_3702.png
subject-04,1,156,1.0200788974762,bird,bird,bw,0156_cl_s04_bw_bird_40_n01819313_146.png
subject-04,1,157,0.64794397354126,boat,boat,cr,0157_cl_s04_cr_boat_40_n04273569_4324.png
subject-04,1,158,0.707617044448853,cat,dog,bw,0158_cl_s04_bw_dog_40_n02093256_7181.png
subject-04,1,159,0.577404975891113,boat,boat,bw,0159_cl_s04_bw_boat_40_n03344393_3443.png
subject-04,1,160,0.771272897720337,truck,truck,cr,0160_cl_s04_cr_truck_40_n03417042_7005.png
subject-04,1,161,0.588392019271851,keyboard,keyboard,bw,0161_cl_s04_bw_keyboard_40_n04505470_1600.png
subject-04,1,162,0.742083072662354,clock,clock,cr,0162_cl_s04_cr_clock_40_n04548280_8795.png
subject-04,1,163,0.626041173934937,oven,oven,cr,0163_cl_s04_cr_oven_40_n04111531_18430.png
subject-04,1,164,0.993865966796875,boat,knife,bw,0164_cl_s04_bw_knife_40_n03041632_5102.png
subject-04,1,165,0.677560806274414,dog,dog,bw,0165_cl_s04_bw_dog_40_n02097474_1859.png
subject-04,1,166,0.877477169036865,car,car,cr,0166_cl_s04_cr_car_40_n02814533_55399.png
subject-04,1,167,0.731276035308838,bicycle,bicycle,cr,0167_cl_s04_cr_bicycle_40_n02835271_8322.png
subject-04,1,168,1.50013709068298,airplane,airplane,cr,0168_cl_s04_cr_airplane_40_n02690373_8560.png
subject-04,1,169,NaN,na,knife,cr,0169_cl_s04_cr_knife_40_n03041632_4305.png
subject-04,1,170,0.810867786407471,bear,bear,cr,0170_cl_s04_cr_bear_40_n02134084_13663.png
subject-04,1,171,0.806390047073364,cat,cat,bw,0171_cl_s04_bw_cat_40_n02123597_2219.png
subject-04,1,172,0.832535982131958,keyboard,keyboard,cr,0172_cl_s04_cr_keyboard_40_n03085013_17305.png
subject-04,1,173,1.40807819366455,keyboard,knife,bw,0173_cl_s04_bw_knife_40_n03041632_9580.png
subject-04,1,174,0.76780891418457,bicycle,bicycle,cr,0174_cl_s04_cr_bicycle_40_n02835271_2753.png
subject-04,1,175,0.744000196456909,clock,clock,bw,0175_cl_s04_bw_clock_40_n03196217_2414.png
subject-04,1,176,0.763532161712646,car,car,cr,0176_cl_s04_cr_car_40_n02814533_50194.png
subject-04,1,177,1.04128408432007,cat,cat,cr,0177_cl_s04_cr_cat_40_n02123045_4089.png
subject-04,1,178,0.647024154663086,boat,boat,cr,0178_cl_s04_cr_boat_40_n03662601_8333.png
subject-04,1,179,0.927042961120605,bear,bear,bw,0179_cl_s04_bw_bear_40_n02132136_18543.png
subject-04,1,180,0.995037078857422,truck,truck,bw,0180_cl_s04_bw_truck_40_n03417042_19585.png
subject-04,1,181,1.36648011207581,bird,bird,bw,0181_cl_s04_bw_bird_40_n01843065_10565.png
subject-04,1,182,0.738302946090698,bird,bird,bw,0182_cl_s04_bw_bird_40_n02009912_1919.png
subject-04,1,183,0.606313943862915,keyboard,keyboard,cr,0183_cl_s04_cr_keyboard_40_n03085013_30335.png
subject-04,1,184,0.764114856719971,elephant,elephant,cr,0184_cl_s04_cr_elephant_40_n02504458_7839.png
subject-04,1,185,0.535967826843262,car,car,bw,0185_cl_s04_bw_car_40_n03100240_8206.png
subject-04,1,186,1.35980296134949,elephant,oven,bw,0186_cl_s04_bw_oven_40_n04111531_3181.png
subject-04,1,187,0.785360097885132,keyboard,keyboard,bw,0187_cl_s04_bw_keyboard_40_n04505470_4965.png
subject-04,1,188,0.633157968521118,boat,boat,bw,0188_cl_s04_bw_boat_40_n02951358_32698.png
subject-04,1,189,0.77311897277832,bottle,bottle,cr,0189_cl_s04_cr_bottle_40_n03937543_4202.png
subject-04,1,190,0.695255041122437,elephant,elephant,cr,0190_cl_s04_cr_elephant_40_n02504458_4554.png
subject-04,1,191,0.770811080932617,airplane,airplane,cr,0191_cl_s04_cr_airplane_40_n02690373_5142.png
subject-04,1,192,0.708570957183838,bear,bear,cr,0192_cl_s04_cr_bear_40_n02134084_16163.png
subject-04,1,193,0.808724880218506,elephant,elephant,bw,0193_cl_s04_bw_elephant_40_n02504458_6995.png
subject-04,1,194,0.734411001205444,dog,dog,bw,0194_cl_s04_bw_dog_40_n02111129_797.png
subject-04,1,195,0.770288228988647,truck,truck,bw,0195_cl_s04_bw_truck_40_n03417042_22513.png
subject-04,1,196,0.785960912704468,truck,truck,cr,0196_cl_s04_cr_truck_40_n03796401_17318.png
subject-04,1,197,0.73764705657959,airplane,airplane,cr,0197_cl_s04_cr_airplane_40_n02690373_4695.png
subject-04,1,198,0.851388931274414,car,car,bw,0198_cl_s04_bw_car_40_n04285008_15177.png
subject-04,1,199,0.741112947463989,bicycle,bicycle,cr,0199_cl_s04_cr_bicycle_40_n02835271_10377.png
subject-04,1,200,0.910896062850952,bottle,bottle,cr,0200_cl_s04_cr_bottle_40_n03937543_4586.png
subject-04,1,201,0.679153919219971,elephant,elephant,cr,0201_cl_s04_cr_elephant_40_n02504013_4288.png
subject-04,1,202,0.746602058410645,clock,clock,cr,0202_cl_s04_cr_clock_40_n03196217_3267.png
subject-04,1,203,0.64841103553772,airplane,airplane,cr,0203_cl_s04_cr_airplane_40_n02690373_8650.png
subject-04,1,204,0.782323122024536,car,car,cr,0204_cl_s04_cr_car_40_n02814533_6297.png
subject-04,1,205,0.89008903503418,knife,knife,cr,0205_cl_s04_cr_knife_40_n03041632_56436.png
subject-04,1,206,0.644250869750977,airplane,airplane,bw,0206_cl_s04_bw_airplane_40_n02690373_5184.png
subject-04,1,207,0.675616025924683,bicycle,bicycle,cr,0207_cl_s04_cr_bicycle_40_n02835271_8180.png
subject-04,1,208,0.617827177047729,car,car,bw,0208_cl_s04_bw_car_40_n02814533_32461.png
subject-04,1,209,0.567304849624634,clock,clock,cr,0209_cl_s04_cr_clock_40_n03196217_4541.png
subject-04,1,210,0.643229961395264,cat,cat,cr,0210_cl_s04_cr_cat_40_n02123045_11472.png
subject-04,1,211,0.57499098777771,boat,boat,cr,0211_cl_s04_cr_boat_40_n04273569_17983.png
subject-04,1,212,0.72272801399231,elephant,elephant,bw,0212_cl_s04_bw_elephant_40_n02504458_6130.png
subject-04,1,213,0.782557010650635,bear,bear,bw,0213_cl_s04_bw_bear_40_n02133161_12187.png
subject-04,1,214,0.846297979354858,bird,bear,cr,0214_cl_s04_cr_bear_40_n02133161_6946.png
subject-04,1,215,0.94454288482666,boat,car,cr,0215_cl_s04_cr_car_40_n03100240_5121.png
subject-04,1,216,0.956104040145874,elephant,dog,bw,0216_cl_s04_bw_dog_40_n02088466_292.png
subject-04,1,217,0.749619007110596,airplane,airplane,cr,0217_cl_s04_cr_airplane_40_n02690373_2059.png
subject-04,1,218,0.629691123962402,bicycle,bicycle,bw,0218_cl_s04_bw_bicycle_40_n02835271_11332.png
subject-04,1,219,0.727447032928467,car,car,cr,0219_cl_s04_cr_car_40_n02814533_51190.png
subject-04,1,220,0.889472961425781,clock,clock,cr,0220_cl_s04_cr_clock_40_n04548280_7153.png
subject-04,1,221,0.617388963699341,car,car,cr,0221_cl_s04_cr_car_40_n04285008_874.png
subject-04,1,222,0.728802919387817,car,car,bw,0222_cl_s04_bw_car_40_n03100240_2583.png
subject-04,1,223,0.80257511138916,knife,knife,bw,0223_cl_s04_bw_knife_40_n03041632_131.png
subject-04,1,224,0.728477954864502,knife,knife,cr,0224_cl_s04_cr_knife_40_n03041632_49570.png
subject-04,1,225,0.646247148513794,bottle,bottle,cr,0225_cl_s04_cr_bottle_40_n04557648_2122.png
subject-04,1,226,0.828097105026245,knife,knife,bw,0226_cl_s04_bw_knife_40_n03041632_11186.png
subject-04,1,227,0.715852022171021,elephant,elephant,cr,0227_cl_s04_cr_elephant_40_n02504013_19831.png
subject-04,1,228,0.697773933410645,airplane,airplane,cr,0228_cl_s04_cr_airplane_40_n02690373_10181.png
subject-04,1,229,0.791533946990967,truck,truck,bw,0229_cl_s04_bw_truck_40_n04467665_12177.png
subject-04,1,230,0.919543981552124,truck,truck,cr,0230_cl_s04_cr_truck_40_n03417042_16038.png
subject-04,1,231,0.783150911331177,boat,boat,bw,0231_cl_s04_bw_boat_40_n04273569_870.png
subject-04,1,232,0.536957025527954,car,car,bw,0232_cl_s04_bw_car_40_n04285008_2906.png
subject-04,1,233,0.714627027511597,elephant,elephant,cr,0233_cl_s04_cr_elephant_40_n02504458_6185.png
subject-04,1,234,0.976573944091797,chair,chair,bw,0234_cl_s04_bw_chair_40_n02791124_960.png
subject-04,1,235,0.784400939941406,oven,oven,bw,0235_cl_s04_bw_oven_40_n04111531_14055.png
subject-04,1,236,0.652652025222778,bottle,bottle,cr,0236_cl_s04_cr_bottle_40_n03983396_11519.png
subject-04,1,237,0.699924945831299,bird,bird,bw,0237_cl_s04_bw_bird_40_n01819313_111.png
subject-04,1,238,0.873842000961304,bottle,bottle,bw,0238_cl_s04_bw_bottle_40_n03937543_4340.png
subject-04,1,239,0.699651002883911,airplane,airplane,bw,0239_cl_s04_bw_airplane_40_n02690373_18936.png
subject-04,1,240,0.705544948577881,bottle,bottle,cr,0240_cl_s04_cr_bottle_40_n04579145_7431.png
subject-04,1,241,1.16046190261841,bird,bird,bw,0241_cl_s04_bw_bird_40_n01614925_267.png
subject-04,1,242,0.834176063537598,car,car,cr,0242_cl_s04_cr_car_40_n02814533_33205.png
subject-04,1,243,0.82211709022522,chair,chair,bw,0243_cl_s04_bw_chair_40_n03376595_10266.png
subject-04,1,244,0.911763906478882,clock,clock,bw,0244_cl_s04_bw_clock_40_n02708093_6655.png
subject-04,1,245,0.681561946868896,oven,knife,bw,0245_cl_s04_bw_knife_40_n03041632_85488.png
subject-04,1,246,0.715427160263062,truck,truck,bw,0246_cl_s04_bw_truck_40_n03417042_2383.png
subject-04,1,247,0.73713207244873,bird,bird,cr,0247_cl_s04_cr_bird_40_n01818515_10517.png
subject-04,1,248,0.937124967575073,truck,truck,cr,0248_cl_s04_cr_truck_40_n03796401_23711.png
subject-04,1,249,0.644952058792114,airplane,airplane,cr,0249_cl_s04_cr_airplane_40_n02690373_6845.png
subject-04,1,250,0.688621997833252,keyboard,keyboard,bw,0250_cl_s04_bw_keyboard_40_n03085013_3264.png
subject-04,1,251,0.810497999191284,elephant,elephant,bw,0251_cl_s04_bw_elephant_40_n02504458_3485.png
subject-04,1,252,0.720357179641724,boat,boat,cr,0252_cl_s04_cr_boat_40_n03344393_9732.png
subject-04,1,253,0.862174034118652,chair,chair,bw,0253_cl_s04_bw_chair_40_n04429376_27560.png
subject-04,1,254,0.615783929824829,boat,boat,cr,0254_cl_s04_cr_boat_40_n03662601_28640.png
subject-04,1,255,0.775611877441406,truck,truck,bw,0255_cl_s04_bw_truck_40_n04467665_53635.png
subject-04,1,256,0.857489109039307,car,car,cr,0256_cl_s04_cr_car_40_n03100240_14252.png
subject-04,1,257,0.659401893615723,boat,boat,bw,0257_cl_s04_bw_boat_40_n04273569_27625.png
subject-04,1,258,0.575130939483643,oven,oven,bw,0258_cl_s04_bw_oven_40_n04111531_4407.png
subject-04,1,259,0.464888095855713,boat,boat,cr,0259_cl_s04_cr_boat_40_n04273569_1087.png
subject-04,1,260,0.619227886199951,bottle,bottle,cr,0260_cl_s04_cr_bottle_40_n04557648_10744.png
subject-04,1,261,0.780686140060425,bottle,bottle,bw,0261_cl_s04_bw_bottle_40_n04557648_23801.png
subject-04,1,262,0.728882074356079,truck,truck,cr,0262_cl_s04_cr_truck_40_n03796401_17616.png
subject-04,1,263,0.702247142791748,keyboard,keyboard,bw,0263_cl_s04_bw_keyboard_40_n03085013_20843.png
subject-04,1,264,0.910038948059082,elephant,bird,bw,0264_cl_s04_bw_bird_40_n02009229_2503.png
subject-04,1,265,0.687742948532104,oven,oven,bw,0265_cl_s04_bw_oven_40_n04111531_6120.png
subject-04,1,266,1.40158486366272,cat,cat,cr,0266_cl_s04_cr_cat_40_n02125311_28254.png
subject-04,1,267,0.783752918243408,bear,bear,bw,0267_cl_s04_bw_bear_40_n02134418_5824.png
subject-04,1,268,0.749491214752197,bird,bird,cr,0268_cl_s04_cr_bird_40_n02011460_2435.png
subject-04,1,269,0.667067050933838,clock,clock,bw,0269_cl_s04_bw_clock_40_n04548280_21263.png
subject-04,1,270,0.65485692024231,keyboard,keyboard,cr,0270_cl_s04_cr_keyboard_40_n03085013_19618.png
subject-04,1,271,0.842673063278198,airplane,airplane,cr,0271_cl_s04_cr_airplane_40_n02690373_4578.png
subject-04,1,272,0.598527193069458,keyboard,keyboard,bw,0272_cl_s04_bw_keyboard_40_n03085013_19197.png
subject-04,1,273,0.740809202194214,cat,cat,bw,0273_cl_s04_bw_cat_40_n02125311_7729.png
subject-04,1,274,0.768229007720947,elephant,elephant,cr,0274_cl_s04_cr_elephant_40_n02504458_3525.png
subject-04,1,275,0.732233047485352,clock,clock,cr,0275_cl_s04_cr_clock_40_n03196217_970.png
subject-04,1,276,0.706265926361084,truck,car,bw,0276_cl_s04_bw_car_40_n03100240_9471.png
subject-04,1,277,0.859445095062256,car,boat,cr,0277_cl_s04_cr_boat_40_n02951358_10162.png
subject-04,1,278,0.713339805603027,bottle,bottle,bw,0278_cl_s04_bw_bottle_40_n02823428_5265.png
subject-04,1,279,0.749439001083374,airplane,airplane,bw,0279_cl_s04_bw_airplane_40_n02690373_3054.png
subject-04,1,280,0.839290857315063,bottle,bottle,cr,0280_cl_s04_cr_bottle_40_n04560804_1703.png
subject-04,1,281,0.522791862487793,knife,knife,bw,0281_cl_s04_bw_knife_40_n03041632_13203.png
subject-04,1,282,1.39475202560425,dog,dog,cr,0282_cl_s04_cr_dog_40_n02105641_4701.png
subject-04,1,283,0.844868898391724,car,car,cr,0283_cl_s04_cr_car_40_n02814533_83874.png
subject-04,1,284,0.74057412147522,bicycle,bicycle,cr,0284_cl_s04_cr_bicycle_40_n02835271_18276.png
subject-04,1,285,0.764058113098145,knife,knife,cr,0285_cl_s04_cr_knife_40_n03041632_32292.png
subject-04,1,286,0.700057029724121,airplane,airplane,bw,0286_cl_s04_bw_airplane_40_n02690373_6992.png
subject-04,1,287,0.763782024383545,car,car,cr,0287_cl_s04_cr_car_40_n04285008_713.png
subject-04,1,288,0.845919132232666,airplane,airplane,bw,0288_cl_s04_bw_airplane_40_n02690373_6524.png
subject-04,1,289,0.709378004074097,car,car,bw,0289_cl_s04_bw_car_40_n02814533_51154.png
subject-04,1,290,0.761206865310669,keyboard,keyboard,cr,0290_cl_s04_cr_keyboard_40_n03085013_35084.png
subject-04,1,291,0.735107898712158,car,car,bw,0291_cl_s04_bw_car_40_n04285008_14334.png
subject-04,1,292,0.644774913787842,bicycle,bicycle,cr,0292_cl_s04_cr_bicycle_40_n03792782_5864.png
subject-04,1,293,0.784613847732544,keyboard,keyboard,bw,0293_cl_s04_bw_keyboard_40_n03085013_22820.png
subject-04,1,294,0.64886212348938,bear,bear,cr,0294_cl_s04_cr_bear_40_n02134084_13339.png
subject-04,1,295,0.548213958740234,keyboard,keyboard,cr,0295_cl_s04_cr_keyboard_40_n03085013_24538.png
subject-04,1,296,1.28804302215576,bird,chair,bw,0296_cl_s04_bw_chair_40_n02791124_1443.png
subject-04,1,297,0.753841161727905,cat,cat,cr,0297_cl_s04_cr_cat_40_n02123045_9661.png
subject-04,1,298,0.875520944595337,oven,oven,bw,0298_cl_s04_bw_oven_40_n04111531_8193.png
subject-04,1,299,0.551610946655273,boat,boat,cr,0299_cl_s04_cr_boat_40_n03344393_8625.png
subject-04,1,300,0.569329977035522,keyboard,keyboard,bw,0300_cl_s04_bw_keyboard_40_n04505470_3959.png
subject-04,1,301,0.865032911300659,elephant,elephant,cr,0301_cl_s04_cr_elephant_40_n02504458_2607.png
subject-04,1,302,0.576864004135132,cat,cat,bw,0302_cl_s04_bw_cat_40_n02124075_14425.png
subject-04,1,303,0.53669285774231,oven,oven,bw,0303_cl_s04_bw_oven_40_n04111531_741.png
subject-04,1,304,0.572505950927734,cat,cat,bw,0304_cl_s04_bw_cat_40_n02123394_6598.png
subject-04,1,305,0.928478956222534,truck,boat,cr,0305_cl_s04_cr_boat_40_n03662601_24852.png
subject-04,1,306,0.74216890335083,elephant,elephant,cr,0306_cl_s04_cr_elephant_40_n02504013_10351.png
subject-04,1,307,0.965928077697754,bird,bird,cr,0307_cl_s04_cr_bird_40_n02025239_6030.png
subject-04,1,308,0.580075979232788,clock,clock,bw,0308_cl_s04_bw_clock_40_n04548280_7211.png
subject-04,1,309,1.09765291213989,bear,elephant,bw,0309_cl_s04_bw_elephant_40_n02504458_6336.png
subject-04,1,310,0.735350131988525,bear,bear,cr,0310_cl_s04_cr_bear_40_n02134084_5274.png
subject-04,1,311,0.79554009437561,bottle,bottle,cr,0311_cl_s04_cr_bottle_40_n04560804_15293.png
subject-04,1,312,0.724898099899292,bicycle,bicycle,bw,0312_cl_s04_bw_bicycle_40_n03792782_1778.png
subject-04,1,313,0.558966875076294,bottle,bottle,cr,0313_cl_s04_cr_bottle_40_n03983396_15260.png
subject-04,1,314,0.666922092437744,car,car,cr,0314_cl_s04_cr_car_40_n04285008_953.png
subject-04,1,315,0.934568881988525,oven,oven,cr,0315_cl_s04_cr_oven_40_n04111531_14126.png
subject-04,1,316,0.604179859161377,cat,cat,cr,0316_cl_s04_cr_cat_40_n02123159_10952.png
subject-04,1,317,0.71816611289978,bird,bird,cr,0317_cl_s04_cr_bird_40_n01797886_3876.png
subject-04,1,318,0.626032114028931,chair,chair,bw,0318_cl_s04_bw_chair_40_n03376595_17859.png
subject-04,1,319,0.779678821563721,boat,boat,cr,0319_cl_s04_cr_boat_40_n03662601_8216.png
subject-04,1,320,0.585824966430664,chair,chair,bw,0320_cl_s04_bw_chair_40_n04099969_22572.png
subject-04,1,321,0.662701845169067,oven,oven,bw,0321_cl_s04_bw_oven_40_n04111531_4012.png
subject-04,1,322,1.05874085426331,dog,dog,cr,0322_cl_s04_cr_dog_40_n02096294_2375.png
subject-04,1,323,1.16651701927185,keyboard,knife,cr,0323_cl_s04_cr_knife_40_n03041632_7173.png
subject-04,1,324,0.624290943145752,cat,cat,cr,0324_cl_s04_cr_cat_40_n02125311_2959.png
subject-04,1,325,1.15199708938599,chair,keyboard,cr,0325_cl_s04_cr_keyboard_40_n03085013_23561.png
subject-04,1,326,0.849897861480713,airplane,airplane,bw,0326_cl_s04_bw_airplane_40_n02690373_1912.png
subject-04,1,327,0.801620006561279,chair,chair,cr,0327_cl_s04_cr_chair_40_n04429376_16325.png
subject-04,1,328,0.67351508140564,chair,chair,cr,0328_cl_s04_cr_chair_40_n03376595_1773.png
subject-04,1,329,0.765272855758667,keyboard,keyboard,cr,0329_cl_s04_cr_keyboard_40_n03085013_1797.png
subject-04,1,330,1.07534098625183,bear,bear,bw,0330_cl_s04_bw_bear_40_n02132136_1644.png
subject-04,1,331,NaN,na,bird,cr,0331_cl_s04_cr_bird_40_n01817953_10964.png
subject-04,1,332,0.802756071090698,knife,knife,bw,0332_cl_s04_bw_knife_40_n03041632_21477.png
subject-04,1,333,0.756489038467407,knife,knife,cr,0333_cl_s04_cr_knife_40_n03041632_44738.png
subject-04,1,334,0.702782154083252,chair,chair,bw,0334_cl_s04_bw_chair_40_n04099969_4577.png
subject-04,1,335,0.64463996887207,airplane,airplane,cr,0335_cl_s04_cr_airplane_40_n02690373_12813.png
subject-04,1,336,0.640047073364258,bicycle,bicycle,cr,0336_cl_s04_cr_bicycle_40_n02835271_6563.png
subject-04,1,337,0.70190691947937,bird,bird,bw,0337_cl_s04_bw_bird_40_n02007558_5525.png
subject-04,1,338,1.0355269908905,boat,airplane,cr,0338_cl_s04_cr_airplane_40_n02690373_4015.png
subject-04,1,339,0.649616956710815,airplane,airplane,cr,0339_cl_s04_cr_airplane_40_n02690373_8231.png
subject-04,1,340,0.931390047073364,bicycle,bicycle,cr,0340_cl_s04_cr_bicycle_40_n03792782_85.png
subject-04,1,341,0.749041795730591,elephant,elephant,cr,0341_cl_s04_cr_elephant_40_n02504458_169.png
subject-04,1,342,0.768770933151245,boat,boat,cr,0342_cl_s04_cr_boat_40_n03662601_4437.png
subject-04,1,343,0.660667896270752,oven,oven,cr,0343_cl_s04_cr_oven_40_n04111531_11499.png
subject-04,1,344,0.774471998214722,elephant,elephant,bw,0344_cl_s04_bw_elephant_40_n02504458_5059.png
subject-04,1,345,1.19223403930664,bicycle,bicycle,bw,0345_cl_s04_bw_bicycle_40_n03792782_9412.png
subject-04,1,346,0.70406699180603,elephant,elephant,bw,0346_cl_s04_bw_elephant_40_n02504458_4633.png
subject-04,1,347,0.659860849380493,truck,truck,cr,0347_cl_s04_cr_truck_40_n03417042_2778.png
subject-04,1,348,0.947784900665283,cat,cat,bw,0348_cl_s04_bw_cat_40_n02123159_1769.png
subject-04,1,349,0.689567089080811,dog,dog,cr,0349_cl_s04_cr_dog_40_n02111500_9179.png
subject-04,1,350,1.23739194869995,bicycle,bicycle,cr,0350_cl_s04_cr_bicycle_40_n03792782_18343.png
subject-04,1,351,0.735668897628784,bird,bird,cr,0351_cl_s04_cr_bird_40_n01558993_5744.png
subject-04,1,352,0.757123947143555,knife,knife,bw,0352_cl_s04_bw_knife_40_n03041632_29037.png
subject-04,1,353,0.91081690788269,knife,knife,cr,0353_cl_s04_cr_knife_40_n03041632_14293.png
subject-04,1,354,0.642587900161743,clock,clock,bw,0354_cl_s04_bw_clock_40_n04548280_8585.png
subject-04,1,355,0.8486008644104,bird,bird,bw,0355_cl_s04_bw_bird_40_n01537544_2875.png
subject-04,1,356,1.16617393493652,elephant,elephant,bw,0356_cl_s04_bw_elephant_40_n02504458_7133.png
subject-04,1,357,NaN,na,cat,cr,0357_cl_s04_cr_cat_40_n02125311_20921.png
subject-04,1,358,1.19187188148499,bottle,bottle,cr,0358_cl_s04_cr_bottle_40_n04591713_2879.png
subject-04,1,359,0.665558815002441,airplane,airplane,cr,0359_cl_s04_cr_airplane_40_n02690373_2837.png
subject-04,1,360,1.18539094924927,elephant,dog,bw,0360_cl_s04_bw_dog_40_n02097130_8277.png
subject-04,1,361,0.767520904541016,dog,dog,cr,0361_cl_s04_cr_dog_40_n02093647_1818.png
subject-04,1,362,1.01298785209656,elephant,elephant,bw,0362_cl_s04_bw_elephant_40_n02504458_2471.png
subject-04,1,363,0.963242053985596,cat,dog,bw,0363_cl_s04_bw_dog_40_n02088466_3052.png
subject-04,1,364,0.708683013916016,oven,oven,cr,0364_cl_s04_cr_oven_40_n04111531_605.png
subject-04,1,365,0.744933128356934,keyboard,keyboard,cr,0365_cl_s04_cr_keyboard_40_n03085013_6644.png
subject-04,1,366,0.710376024246216,keyboard,keyboard,cr,0366_cl_s04_cr_keyboard_40_n04505470_2740.png
subject-04,1,367,0.720315933227539,bicycle,bicycle,cr,0367_cl_s04_cr_bicycle_40_n02835271_8511.png
subject-04,1,368,1.06441903114319,car,truck,bw,0368_cl_s04_bw_truck_40_n03796401_8099.png
subject-04,1,369,0.883857011795044,knife,knife,cr,0369_cl_s04_cr_knife_40_n03041632_17285.png
subject-04,1,370,0.739693164825439,keyboard,keyboard,cr,0370_cl_s04_cr_keyboard_40_n04505470_2321.png
subject-04,1,371,0.739332914352417,airplane,airplane,cr,0371_cl_s04_cr_airplane_40_n02690373_7387.png
subject-04,1,372,0.715230941772461,chair,bicycle,bw,0372_cl_s04_bw_bicycle_40_n03792782_3705.png
subject-04,1,373,0.714997053146362,chair,chair,cr,0373_cl_s04_cr_chair_40_n02791124_7031.png
subject-04,1,374,0.636718988418579,car,car,cr,0374_cl_s04_cr_car_40_n02814533_80049.png
subject-04,1,375,1.16272807121277,knife,dog,bw,0375_cl_s04_bw_dog_40_n02093256_1653.png
subject-04,1,376,0.886306047439575,clock,clock,cr,0376_cl_s04_cr_clock_40_n02708093_2394.png
subject-04,1,377,0.812341928482056,knife,knife,bw,0377_cl_s04_bw_knife_40_n03041632_10000.png
subject-04,1,378,0.778470039367676,dog,dog,bw,0378_cl_s04_bw_dog_40_n02106662_50272.png
subject-04,1,379,0.634206056594849,chair,chair,bw,0379_cl_s04_bw_chair_40_n02791124_3923.png
subject-04,1,380,1.19957900047302,elephant,elephant,cr,0380_cl_s04_cr_elephant_40_n02504013_3485.png
subject-04,1,381,0.6715989112854,keyboard,keyboard,cr,0381_cl_s04_cr_keyboard_40_n03085013_8936.png
subject-04,1,382,1.3312349319458,knife,dog,cr,0382_cl_s04_cr_dog_40_n02113023_8552.png
subject-04,1,383,1.15708303451538,dog,cat,cr,0383_cl_s04_cr_cat_40_n02123394_8268.png
subject-04,1,384,0.944983005523682,oven,knife,cr,0384_cl_s04_cr_knife_40_n03041632_6708.png
subject-04,1,385,1.48684096336365,bottle,bottle,bw,0385_cl_s04_bw_bottle_40_n03983396_8684.png
subject-04,1,386,0.614698171615601,bicycle,bicycle,bw,0386_cl_s04_bw_bicycle_40_n03792782_5426.png
subject-04,1,387,0.988479852676392,airplane,airplane,bw,0387_cl_s04_bw_airplane_40_n02690373_6516.png
subject-04,1,388,0.628262042999268,car,car,bw,0388_cl_s04_bw_car_40_n02814533_10557.png
subject-04,1,389,0.906036138534546,chair,chair,cr,0389_cl_s04_cr_chair_40_n04429376_21546.png
subject-04,1,390,0.625838041305542,clock,clock,bw,0390_cl_s04_bw_clock_40_n02708093_8033.png
subject-04,1,391,0.64383602142334,airplane,airplane,bw,0391_cl_s04_bw_airplane_40_n02690373_6406.png
subject-04,1,392,0.601355075836182,dog,dog,bw,0392_cl_s04_bw_dog_40_n02090721_6440.png
subject-04,1,393,0.8232741355896,keyboard,keyboard,cr,0393_cl_s04_cr_keyboard_40_n03085013_21645.png
subject-04,1,394,0.699228048324585,elephant,elephant,cr,0394_cl_s04_cr_elephant_40_n02504458_1600.png
subject-04,1,395,0.770749092102051,bicycle,bicycle,cr,0395_cl_s04_cr_bicycle_40_n02835271_2068.png
subject-04,1,396,0.755039930343628,boat,car,cr,0396_cl_s04_cr_car_40_n02814533_7769.png
subject-04,1,397,1.31843709945679,dog,clock,cr,0397_cl_s04_cr_clock_40_n03196217_10578.png
subject-04,1,398,0.83031702041626,boat,boat,cr,0398_cl_s04_cr_boat_40_n04273569_15892.png
subject-04,1,399,0.662088871002197,airplane,airplane,cr,0399_cl_s04_cr_airplane_40_n02690373_1235.png
subject-04,1,400,0.679885149002075,car,car,bw,0400_cl_s04_bw_car_40_n02814533_45312.png
subject-04,1,401,0.679690837860107,clock,clock,cr,0401_cl_s04_cr_clock_40_n03196217_6193.png
subject-04,1,402,1.06542992591858,oven,clock,bw,0402_cl_s04_bw_clock_40_n04548280_4473.png
subject-04,1,403,0.75320291519165,cat,cat,bw,0403_cl_s04_bw_cat_40_n02123159_7854.png
subject-04,1,404,0.905058860778809,bird,bear,bw,0404_cl_s04_bw_bear_40_n02134418_2503.png
subject-04,1,405,1.12700080871582,truck,truck,cr,0405_cl_s04_cr_truck_40_n04467665_3125.png
subject-04,1,406,0.756593942642212,elephant,elephant,cr,0406_cl_s04_cr_elephant_40_n02504458_1304.png
subject-04,1,407,1.30858397483826,chair,chair,bw,0407_cl_s04_bw_chair_40_n04429376_14170.png
subject-04,1,408,0.762475967407227,bicycle,bicycle,cr,0408_cl_s04_cr_bicycle_40_n03792782_3296.png
subject-04,1,409,1.07239603996277,bicycle,bicycle,bw,0409_cl_s04_bw_bicycle_40_n02835271_4742.png
subject-04,1,410,0.8819899559021,bear,bear,cr,0410_cl_s04_cr_bear_40_n02132136_860.png
subject-04,1,411,0.679677963256836,chair,chair,cr,0411_cl_s04_cr_chair_40_n03376595_2056.png
subject-04,1,412,1.1775758266449,dog,dog,bw,0412_cl_s04_bw_dog_40_n02095570_6717.png
subject-04,1,413,0.711588144302368,boat,boat,cr,0413_cl_s04_cr_boat_40_n03662601_14818.png
subject-04,1,414,0.64741587638855,cat,cat,cr,0414_cl_s04_cr_cat_40_n02123159_1339.png
subject-04,1,415,1.06522607803345,car,car,bw,0415_cl_s04_bw_car_40_n03100240_7013.png
subject-04,1,416,1.12307691574097,airplane,airplane,bw,0416_cl_s04_bw_airplane_40_n02690373_7748.png
subject-04,1,417,0.804574012756348,keyboard,keyboard,bw,0417_cl_s04_bw_keyboard_40_n04505470_6623.png
subject-04,1,418,0.73268985748291,chair,chair,cr,0418_cl_s04_cr_chair_40_n02791124_359.png
subject-04,1,419,1.14612197875977,boat,clock,bw,0419_cl_s04_bw_clock_40_n03196217_4004.png
subject-04,1,420,0.684293031692505,bird,bird,cr,0420_cl_s04_cr_bird_40_n01796340_5508.png
subject-04,1,421,0.647979974746704,keyboard,keyboard,cr,0421_cl_s04_cr_keyboard_40_n04505470_4770.png
subject-04,1,422,0.849730014801025,clock,clock,cr,0422_cl_s04_cr_clock_40_n04548280_24041.png
subject-04,1,423,0.649677991867065,airplane,airplane,bw,0423_cl_s04_bw_airplane_40_n02690373_3493.png
subject-04,1,424,0.857243776321411,bicycle,bicycle,bw,0424_cl_s04_bw_bicycle_40_n03792782_47426.png
subject-04,1,425,0.905105829238892,car,car,cr,0425_cl_s04_cr_car_40_n03100240_9354.png
subject-04,1,426,0.792865991592407,keyboard,keyboard,bw,0426_cl_s04_bw_keyboard_40_n04505470_4107.png
subject-04,1,427,0.702792882919312,chair,chair,cr,0427_cl_s04_cr_chair_40_n04099969_13948.png
subject-04,1,428,0.644679069519043,oven,oven,cr,0428_cl_s04_cr_oven_40_n04111531_9498.png
subject-04,1,429,0.688393831253052,car,car,cr,0429_cl_s04_cr_car_40_n03100240_7737.png
subject-04,1,430,0.792279958724976,boat,boat,cr,0430_cl_s04_cr_boat_40_n03344393_661.png
subject-04,1,431,0.827990770339966,clock,clock,bw,0431_cl_s04_bw_clock_40_n04548280_3330.png
subject-04,1,432,0.77779483795166,truck,truck,cr,0432_cl_s04_cr_truck_40_n04467665_9123.png
subject-04,1,433,0.801610946655273,bear,bear,bw,0433_cl_s04_bw_bear_40_n02134418_12628.png
subject-04,1,434,0.955711126327515,dog,bear,bw,0434_cl_s04_bw_bear_40_n02134084_3695.png
subject-04,1,435,0.739609003067017,bird,bird,bw,0435_cl_s04_bw_bird_40_n01534433_8318.png
subject-04,1,436,1.01096391677856,elephant,elephant,cr,0436_cl_s04_cr_elephant_40_n02504013_811.png
subject-04,1,437,1.50000810623169,airplane,bottle,bw,0437_cl_s04_bw_bottle_40_n04591713_2680.png
subject-04,1,438,0.794687986373901,chair,chair,bw,0438_cl_s04_bw_chair_40_n04099969_43.png
subject-04,1,439,0.736464023590088,cat,cat,bw,0439_cl_s04_bw_cat_40_n02123597_11613.png
subject-04,1,440,0.714233160018921,elephant,elephant,cr,0440_cl_s04_cr_elephant_40_n02504013_2460.png
subject-04,1,441,0.904350996017456,keyboard,keyboard,cr,0441_cl_s04_cr_keyboard_40_n03085013_22837.png
subject-04,1,442,0.648037910461426,boat,boat,cr,0442_cl_s04_cr_boat_40_n03662601_27165.png
subject-04,1,443,0.79590892791748,bird,bird,bw,0443_cl_s04_bw_bird_40_n01531178_10905.png
subject-04,1,444,0.735629081726074,boat,boat,cr,0444_cl_s04_cr_boat_40_n03662601_15143.png
subject-04,1,445,0.793370008468628,car,car,cr,0445_cl_s04_cr_car_40_n02814533_11051.png
subject-04,1,446,0.805008888244629,bird,bird,bw,0446_cl_s04_bw_bird_40_n01616318_26436.png
subject-04,1,447,0.679059028625488,truck,truck,bw,0447_cl_s04_bw_truck_40_n03417042_27093.png
subject-04,1,448,1.05073714256287,elephant,cat,bw,0448_cl_s04_bw_cat_40_n02125311_5300.png
subject-04,1,449,0.850615978240967,clock,clock,cr,0449_cl_s04_cr_clock_40_n03196217_9736.png
subject-04,1,450,0.620304107666016,bottle,bottle,cr,0450_cl_s04_cr_bottle_40_n03983396_3899.png
subject-04,1,451,0.770262956619263,bird,bird,cr,0451_cl_s04_cr_bird_40_n01537544_23002.png
subject-04,1,452,0.790153026580811,truck,truck,cr,0452_cl_s04_cr_truck_40_n03417042_8298.png
subject-04,1,453,1.01196193695068,elephant,keyboard,bw,0453_cl_s04_bw_keyboard_40_n03085013_7613.png
subject-04,1,454,0.695719957351685,elephant,elephant,cr,0454_cl_s04_cr_elephant_40_n02504013_5035.png
subject-04,1,455,0.591480016708374,elephant,elephant,cr,0455_cl_s04_cr_elephant_40_n02504458_3776.png
subject-04,1,456,0.673671960830688,bicycle,bicycle,cr,0456_cl_s04_cr_bicycle_40_n03792782_51414.png
subject-04,1,457,0.941179990768433,cat,bear,bw,0457_cl_s04_bw_bear_40_n02132136_23853.png
subject-04,1,458,1.17283082008362,elephant,bear,cr,0458_cl_s04_cr_bear_40_n02134084_1090.png
subject-04,1,459,0.738826990127563,bottle,bottle,bw,0459_cl_s04_bw_bottle_40_n02823428_3505.png
subject-04,1,460,1.48264193534851,oven,oven,cr,0460_cl_s04_cr_oven_40_n04111531_20028.png
subject-04,1,461,1.11024403572083,knife,knife,bw,0461_cl_s04_bw_knife_40_n03041632_15299.png
subject-04,1,462,1.10023784637451,car,car,bw,0462_cl_s04_bw_car_40_n04285008_11410.png
subject-04,1,463,1.15788221359253,boat,boat,cr,0463_cl_s04_cr_boat_40_n02951358_8456.png
subject-04,1,464,0.619653940200806,keyboard,keyboard,cr,0464_cl_s04_cr_keyboard_40_n04505470_2787.png
subject-04,1,465,0.70750093460083,chair,chair,cr,0465_cl_s04_cr_chair_40_n03376595_6570.png
subject-04,1,466,0.62347412109375,cat,cat,cr,0466_cl_s04_cr_cat_40_n02124075_1999.png
subject-04,1,467,0.729465007781982,truck,truck,bw,0467_cl_s04_bw_truck_40_n04467665_66535.png
subject-04,1,468,1.03130912780762,truck,truck,bw,0468_cl_s04_bw_truck_40_n04467665_10060.png
subject-04,1,469,0.736932039260864,car,car,bw,0469_cl_s04_bw_car_40_n02814533_45594.png
subject-04,1,470,1.00674796104431,dog,dog,bw,0470_cl_s04_bw_dog_40_n02090721_464.png
subject-04,1,471,0.650418996810913,oven,oven,bw,0471_cl_s04_bw_oven_40_n04111531_8963.png
subject-04,1,472,1.20465111732483,clock,clock,bw,0472_cl_s04_bw_clock_40_n02708093_394.png
subject-04,1,473,0.970075130462646,oven,oven,cr,0473_cl_s04_cr_oven_40_n04111531_9455.png
subject-04,1,474,0.599977016448975,clock,clock,cr,0474_cl_s04_cr_clock_40_n02708093_57.png
subject-04,1,475,0.992128133773804,truck,truck,cr,0475_cl_s04_cr_truck_40_n03417042_27404.png
subject-04,1,476,0.799542903900146,boat,boat,bw,0476_cl_s04_bw_boat_40_n04273569_517.png
subject-04,1,477,0.609469890594482,keyboard,keyboard,bw,0477_cl_s04_bw_keyboard_40_n04505470_464.png
subject-04,1,478,0.993147850036621,oven,oven,bw,0478_cl_s04_bw_oven_40_n04111531_9322.png
subject-04,1,479,0.614853858947754,clock,clock,cr,0479_cl_s04_cr_clock_40_n04548280_5237.png
subject-04,1,480,1.13901805877686,cat,dog,bw,0480_cl_s04_bw_dog_40_n02110958_5624.png
subject-04,1,481,0.61237907409668,airplane,airplane,bw,0481_cl_s04_bw_airplane_40_n02690373_2800.png
subject-04,1,482,0.641890048980713,cat,cat,cr,0482_cl_s04_cr_cat_40_n02123597_9656.png
subject-04,1,483,0.583708047866821,boat,boat,bw,0483_cl_s04_bw_boat_40_n02951358_34662.png
subject-04,1,484,0.643639087677002,dog,dog,bw,0484_cl_s04_bw_dog_40_n02099712_7604.png
subject-04,1,485,0.647428035736084,airplane,airplane,cr,0485_cl_s04_cr_airplane_40_n02690373_4202.png
subject-04,1,486,0.655194044113159,bottle,oven,cr,0486_cl_s04_cr_oven_40_n04111531_7355.png
subject-04,1,487,0.754909038543701,oven,oven,cr,0487_cl_s04_cr_oven_40_n04111531_1220.png
subject-04,1,488,1.29888987541199,car,car,bw,0488_cl_s04_bw_car_40_n04285008_4749.png
subject-04,1,489,0.720637798309326,boat,boat,bw,0489_cl_s04_bw_boat_40_n03344393_5322.png
subject-04,1,490,0.65625,car,car,bw,0490_cl_s04_bw_car_40_n04285008_8784.png
subject-04,1,491,0.862417221069336,chair,chair,cr,0491_cl_s04_cr_chair_40_n03376595_9813.png
subject-04,1,492,0.922289848327637,dog,bear,bw,0492_cl_s04_bw_bear_40_n02132136_390.png
subject-04,1,493,0.739856958389282,cat,cat,bw,0493_cl_s04_bw_cat_40_n02123394_6698.png
subject-04,1,494,0.657605886459351,bear,bear,bw,0494_cl_s04_bw_bear_40_n02133161_13267.png
subject-04,1,495,0.867344856262207,dog,dog,cr,0495_cl_s04_cr_dog_40_n02097130_456.png
subject-04,1,496,0.701452016830444,bottle,bottle,cr,0496_cl_s04_cr_bottle_40_n04579145_1134.png
subject-04,1,497,1.23705792427063,bear,bear,cr,0497_cl_s04_cr_bear_40_n02132136_5158.png
subject-04,1,498,0.722853899002075,car,car,cr,0498_cl_s04_cr_car_40_n03100240_9086.png
subject-04,1,499,0.891036033630371,bottle,bottle,cr,0499_cl_s04_cr_bottle_40_n03983396_2053.png
subject-04,1,500,0.922483921051025,dog,dog,cr,0500_cl_s04_cr_dog_40_n02089867_2298.png
subject-04,1,501,0.978543043136597,bird,bird,bw,0501_cl_s04_bw_bird_40_n02009229_12179.png
subject-04,1,502,0.6703040599823,bird,bird,bw,0502_cl_s04_bw_bird_40_n02027492_546.png
subject-04,1,503,0.813922882080078,airplane,airplane,bw,0503_cl_s04_bw_airplane_40_n02690373_17130.png
subject-04,1,504,0.669715166091919,car,car,bw,0504_cl_s04_bw_car_40_n02814533_92940.png
subject-04,1,505,0.815589904785156,dog,dog,cr,0505_cl_s04_cr_dog_40_n02109525_12602.png
subject-04,1,506,0.913398027420044,clock,clock,bw,0506_cl_s04_bw_clock_40_n03196217_243.png
subject-04,1,507,0.901114225387573,dog,dog,bw,0507_cl_s04_bw_dog_40_n02091467_3727.png
subject-04,1,508,0.827040910720825,dog,dog,bw,0508_cl_s04_bw_dog_40_n02099601_7304.png
subject-04,1,509,0.680925846099854,bottle,bottle,bw,0509_cl_s04_bw_bottle_40_n04557648_26823.png
subject-04,1,510,0.834526062011719,oven,oven,cr,0510_cl_s04_cr_oven_40_n04111531_3570.png
subject-04,1,511,0.666553020477295,bicycle,bicycle,cr,0511_cl_s04_cr_bicycle_40_n02835271_8125.png
subject-04,1,512,1.03827714920044,bottle,oven,cr,0512_cl_s04_cr_oven_40_n04111531_12929.png
subject-04,1,513,0.71198296546936,truck,truck,bw,0513_cl_s04_bw_truck_40_n03417042_5659.png
subject-04,1,514,1.405837059021,elephant,elephant,cr,0514_cl_s04_cr_elephant_40_n02504013_8497.png
subject-04,1,515,1.29808282852173,cat,cat,cr,0515_cl_s04_cr_cat_40_n02124075_3533.png
subject-04,1,516,0.667553186416626,bird,bear,cr,0516_cl_s04_cr_bear_40_n02133161_575.png
subject-04,1,517,0.633475065231323,keyboard,keyboard,cr,0517_cl_s04_cr_keyboard_40_n04505470_4906.png
subject-04,1,518,0.795213937759399,clock,clock,cr,0518_cl_s04_cr_clock_40_n02708093_7076.png
subject-04,1,519,1.00703001022339,elephant,elephant,bw,0519_cl_s04_bw_elephant_40_n02504013_22388.png
subject-04,1,520,0.741107940673828,dog,dog,bw,0520_cl_s04_bw_dog_40_n02100583_2707.png
subject-04,1,521,0.642452001571655,keyboard,keyboard,cr,0521_cl_s04_cr_keyboard_40_n04505470_996.png
subject-04,1,522,0.724339008331299,airplane,airplane,bw,0522_cl_s04_bw_airplane_40_n02690373_3620.png
subject-04,1,523,0.814296007156372,clock,clock,cr,0523_cl_s04_cr_clock_40_n02708093_6766.png
subject-04,1,524,1.14621186256409,knife,knife,cr,0524_cl_s04_cr_knife_40_n03041632_18859.png
subject-04,1,525,0.777809858322144,keyboard,keyboard,bw,0525_cl_s04_bw_keyboard_40_n04505470_4549.png
subject-04,1,526,0.749832153320312,clock,clock,cr,0526_cl_s04_cr_clock_40_n02708093_444.png
subject-04,1,527,0.61146092414856,boat,boat,bw,0527_cl_s04_bw_boat_40_n02951358_4128.png
subject-04,1,528,1.30117011070251,boat,bird,cr,0528_cl_s04_cr_bird_40_n02009912_24304.png
subject-04,1,529,0.915009021759033,dog,dog,bw,0529_cl_s04_bw_dog_40_n02099849_4121.png
subject-04,1,530,0.640789985656738,keyboard,keyboard,bw,0530_cl_s04_bw_keyboard_40_n04505470_5060.png
subject-04,1,531,0.832760095596313,car,car,bw,0531_cl_s04_bw_car_40_n04285008_7770.png
subject-04,1,532,0.854439973831177,keyboard,keyboard,bw,0532_cl_s04_bw_keyboard_40_n03085013_23800.png
subject-04,1,533,0.716245889663696,cat,cat,bw,0533_cl_s04_bw_cat_40_n02125311_46330.png
subject-04,1,534,1.09626913070679,cat,cat,cr,0534_cl_s04_cr_cat_40_n02125311_8567.png
subject-04,1,535,0.731849908828735,elephant,elephant,bw,0535_cl_s04_bw_elephant_40_n02504013_8308.png
subject-04,1,536,0.730157852172852,keyboard,keyboard,bw,0536_cl_s04_bw_keyboard_40_n03085013_23789.png
subject-04,1,537,0.639657974243164,bird,bird,cr,0537_cl_s04_cr_bird_40_n02007558_2822.png
subject-04,1,538,0.653759002685547,boat,boat,bw,0538_cl_s04_bw_boat_40_n03344393_7614.png
subject-04,1,539,0.539114952087402,keyboard,keyboard,bw,0539_cl_s04_bw_keyboard_40_n04505470_7312.png
subject-04,1,540,0.675105094909668,elephant,elephant,bw,0540_cl_s04_bw_elephant_40_n02504013_1560.png
subject-04,1,541,0.750944852828979,bear,bear,bw,0541_cl_s04_bw_bear_40_n02132136_23248.png
subject-04,1,542,0.768768072128296,clock,clock,bw,0542_cl_s04_bw_clock_40_n02708093_7841.png
subject-04,1,543,1.21038913726807,chair,chair,bw,0543_cl_s04_bw_chair_40_n04429376_21865.png
subject-04,1,544,0.846240043640137,keyboard,keyboard,bw,0544_cl_s04_bw_keyboard_40_n04505470_510.png
subject-04,1,545,0.716185092926025,bottle,bottle,cr,0545_cl_s04_cr_bottle_40_n04560804_545.png
subject-04,1,546,0.746131896972656,bottle,bottle,cr,0546_cl_s04_cr_bottle_40_n04579145_445.png
subject-04,1,547,0.923596143722534,dog,dog,cr,0547_cl_s04_cr_dog_40_n02113799_6997.png
subject-04,1,548,0.801411867141724,chair,chair,bw,0548_cl_s04_bw_chair_40_n03376595_2420.png
subject-04,1,549,0.633546829223633,boat,boat,cr,0549_cl_s04_cr_boat_40_n03662601_26681.png
subject-04,1,550,0.801062107086182,chair,chair,bw,0550_cl_s04_bw_chair_40_n03376595_2924.png
subject-04,1,551,0.587188005447388,bird,bird,cr,0551_cl_s04_cr_bird_40_n02018207_7460.png
subject-04,1,552,0.933089017868042,bird,bird,cr,0552_cl_s04_cr_bird_40_n01860187_1258.png
subject-04,1,553,0.780585050582886,elephant,elephant,bw,0553_cl_s04_bw_elephant_40_n02504013_5503.png
subject-04,1,554,0.878509044647217,dog,bear,bw,0554_cl_s04_bw_bear_40_n02134418_2324.png
subject-04,1,555,0.834134101867676,bicycle,bicycle,bw,0555_cl_s04_bw_bicycle_40_n03792782_4102.png
subject-04,1,556,0.62796688079834,keyboard,keyboard,cr,0556_cl_s04_cr_keyboard_40_n03085013_20078.png
subject-04,1,557,0.597841024398804,bottle,bottle,bw,0557_cl_s04_bw_bottle_40_n02823428_4405.png
subject-04,1,558,0.629694938659668,oven,oven,bw,0558_cl_s04_bw_oven_40_n04111531_12830.png
subject-04,1,559,0.673418998718262,car,car,bw,0559_cl_s04_bw_car_40_n02814533_95054.png
subject-04,1,560,1.33515191078186,car,car,cr,0560_cl_s04_cr_car_40_n03100240_12146.png
subject-04,1,561,0.530468940734863,oven,oven,cr,0561_cl_s04_cr_oven_40_n04111531_8688.png
subject-04,1,562,0.672451019287109,knife,knife,cr,0562_cl_s04_cr_knife_40_n03041632_36277.png
subject-04,1,563,0.652152061462402,bird,bird,bw,0563_cl_s04_bw_bird_40_n02006656_6733.png
subject-04,1,564,0.67217493057251,elephant,oven,bw,0564_cl_s04_bw_oven_40_n04111531_19000.png
subject-04,1,565,0.589856863021851,keyboard,keyboard,cr,0565_cl_s04_cr_keyboard_40_n03085013_5622.png
subject-04,1,566,1.04360103607178,cat,cat,cr,0566_cl_s04_cr_cat_40_n02123045_6607.png
subject-04,1,567,0.805704116821289,truck,truck,cr,0567_cl_s04_cr_truck_40_n03417042_14575.png
subject-04,1,568,1.07714605331421,truck,truck,cr,0568_cl_s04_cr_truck_40_n03417042_5752.png
subject-04,1,569,0.788918018341064,bottle,bottle,bw,0569_cl_s04_bw_bottle_40_n03983396_3817.png
subject-04,1,570,0.660867929458618,keyboard,keyboard,bw,0570_cl_s04_bw_keyboard_40_n03085013_7440.png
subject-04,1,571,NaN,na,chair,bw,0571_cl_s04_bw_chair_40_n02791124_957.png
subject-04,1,572,0.942615985870361,bird,bird,bw,0572_cl_s04_bw_bird_40_n01558993_6287.png
subject-04,1,573,0.588226079940796,oven,oven,cr,0573_cl_s04_cr_oven_40_n04111531_4452.png
subject-04,1,574,0.968087911605835,clock,clock,bw,0574_cl_s04_bw_clock_40_n04548280_4354.png
subject-04,1,575,0.847952127456665,elephant,elephant,cr,0575_cl_s04_cr_elephant_40_n02504013_7026.png
subject-04,1,576,0.805755138397217,dog,dog,cr,0576_cl_s04_cr_dog_40_n02102177_5870.png
subject-04,1,577,0.699558973312378,keyboard,keyboard,cr,0577_cl_s04_cr_keyboard_40_n03085013_18625.png
subject-04,1,578,0.779227018356323,truck,truck,bw,0578_cl_s04_bw_truck_40_n04467665_68331.png
subject-04,1,579,0.937480926513672,bottle,bottle,cr,0579_cl_s04_cr_bottle_40_n04560804_10184.png
subject-04,1,580,0.698889017105103,bird,bird,cr,0580_cl_s04_cr_bird_40_n01833805_8584.png
subject-04,1,581,1.23899102210999,truck,truck,cr,0581_cl_s04_cr_truck_40_n04467665_34228.png
subject-04,1,582,0.960613012313843,bicycle,bicycle,bw,0582_cl_s04_bw_bicycle_40_n03792782_41992.png
subject-04,1,583,0.756403923034668,boat,boat,bw,0583_cl_s04_bw_boat_40_n04612504_26666.png
subject-04,1,584,0.808560848236084,knife,knife,cr,0584_cl_s04_cr_knife_40_n03041632_30573.png
subject-04,1,585,0.958055019378662,truck,truck,bw,0585_cl_s04_bw_truck_40_n03417042_27907.png
subject-04,1,586,0.993796825408936,bird,bird,bw,0586_cl_s04_bw_bird_40_n02025239_7746.png
subject-04,1,587,0.653809070587158,chair,chair,cr,0587_cl_s04_cr_chair_40_n04099969_4543.png
subject-04,1,588,0.893626928329468,chair,chair,cr,0588_cl_s04_cr_chair_40_n04099969_4205.png
subject-04,1,589,0.695288896560669,cat,cat,cr,0589_cl_s04_cr_cat_40_n02123159_6609.png
subject-04,1,590,0.87119197845459,dog,dog,cr,0590_cl_s04_cr_dog_40_n02105505_4069.png
subject-04,1,591,0.60898494720459,oven,oven,bw,0591_cl_s04_bw_oven_40_n04111531_2207.png
subject-04,1,592,0.84709095954895,chair,chair,bw,0592_cl_s04_bw_chair_40_n04099969_1775.png
subject-04,1,593,0.654481887817383,oven,oven,cr,0593_cl_s04_cr_oven_40_n04111531_6609.png
subject-04,1,594,0.698622941970825,car,car,cr,0594_cl_s04_cr_car_40_n04285008_6200.png
subject-04,1,595,0.860638856887817,knife,knife,cr,0595_cl_s04_cr_knife_40_n03041632_13478.png
subject-04,1,596,0.974366903305054,car,truck,cr,0596_cl_s04_cr_truck_40_n03796401_14203.png
subject-04,1,597,0.545814037322998,clock,clock,cr,0597_cl_s04_cr_clock_40_n04548280_3605.png
subject-04,1,598,0.659538984298706,bird,bird,cr,0598_cl_s04_cr_bird_40_n02056570_6364.png
subject-04,1,599,0.895296096801758,cat,cat,cr,0599_cl_s04_cr_cat_40_n02123045_7646.png
subject-04,1,600,0.759389877319336,cat,cat,bw,0600_cl_s04_bw_cat_40_n02123045_569.png
subject-04,1,601,0.631197929382324,car,car,bw,0601_cl_s04_bw_car_40_n03100240_15941.png
subject-04,1,602,0.612876176834106,clock,clock,bw,0602_cl_s04_bw_clock_40_n03196217_5258.png
subject-04,1,603,0.849032878875732,bicycle,bicycle,cr,0603_cl_s04_cr_bicycle_40_n02835271_8502.png
subject-04,1,604,0.71235203742981,cat,cat,cr,0604_cl_s04_cr_cat_40_n02124075_11039.png
subject-04,1,605,1.40433883666992,boat,chair,cr,0605_cl_s04_cr_chair_40_n03376595_3038.png
subject-04,1,606,0.614211082458496,bottle,bottle,cr,0606_cl_s04_cr_bottle_40_n03983396_5864.png
subject-04,1,607,0.633892059326172,keyboard,keyboard,cr,0607_cl_s04_cr_keyboard_40_n03085013_3795.png
subject-04,1,608,1.08784008026123,truck,truck,cr,0608_cl_s04_cr_truck_40_n03417042_7458.png
subject-04,1,609,0.997735023498535,truck,truck,bw,0609_cl_s04_bw_truck_40_n03796401_4423.png
subject-04,1,610,0.901770830154419,knife,knife,cr,0610_cl_s04_cr_knife_40_n03041632_23546.png
subject-04,1,611,0.693638801574707,elephant,elephant,cr,0611_cl_s04_cr_elephant_40_n02504458_5788.png
subject-04,1,612,0.673348903656006,chair,chair,bw,0612_cl_s04_bw_chair_40_n03376595_1766.png
subject-04,1,613,1.17869901657104,bear,bear,bw,0613_cl_s04_bw_bear_40_n02133161_1003.png
subject-04,1,614,0.954697132110596,truck,truck,bw,0614_cl_s04_bw_truck_40_n03417042_2056.png
subject-04,1,615,0.690331935882568,airplane,airplane,cr,0615_cl_s04_cr_airplane_40_n02690373_1732.png
subject-04,1,616,0.616312026977539,cat,cat,bw,0616_cl_s04_bw_cat_40_n02125311_31318.png
subject-04,1,617,0.676128149032593,boat,boat,bw,0617_cl_s04_bw_boat_40_n03344393_5296.png
subject-04,1,618,1.26197504997253,bicycle,bicycle,bw,0618_cl_s04_bw_bicycle_40_n03792782_2960.png
subject-04,1,619,0.774003982543945,airplane,airplane,bw,0619_cl_s04_bw_airplane_40_n02690373_7107.png
subject-04,1,620,1.36326193809509,cat,bird,bw,0620_cl_s04_bw_bird_40_n02025239_2481.png
subject-04,1,621,0.977233171463013,boat,boat,bw,0621_cl_s04_bw_boat_40_n02951358_7944.png
subject-04,1,622,0.856987953186035,knife,bottle,bw,0622_cl_s04_bw_bottle_40_n03983396_20329.png
subject-04,1,623,0.682864904403687,boat,boat,bw,0623_cl_s04_bw_boat_40_n03344393_10284.png
subject-04,1,624,0.901031017303467,chair,chair,cr,0624_cl_s04_cr_chair_40_n02791124_1239.png
subject-04,1,625,0.758590221405029,airplane,airplane,bw,0625_cl_s04_bw_airplane_40_n02690373_9619.png
subject-04,1,626,1.41254091262817,dog,cat,cr,0626_cl_s04_cr_cat_40_n02123159_782.png
subject-04,1,627,0.890008926391602,bird,bird,bw,0627_cl_s04_bw_bird_40_n01592084_5361.png
subject-04,1,628,0.778053998947144,keyboard,keyboard,cr,0628_cl_s04_cr_keyboard_40_n03085013_24001.png
subject-04,1,629,0.656212091445923,bottle,bottle,bw,0629_cl_s04_bw_bottle_40_n02823428_6767.png
subject-04,1,630,0.567594051361084,clock,clock,bw,0630_cl_s04_bw_clock_40_n02708093_3745.png
subject-04,1,631,0.657721996307373,car,car,bw,0631_cl_s04_bw_car_40_n04285008_4834.png
subject-04,1,632,0.809499979019165,boat,boat,bw,0632_cl_s04_bw_boat_40_n03662601_3984.png
subject-04,1,633,0.960890054702759,dog,dog,bw,0633_cl_s04_bw_dog_40_n02105056_15484.png
subject-04,1,634,0.886775016784668,dog,dog,cr,0634_cl_s04_cr_dog_40_n02102318_19745.png
subject-04,1,635,0.694796085357666,elephant,elephant,bw,0635_cl_s04_bw_elephant_40_n02504458_5972.png
subject-04,1,636,0.774519205093384,car,dog,cr,0636_cl_s04_cr_dog_40_n02110185_7540.png
subject-04,1,637,0.716500043869019,bicycle,bicycle,cr,0637_cl_s04_cr_bicycle_40_n02835271_7351.png
subject-04,1,638,0.698453903198242,bottle,bottle,cr,0638_cl_s04_cr_bottle_40_n03937543_5322.png
subject-04,1,639,0.765790939331055,bottle,bottle,cr,0639_cl_s04_cr_bottle_40_n03937543_1231.png
subject-04,1,640,0.791820049285889,car,car,bw,0640_cl_s04_bw_car_40_n02814533_85368.png
subject-04,1,641,0.837567090988159,airplane,airplane,cr,0641_cl_s04_cr_airplane_40_n02690373_9086.png
subject-04,1,642,0.913368940353394,chair,knife,bw,0642_cl_s04_bw_knife_40_n03041632_33424.png
subject-04,1,643,0.703061103820801,keyboard,keyboard,cr,0643_cl_s04_cr_keyboard_40_n03085013_19483.png
subject-04,1,644,0.832848072052002,knife,knife,cr,0644_cl_s04_cr_knife_40_n03041632_45090.png
subject-04,1,645,0.780673027038574,boat,boat,bw,0645_cl_s04_bw_boat_40_n02951358_4485.png
subject-04,1,646,0.784440994262695,bicycle,bicycle,cr,0646_cl_s04_cr_bicycle_40_n03792782_32379.png
subject-04,1,647,0.700296878814697,bird,bird,cr,0647_cl_s04_cr_bird_40_n01819313_6430.png
subject-04,1,648,0.832087993621826,bird,bird,bw,0648_cl_s04_bw_bird_40_n02006656_3185.png
subject-04,1,649,0.671693086624146,boat,boat,bw,0649_cl_s04_bw_boat_40_n03344393_5066.png
subject-04,1,650,0.630023956298828,chair,chair,cr,0650_cl_s04_cr_chair_40_n04429376_7181.png
subject-04,1,651,0.701559066772461,oven,oven,cr,0651_cl_s04_cr_oven_40_n04111531_2260.png
subject-04,1,652,0.659353971481323,clock,clock,bw,0652_cl_s04_bw_clock_40_n03196217_5888.png
subject-04,1,653,0.64149284362793,bear,bear,bw,0653_cl_s04_bw_bear_40_n02134084_21413.png
subject-04,1,654,0.707026958465576,oven,oven,bw,0654_cl_s04_bw_oven_40_n04111531_3955.png
subject-04,1,655,0.944709062576294,car,car,cr,0655_cl_s04_cr_car_40_n02814533_54845.png
subject-04,1,656,0.870784044265747,bicycle,bicycle,cr,0656_cl_s04_cr_bicycle_40_n03792782_7570.png
subject-04,1,657,0.772799015045166,airplane,airplane,cr,0657_cl_s04_cr_airplane_40_n02690373_6812.png
subject-04,1,658,0.772405862808228,bicycle,bicycle,cr,0658_cl_s04_cr_bicycle_40_n02835271_19400.png
subject-04,1,659,0.750066995620728,keyboard,keyboard,bw,0659_cl_s04_bw_keyboard_40_n04505470_713.png
subject-04,1,660,0.847897052764893,bear,elephant,bw,0660_cl_s04_bw_elephant_40_n02504013_2770.png
subject-04,1,661,0.69566798210144,clock,clock,cr,0661_cl_s04_cr_clock_40_n02708093_6610.png
subject-04,1,662,0.985476970672607,dog,dog,cr,0662_cl_s04_cr_dog_40_n02099849_6488.png
subject-04,1,663,1.28725099563599,oven,oven,bw,0663_cl_s04_bw_oven_40_n04111531_9702.png
subject-04,1,664,0.761024951934814,truck,truck,cr,0664_cl_s04_cr_truck_40_n03417042_9580.png
subject-04,1,665,0.87923789024353,cat,cat,bw,0665_cl_s04_bw_cat_40_n02123159_2107.png
subject-04,1,666,0.992784976959229,bottle,bottle,cr,0666_cl_s04_cr_bottle_40_n04591713_5559.png
subject-04,1,667,0.684457063674927,bird,bird,bw,0667_cl_s04_bw_bird_40_n01828970_5448.png
subject-04,1,668,0.778353929519653,knife,knife,bw,0668_cl_s04_bw_knife_40_n03041632_3101.png
subject-04,1,669,0.704209089279175,car,car,bw,0669_cl_s04_bw_car_40_n04285008_9404.png
subject-04,1,670,0.770028829574585,bottle,bottle,bw,0670_cl_s04_bw_bottle_40_n04560804_10989.png
subject-04,1,671,1.08786392211914,knife,knife,bw,0671_cl_s04_bw_knife_40_n03041632_85416.png
subject-04,1,672,0.645612955093384,bottle,keyboard,cr,0672_cl_s04_cr_keyboard_40_n03085013_3489.png
subject-04,1,673,1.11969900131226,dog,dog,cr,0673_cl_s04_cr_dog_40_n02113624_9189.png
subject-04,1,674,0.901366949081421,bear,bear,cr,0674_cl_s04_cr_bear_40_n02133161_739.png
subject-04,1,675,1.0770001411438,knife,knife,cr,0675_cl_s04_cr_knife_40_n03041632_20707.png
subject-04,1,676,1.01482105255127,boat,boat,bw,0676_cl_s04_bw_boat_40_n03662601_8709.png
subject-04,1,677,1.06669902801514,clock,clock,bw,0677_cl_s04_bw_clock_40_n03196217_868.png
subject-04,1,678,0.880788087844849,elephant,elephant,cr,0678_cl_s04_cr_elephant_40_n02504013_4590.png
subject-04,1,679,0.844153165817261,knife,knife,cr,0679_cl_s04_cr_knife_40_n03041632_4708.png
subject-04,1,680,0.762098073959351,bicycle,bicycle,bw,0680_cl_s04_bw_bicycle_40_n03792782_49707.png
subject-04,1,681,0.693930864334106,bear,bear,cr,0681_cl_s04_cr_bear_40_n02134084_20500.png
subject-04,1,682,1.39356398582458,bird,clock,bw,0682_cl_s04_bw_clock_40_n03196217_127.png
subject-04,1,683,0.843474864959717,bird,bird,bw,0683_cl_s04_bw_bird_40_n01829413_1997.png
subject-04,1,684,0.715686082839966,bird,bird,cr,0684_cl_s04_cr_bird_40_n01828970_23168.png
subject-04,1,685,0.734953880310059,cat,cat,bw,0685_cl_s04_bw_cat_40_n02123597_5298.png
subject-04,1,686,1.09897112846375,bird,bird,bw,0686_cl_s04_bw_bird_40_n01817953_6548.png
subject-04,1,687,0.916769027709961,elephant,elephant,cr,0687_cl_s04_cr_elephant_40_n02504013_14918.png
subject-04,1,688,0.746506929397583,dog,dog,cr,0688_cl_s04_cr_dog_40_n02097209_1491.png
subject-04,1,689,0.534235954284668,airplane,airplane,bw,0689_cl_s04_bw_airplane_40_n02690373_15966.png
subject-04,1,690,0.734095096588135,car,car,cr,0690_cl_s04_cr_car_40_n02814533_74825.png
subject-04,1,691,0.796037912368774,truck,truck,bw,0691_cl_s04_bw_truck_40_n03796401_1710.png
subject-04,1,692,0.677731037139893,keyboard,keyboard,cr,0692_cl_s04_cr_keyboard_40_n04505470_4594.png
subject-04,1,693,1.21200203895569,keyboard,bottle,cr,0693_cl_s04_cr_bottle_40_n04591713_2899.png
subject-04,1,694,0.707698106765747,bird,bird,cr,0694_cl_s04_cr_bird_40_n01616318_4878.png
subject-04,1,695,0.697103023529053,cat,cat,cr,0695_cl_s04_cr_cat_40_n02123159_1794.png
subject-04,1,696,0.675066947937012,dog,dog,bw,0696_cl_s04_bw_dog_40_n02088466_5521.png
subject-04,1,697,1.36881017684937,airplane,airplane,cr,0697_cl_s04_cr_airplane_40_n02690373_6543.png
subject-04,1,698,0.820757150650024,bicycle,knife,cr,0698_cl_s04_cr_knife_40_n03041632_28201.png
subject-04,1,699,1.12045001983643,bicycle,bicycle,cr,0699_cl_s04_cr_bicycle_40_n03792782_5466.png
subject-04,1,700,NaN,na,knife,cr,0700_cl_s04_cr_knife_40_n03041632_94620.png
subject-04,1,701,0.580021142959595,bicycle,bicycle,bw,0701_cl_s04_bw_bicycle_40_n03792782_818.png
subject-04,1,702,0.735934019088745,bird,bear,cr,0702_cl_s04_cr_bear_40_n02134084_23974.png
subject-04,1,703,0.813750982284546,truck,truck,cr,0703_cl_s04_cr_truck_40_n03796401_8100.png
subject-04,1,704,0.857587099075317,clock,clock,cr,0704_cl_s04_cr_clock_40_n03196217_3430.png
subject-04,1,705,0.625468969345093,bird,bird,cr,0705_cl_s04_cr_bird_40_n01601694_24991.png
subject-04,1,706,0.707113027572632,truck,truck,bw,0706_cl_s04_bw_truck_40_n04467665_18234.png
subject-04,1,707,0.623372077941895,keyboard,keyboard,cr,0707_cl_s04_cr_keyboard_40_n04505470_8575.png
subject-04,1,708,0.674774885177612,bottle,bottle,cr,0708_cl_s04_cr_bottle_40_n02823428_987.png
subject-04,1,709,0.756556034088135,bottle,bottle,bw,0709_cl_s04_bw_bottle_40_n03937543_1995.png
subject-04,1,710,0.752500057220459,knife,knife,bw,0710_cl_s04_bw_knife_40_n03041632_100645.png
subject-04,1,711,0.788202047348022,bottle,bottle,cr,0711_cl_s04_cr_bottle_40_n03983396_4212.png
subject-04,1,712,0.633911848068237,bicycle,bicycle,cr,0712_cl_s04_cr_bicycle_40_n02835271_8982.png
subject-04,1,713,0.731794118881226,bear,bear,bw,0713_cl_s04_bw_bear_40_n02132136_2463.png
subject-04,1,714,1.18365406990051,boat,boat,bw,0714_cl_s04_bw_boat_40_n03344393_7659.png
subject-04,1,715,1.42949509620667,airplane,knife,bw,0715_cl_s04_bw_knife_40_n03041632_33739.png
subject-04,1,716,0.995751857757568,boat,boat,cr,0716_cl_s04_cr_boat_40_n03344393_2408.png
subject-04,1,717,0.793411016464233,dog,dog,cr,0717_cl_s04_cr_dog_40_n02097658_16.png
subject-04,1,718,0.78288197517395,bird,bird,cr,0718_cl_s04_cr_bird_40_n01833805_4859.png
subject-04,1,719,0.733128070831299,bicycle,bicycle,bw,0719_cl_s04_bw_bicycle_40_n02835271_5113.png
subject-04,1,720,0.706501007080078,boat,boat,cr,0720_cl_s04_cr_boat_40_n03344393_9818.png
subject-04,1,721,1.07752108573914,cat,cat,bw,0721_cl_s04_bw_cat_40_n02124075_12369.png
subject-04,1,722,0.609362125396729,cat,cat,cr,0722_cl_s04_cr_cat_40_n02125311_13383.png
subject-04,1,723,0.779026031494141,bird,bird,bw,0723_cl_s04_bw_bird_40_n01843383_5962.png
subject-04,1,724,0.672966003417969,boat,boat,bw,0724_cl_s04_bw_boat_40_n03662601_855.png
subject-04,1,725,1.08492588996887,car,bird,bw,0725_cl_s04_bw_bird_40_n01818515_10536.png
subject-04,1,726,0.714574098587036,knife,knife,bw,0726_cl_s04_bw_knife_40_n03041632_20413.png
subject-04,1,727,0.896327972412109,dog,bear,cr,0727_cl_s04_cr_bear_40_n02133161_2202.png
subject-04,1,728,0.770232915878296,truck,truck,bw,0728_cl_s04_bw_truck_40_n03417042_5229.png
subject-04,1,729,0.649985074996948,bottle,bottle,bw,0729_cl_s04_bw_bottle_40_n02823428_5214.png
subject-04,1,730,0.834009170532227,airplane,airplane,cr,0730_cl_s04_cr_airplane_40_n02690373_7145.png
subject-04,1,731,1.14758896827698,elephant,bear,bw,0731_cl_s04_bw_bear_40_n02134418_397.png
subject-04,1,732,1.19155097007751,dog,dog,cr,0732_cl_s04_cr_dog_40_n02113624_3403.png
subject-04,1,733,0.569243907928467,boat,boat,bw,0733_cl_s04_bw_boat_40_n03662601_8283.png
subject-04,1,734,1.17505097389221,dog,clock,bw,0734_cl_s04_bw_clock_40_n03196217_5165.png
subject-04,1,735,0.695233821868896,keyboard,keyboard,bw,0735_cl_s04_bw_keyboard_40_n03085013_31513.png
subject-04,1,736,0.692708969116211,airplane,airplane,cr,0736_cl_s04_cr_airplane_40_n02690373_610.png
subject-04,1,737,0.868515014648438,bicycle,bicycle,bw,0737_cl_s04_bw_bicycle_40_n02835271_12847.png
subject-04,1,738,1.30046987533569,bear,elephant,bw,0738_cl_s04_bw_elephant_40_n02504458_2556.png
subject-04,1,739,0.74860692024231,truck,truck,cr,0739_cl_s04_cr_truck_40_n03417042_4218.png
subject-04,1,740,1.19228005409241,cat,bear,cr,0740_cl_s04_cr_bear_40_n02133161_1362.png
subject-04,1,741,1.00575613975525,elephant,elephant,bw,0741_cl_s04_bw_elephant_40_n02504458_1961.png
subject-04,1,742,0.669894933700562,boat,boat,cr,0742_cl_s04_cr_boat_40_n03344393_5859.png
subject-04,1,743,1.01126599311829,oven,oven,cr,0743_cl_s04_cr_oven_40_n04111531_2592.png
subject-04,1,744,0.981614112854004,elephant,elephant,cr,0744_cl_s04_cr_elephant_40_n02504013_10330.png
subject-04,1,745,0.592875003814697,car,car,cr,0745_cl_s04_cr_car_40_n02814533_27983.png
subject-04,1,746,0.81669807434082,bear,bear,cr,0746_cl_s04_cr_bear_40_n02133161_574.png
subject-04,1,747,0.634809970855713,oven,oven,cr,0747_cl_s04_cr_oven_40_n04111531_2296.png
subject-04,1,748,0.802561044692993,clock,clock,cr,0748_cl_s04_cr_clock_40_n02708093_8267.png
subject-04,1,749,0.668207168579102,dog,dog,cr,0749_cl_s04_cr_dog_40_n02110958_2363.png
subject-04,1,750,0.566183805465698,bicycle,bicycle,bw,0750_cl_s04_bw_bicycle_40_n03792782_25799.png
subject-04,1,751,0.689872026443481,boat,boat,cr,0751_cl_s04_cr_boat_40_n03662601_27023.png
subject-04,1,752,0.923808097839355,knife,knife,cr,0752_cl_s04_cr_knife_40_n03041632_90125.png
subject-04,1,753,0.82566499710083,elephant,elephant,bw,0753_cl_s04_bw_elephant_40_n02504458_5799.png
subject-04,1,754,0.627318143844604,cat,cat,cr,0754_cl_s04_cr_cat_40_n02124075_17464.png
subject-04,1,755,0.733217000961304,bottle,bottle,bw,0755_cl_s04_bw_bottle_40_n03983396_16300.png
subject-04,1,756,0.74930214881897,cat,cat,bw,0756_cl_s04_bw_cat_40_n02123045_6445.png
subject-04,1,757,1.08269810676575,bear,bear,bw,0757_cl_s04_bw_bear_40_n02132136_10134.png
subject-04,1,758,0.692683935165405,bird,bird,cr,0758_cl_s04_cr_bird_40_n01860187_2825.png
subject-04,1,759,0.862492084503174,truck,truck,cr,0759_cl_s04_cr_truck_40_n03417042_6213.png
subject-04,1,760,0.670112133026123,clock,clock,cr,0760_cl_s04_cr_clock_40_n02708093_6696.png
subject-04,1,761,0.816087961196899,clock,clock,bw,0761_cl_s04_bw_clock_40_n04548280_4346.png
subject-04,1,762,0.809979915618896,chair,chair,cr,0762_cl_s04_cr_chair_40_n04429376_7788.png
subject-04,1,763,1.04149484634399,bottle,bottle,cr,0763_cl_s04_cr_bottle_40_n03937543_396.png
subject-04,1,764,0.80148720741272,oven,oven,bw,0764_cl_s04_bw_oven_40_n04111531_12702.png
subject-04,1,765,0.901357889175415,bird,bird,cr,0765_cl_s04_cr_bird_40_n01558993_3939.png
subject-04,1,766,0.71704888343811,chair,chair,bw,0766_cl_s04_bw_chair_40_n03376595_8140.png
subject-04,1,767,1.08684206008911,boat,boat,cr,0767_cl_s04_cr_boat_40_n04612504_18536.png
subject-04,1,768,0.766595125198364,clock,clock,bw,0768_cl_s04_bw_clock_40_n02708093_1430.png
subject-04,1,769,1.13059997558594,bicycle,bicycle,bw,0769_cl_s04_bw_bicycle_40_n03792782_13140.png
subject-04,1,770,0.720245122909546,airplane,airplane,bw,0770_cl_s04_bw_airplane_40_n02690373_8461.png
subject-04,1,771,0.666057109832764,clock,clock,bw,0771_cl_s04_bw_clock_40_n04548280_5456.png
subject-04,1,772,0.727956056594849,dog,dog,cr,0772_cl_s04_cr_dog_40_n02088466_1671.png
subject-04,1,773,0.757774829864502,bicycle,bicycle,bw,0773_cl_s04_bw_bicycle_40_n03792782_2628.png
subject-04,1,774,0.785427093505859,truck,truck,bw,0774_cl_s04_bw_truck_40_n04467665_31376.png
subject-04,1,775,0.819683074951172,bear,bear,bw,0775_cl_s04_bw_bear_40_n02134084_742.png
subject-04,1,776,1.35503602027893,bird,oven,bw,0776_cl_s04_bw_oven_40_n04111531_3353.png
subject-04,1,777,0.854873895645142,car,car,cr,0777_cl_s04_cr_car_40_n03100240_2552.png
subject-04,1,778,0.640701055526733,cat,cat,bw,0778_cl_s04_bw_cat_40_n02123045_8336.png
subject-04,1,779,0.614546060562134,airplane,airplane,cr,0779_cl_s04_cr_airplane_40_n02690373_19438.png
subject-04,1,780,0.936263084411621,chair,oven,bw,0780_cl_s04_bw_oven_40_n04111531_615.png
subject-04,1,781,0.630348920822144,bird,bird,cr,0781_cl_s04_cr_bird_40_n01829413_122.png
subject-04,1,782,0.900192022323608,bottle,bottle,cr,0782_cl_s04_cr_bottle_40_n04560804_2005.png
subject-04,1,783,0.721935987472534,elephant,elephant,bw,0783_cl_s04_bw_elephant_40_n02504458_10344.png
subject-04,1,784,1.21144008636475,oven,oven,bw,0784_cl_s04_bw_oven_40_n04111531_7189.png
subject-04,1,785,0.855869054794312,knife,knife,cr,0785_cl_s04_cr_knife_40_n03041632_51256.png
subject-04,1,786,0.75542688369751,cat,cat,bw,0786_cl_s04_bw_cat_40_n02123159_6041.png
subject-04,1,787,0.639100074768066,elephant,elephant,cr,0787_cl_s04_cr_elephant_40_n02504013_4892.png
subject-04,1,788,0.636829137802124,truck,truck,bw,0788_cl_s04_bw_truck_40_n04467665_71126.png
subject-04,1,789,0.886701107025146,dog,dog,cr,0789_cl_s04_cr_dog_40_n02106662_9600.png
subject-04,1,790,0.806403875350952,truck,truck,bw,0790_cl_s04_bw_truck_40_n03417042_3236.png
subject-04,1,791,1.26829290390015,dog,dog,cr,0791_cl_s04_cr_dog_40_n02093647_4091.png
subject-04,1,792,0.788375854492188,bottle,bottle,cr,0792_cl_s04_cr_bottle_40_n02823428_765.png
subject-04,1,793,1.17997598648071,truck,knife,cr,0793_cl_s04_cr_knife_40_n03041632_27929.png
subject-04,1,794,0.753829956054688,keyboard,keyboard,bw,0794_cl_s04_bw_keyboard_40_n04505470_3957.png
subject-04,1,795,0.637609004974365,truck,truck,bw,0795_cl_s04_bw_truck_40_n03796401_27288.png
subject-04,1,796,1.06535291671753,dog,dog,cr,0796_cl_s04_cr_dog_40_n02090622_11748.png
subject-04,1,797,0.801162958145142,bear,bear,bw,0797_cl_s04_bw_bear_40_n02134418_4456.png
subject-04,1,798,0.709060192108154,dog,dog,bw,0798_cl_s04_bw_dog_40_n02099712_1234.png
subject-04,1,799,0.917171955108643,oven,oven,bw,0799_cl_s04_bw_oven_40_n04111531_15852.png
subject-04,1,800,0.82270884513855,keyboard,keyboard,bw,0800_cl_s04_bw_keyboard_40_n04505470_361.png
subject-04,1,801,0.819024085998535,dog,cat,bw,0801_cl_s04_bw_cat_40_n02123597_9939.png
subject-04,1,802,0.795279979705811,bear,bear,cr,0802_cl_s04_cr_bear_40_n02134418_1253.png
subject-04,1,803,0.717082977294922,truck,truck,bw,0803_cl_s04_bw_truck_40_n03417042_265.png
subject-04,1,804,0.940639019012451,knife,knife,cr,0804_cl_s04_cr_knife_40_n03041632_24060.png
subject-04,1,805,1.3183798789978,chair,chair,bw,0805_cl_s04_bw_chair_40_n04429376_12337.png
subject-04,1,806,0.894398927688599,truck,truck,cr,0806_cl_s04_cr_truck_40_n03417042_19479.png
subject-04,1,807,0.759935855865479,boat,boat,bw,0807_cl_s04_bw_boat_40_n04273569_12917.png
subject-04,1,808,0.662150859832764,clock,clock,bw,0808_cl_s04_bw_clock_40_n04548280_7813.png
subject-04,1,809,0.665776968002319,airplane,airplane,bw,0809_cl_s04_bw_airplane_40_n02690373_9812.png
subject-04,1,810,0.633779048919678,clock,clock,cr,0810_cl_s04_cr_clock_40_n02708093_3385.png
subject-04,1,811,0.677163124084473,bird,bird,cr,0811_cl_s04_cr_bird_40_n01592084_3341.png
subject-04,1,812,0.585067987442017,clock,clock,cr,0812_cl_s04_cr_clock_40_n04548280_13469.png
subject-04,1,813,0.621119022369385,truck,chair,bw,0813_cl_s04_bw_chair_40_n02791124_2491.png
subject-04,1,814,0.750790119171143,bird,bird,cr,0814_cl_s04_cr_bird_40_n02002556_15337.png
subject-04,1,815,0.596442222595215,chair,chair,cr,0815_cl_s04_cr_chair_40_n03376595_6704.png
subject-04,1,816,0.764387130737305,knife,knife,cr,0816_cl_s04_cr_knife_40_n03041632_9671.png
subject-04,1,817,0.800041198730469,truck,truck,cr,0817_cl_s04_cr_truck_40_n03796401_5515.png
subject-04,1,818,0.559818029403687,keyboard,keyboard,bw,0818_cl_s04_bw_keyboard_40_n03085013_24045.png
subject-04,1,819,1.50005197525024,oven,oven,bw,0819_cl_s04_bw_oven_40_n04111531_14559.png
subject-04,1,820,0.649549007415771,knife,knife,bw,0820_cl_s04_bw_knife_40_n03041632_96714.png
subject-04,1,821,0.541419982910156,clock,clock,cr,0821_cl_s04_cr_clock_40_n02708093_3595.png
subject-04,1,822,1.20107793807983,cat,cat,cr,0822_cl_s04_cr_cat_40_n02123394_2395.png
subject-04,1,823,0.817323923110962,boat,boat,bw,0823_cl_s04_bw_boat_40_n02951358_863.png
subject-04,1,824,0.540846824645996,keyboard,keyboard,bw,0824_cl_s04_bw_keyboard_40_n03085013_7992.png
subject-04,1,825,0.912727832794189,elephant,elephant,cr,0825_cl_s04_cr_elephant_40_n02504013_4523.png
subject-04,1,826,0.624502182006836,boat,boat,bw,0826_cl_s04_bw_boat_40_n04273569_4044.png
subject-04,1,827,0.786325931549072,truck,truck,cr,0827_cl_s04_cr_truck_40_n04467665_54349.png
subject-04,1,828,0.726243019104004,boat,boat,bw,0828_cl_s04_bw_boat_40_n02951358_381.png
subject-04,1,829,1.50012493133545,bicycle,bicycle,cr,0829_cl_s04_cr_bicycle_40_n02835271_13023.png
subject-04,1,830,0.551856994628906,bottle,bottle,cr,0830_cl_s04_cr_bottle_40_n04557648_4302.png
subject-04,1,831,0.70933198928833,bird,bird,cr,0831_cl_s04_cr_bird_40_n01843383_10720.png
subject-04,1,832,0.78327488899231,oven,oven,bw,0832_cl_s04_bw_oven_40_n04111531_14329.png
subject-04,1,833,0.57499885559082,boat,boat,bw,0833_cl_s04_bw_boat_40_n04273569_9821.png
subject-04,1,834,0.696835041046143,bear,bear,cr,0834_cl_s04_cr_bear_40_n02133161_3988.png
subject-04,1,835,0.630652904510498,oven,oven,bw,0835_cl_s04_bw_oven_40_n04111531_3575.png
subject-04,1,836,0.690582036972046,elephant,elephant,bw,0836_cl_s04_bw_elephant_40_n02504458_5444.png
subject-04,1,837,1.50011420249939,cat,keyboard,cr,0837_cl_s04_cr_keyboard_40_n03085013_20398.png
subject-04,1,838,0.756153106689453,knife,knife,bw,0838_cl_s04_bw_knife_40_n03041632_10109.png
subject-04,1,839,1.01815605163574,bear,bear,cr,0839_cl_s04_cr_bear_40_n02133161_12868.png
subject-04,1,840,0.861788034439087,oven,oven,bw,0840_cl_s04_bw_oven_40_n04111531_20359.png
subject-04,1,841,0.763680934906006,oven,oven,bw,0841_cl_s04_bw_oven_40_n04111531_17922.png
subject-04,1,842,0.877517223358154,elephant,elephant,bw,0842_cl_s04_bw_elephant_40_n02504458_3714.png
subject-04,1,843,1.30948901176453,elephant,elephant,bw,0843_cl_s04_bw_elephant_40_n02504458_11363.png
subject-04,1,844,0.80522894859314,bird,bird,cr,0844_cl_s04_cr_bird_40_n01558993_11456.png
subject-04,1,845,0.706954002380371,clock,clock,bw,0845_cl_s04_bw_clock_40_n04548280_3305.png
subject-04,1,846,1.1506040096283,boat,boat,cr,0846_cl_s04_cr_boat_40_n03344393_3337.png
subject-04,1,847,NaN,na,bear,bw,0847_cl_s04_bw_bear_40_n02132136_6890.png
subject-04,1,848,0.738311052322388,bear,bear,cr,0848_cl_s04_cr_bear_40_n02134418_3846.png
subject-04,1,849,0.928225040435791,cat,cat,bw,0849_cl_s04_bw_cat_40_n02123394_4542.png
subject-04,1,850,0.608334064483643,airplane,airplane,bw,0850_cl_s04_bw_airplane_40_n02690373_3090.png
subject-04,1,851,0.705842971801758,bird,bird,bw,0851_cl_s04_bw_bird_40_n01592084_19555.png
subject-04,1,852,0.663520097732544,clock,clock,bw,0852_cl_s04_bw_clock_40_n02708093_4569.png
subject-04,1,853,0.741324901580811,car,car,cr,0853_cl_s04_cr_car_40_n02814533_83614.png
subject-04,1,854,0.823273897171021,car,car,bw,0854_cl_s04_bw_car_40_n04285008_5997.png
subject-04,1,855,0.669272899627686,airplane,airplane,cr,0855_cl_s04_cr_airplane_40_n02690373_5176.png
subject-04,1,856,0.978747129440308,bear,elephant,cr,0856_cl_s04_cr_elephant_40_n02504013_13560.png
subject-04,1,857,1.22064399719238,bear,bear,bw,0857_cl_s04_bw_bear_40_n02133161_1360.png
subject-04,1,858,0.770573139190674,bicycle,bicycle,bw,0858_cl_s04_bw_bicycle_40_n02835271_10813.png
subject-04,1,859,0.820393800735474,bird,cat,bw,0859_cl_s04_bw_cat_40_n02123394_4877.png
subject-04,1,860,0.754113912582397,oven,oven,bw,0860_cl_s04_bw_oven_40_n04111531_7862.png
subject-04,1,861,0.747781991958618,boat,boat,bw,0861_cl_s04_bw_boat_40_n02951358_34163.png
subject-04,1,862,0.687975883483887,airplane,airplane,cr,0862_cl_s04_cr_airplane_40_n02690373_60.png
subject-04,1,863,0.887378931045532,dog,dog,cr,0863_cl_s04_cr_dog_40_n02093647_2890.png
subject-04,1,864,0.869339942932129,elephant,elephant,cr,0864_cl_s04_cr_elephant_40_n02504013_3141.png
subject-04,1,865,1.13105511665344,truck,truck,bw,0865_cl_s04_bw_truck_40_n03417042_10043.png
subject-04,1,866,0.767039060592651,dog,dog,cr,0866_cl_s04_cr_dog_40_n02102040_7465.png
subject-04,1,867,0.666635036468506,car,car,bw,0867_cl_s04_bw_car_40_n02814533_93487.png
subject-04,1,868,0.820510864257812,bicycle,bottle,bw,0868_cl_s04_bw_bottle_40_n04557648_20614.png
subject-04,1,869,0.800220966339111,knife,knife,bw,0869_cl_s04_bw_knife_40_n03041632_36215.png
subject-04,1,870,0.888248920440674,bear,bear,cr,0870_cl_s04_cr_bear_40_n02134418_1482.png
subject-04,1,871,0.753937005996704,cat,cat,bw,0871_cl_s04_bw_cat_40_n02125311_17543.png
subject-04,1,872,0.649693012237549,knife,knife,bw,0872_cl_s04_bw_knife_40_n03041632_35365.png
subject-04,1,873,0.557860136032104,airplane,airplane,bw,0873_cl_s04_bw_airplane_40_n02690373_19104.png
subject-04,1,874,0.631660938262939,chair,chair,cr,0874_cl_s04_cr_chair_40_n04099969_7998.png
subject-04,1,875,0.633136034011841,car,car,cr,0875_cl_s04_cr_car_40_n04285008_901.png
subject-04,1,876,0.836999893188477,dog,dog,cr,0876_cl_s04_cr_dog_40_n02100877_1107.png
subject-04,1,877,0.776918172836304,bicycle,bicycle,bw,0877_cl_s04_bw_bicycle_40_n03792782_24591.png
subject-04,1,878,0.640699863433838,cat,cat,bw,0878_cl_s04_bw_cat_40_n02123045_3568.png
subject-04,1,879,0.534614086151123,cat,cat,cr,0879_cl_s04_cr_cat_40_n02123394_979.png
subject-04,1,880,0.616423845291138,oven,oven,cr,0880_cl_s04_cr_oven_40_n04111531_15947.png
subject-04,1,881,0.854045152664185,keyboard,keyboard,bw,0881_cl_s04_bw_keyboard_40_n04505470_3065.png
subject-04,1,882,0.639667987823486,clock,clock,cr,0882_cl_s04_cr_clock_40_n02708093_4976.png
subject-04,1,883,0.555824041366577,bottle,bottle,bw,0883_cl_s04_bw_bottle_40_n03983396_1006.png
subject-04,1,884,0.519345045089722,airplane,airplane,bw,0884_cl_s04_bw_airplane_40_n02690373_2750.png
subject-04,1,885,0.69530987739563,bear,bear,bw,0885_cl_s04_bw_bear_40_n02132136_4403.png
subject-04,1,886,0.739191055297852,knife,knife,bw,0886_cl_s04_bw_knife_40_n03041632_27575.png
subject-04,1,887,0.6092209815979,boat,boat,cr,0887_cl_s04_cr_boat_40_n02951358_30622.png
subject-04,1,888,0.660634994506836,bird,bird,cr,0888_cl_s04_cr_bird_40_n01855672_5670.png
subject-04,1,889,0.708330869674683,chair,chair,cr,0889_cl_s04_cr_chair_40_n04099969_23961.png
subject-04,1,890,0.526469945907593,boat,boat,bw,0890_cl_s04_bw_boat_40_n04273569_10021.png
subject-04,1,891,0.632199048995972,bird,bear,cr,0891_cl_s04_cr_bear_40_n02133161_4282.png
subject-04,1,892,0.813972949981689,bicycle,bicycle,cr,0892_cl_s04_cr_bicycle_40_n02835271_10469.png
subject-04,1,893,0.647881984710693,truck,truck,cr,0893_cl_s04_cr_truck_40_n03796401_18240.png
subject-04,1,894,0.663522005081177,truck,truck,cr,0894_cl_s04_cr_truck_40_n03796401_27184.png
subject-04,1,895,0.829640865325928,bird,bird,bw,0895_cl_s04_bw_bird_40_n01582220_5821.png
subject-04,1,896,0.705119132995605,oven,oven,cr,0896_cl_s04_cr_oven_40_n04111531_6080.png
subject-04,1,897,1.02293491363525,car,car,cr,0897_cl_s04_cr_car_40_n04285008_3453.png
subject-04,1,898,0.604788064956665,bottle,bottle,bw,0898_cl_s04_bw_bottle_40_n04560804_29208.png
subject-04,1,899,0.95069408416748,car,car,cr,0899_cl_s04_cr_car_40_n02814533_27942.png
subject-04,1,900,0.682456970214844,bicycle,bicycle,bw,0900_cl_s04_bw_bicycle_40_n03792782_551.png
subject-04,1,901,0.702307939529419,keyboard,keyboard,cr,0901_cl_s04_cr_keyboard_40_n04505470_665.png
subject-04,1,902,0.738070964813232,bear,bear,cr,0902_cl_s04_cr_bear_40_n02134084_4490.png
subject-04,1,903,0.680217981338501,boat,boat,bw,0903_cl_s04_bw_boat_40_n03662601_17361.png
subject-04,1,904,0.797651052474976,bear,bear,cr,0904_cl_s04_cr_bear_40_n02134418_685.png
subject-04,1,905,0.655751943588257,chair,chair,cr,0905_cl_s04_cr_chair_40_n03376595_19165.png
subject-04,1,906,0.69738507270813,clock,clock,cr,0906_cl_s04_cr_clock_40_n03196217_1499.png
subject-04,1,907,0.51914381980896,cat,cat,bw,0907_cl_s04_bw_cat_40_n02123159_4879.png
subject-04,1,908,0.642868041992188,clock,clock,bw,0908_cl_s04_bw_clock_40_n02708093_391.png
subject-04,1,909,0.732584953308105,dog,dog,bw,0909_cl_s04_bw_dog_40_n02091032_1035.png
subject-04,1,910,0.732554197311401,bird,bird,bw,0910_cl_s04_bw_bird_40_n02011460_5075.png
subject-04,1,911,0.604169845581055,boat,boat,bw,0911_cl_s04_bw_boat_40_n04273569_5901.png
subject-04,1,912,0.562245845794678,cat,cat,cr,0912_cl_s04_cr_cat_40_n02123394_238.png
subject-04,1,913,0.671770095825195,clock,clock,cr,0913_cl_s04_cr_clock_40_n02708093_6812.png
subject-04,1,914,0.847820043563843,car,oven,bw,0914_cl_s04_bw_oven_40_n04111531_978.png
subject-04,1,915,0.887722015380859,truck,truck,cr,0915_cl_s04_cr_truck_40_n04467665_68332.png
subject-04,1,916,0.811256885528564,dog,dog,cr,0916_cl_s04_cr_dog_40_n02091635_6519.png
subject-04,1,917,0.689096927642822,bicycle,bicycle,bw,0917_cl_s04_bw_bicycle_40_n03792782_67333.png
subject-04,1,918,0.662982940673828,cat,cat,cr,0918_cl_s04_cr_cat_40_n02125311_39106.png
subject-04,1,919,1.21092915534973,car,oven,cr,0919_cl_s04_cr_oven_40_n04111531_8959.png
subject-04,1,920,1.25465297698975,truck,truck,bw,0920_cl_s04_bw_truck_40_n03796401_1853.png
subject-04,1,921,0.902472019195557,elephant,elephant,bw,0921_cl_s04_bw_elephant_40_n02504013_8638.png
subject-04,1,922,0.602221965789795,airplane,airplane,cr,0922_cl_s04_cr_airplane_40_n02690373_2629.png
subject-04,1,923,0.559937953948975,boat,boat,bw,0923_cl_s04_bw_boat_40_n02951358_12354.png
subject-04,1,924,0.947942972183228,knife,knife,cr,0924_cl_s04_cr_knife_40_n03041632_44212.png
subject-04,1,925,0.830085039138794,oven,oven,bw,0925_cl_s04_bw_oven_40_n04111531_8036.png
subject-04,1,926,0.67766809463501,elephant,elephant,bw,0926_cl_s04_bw_elephant_40_n02504458_6721.png
subject-04,1,927,0.95127010345459,car,car,bw,0927_cl_s04_bw_car_40_n03100240_23849.png
subject-04,1,928,0.835099935531616,bird,bird,bw,0928_cl_s04_bw_bird_40_n01532829_15048.png
subject-04,1,929,0.605079889297485,oven,oven,cr,0929_cl_s04_cr_oven_40_n04111531_15912.png
subject-04,1,930,0.64860987663269,cat,cat,cr,0930_cl_s04_cr_cat_40_n02123394_3605.png
subject-04,1,931,0.952515125274658,truck,truck,cr,0931_cl_s04_cr_truck_40_n03417042_1263.png
subject-04,1,932,0.72232985496521,clock,clock,cr,0932_cl_s04_cr_clock_40_n04548280_7816.png
subject-04,1,933,0.632272958755493,chair,chair,bw,0933_cl_s04_bw_chair_40_n02791124_3926.png
subject-04,1,934,0.717910051345825,chair,chair,cr,0934_cl_s04_cr_chair_40_n02791124_4294.png
subject-04,1,935,0.769744157791138,bicycle,bicycle,bw,0935_cl_s04_bw_bicycle_40_n03792782_4591.png
subject-04,1,936,0.691730976104736,car,car,cr,0936_cl_s04_cr_car_40_n02814533_76817.png
subject-04,1,937,0.567383050918579,airplane,airplane,cr,0937_cl_s04_cr_airplane_40_n02690373_5342.png
subject-04,1,938,0.619192123413086,keyboard,keyboard,cr,0938_cl_s04_cr_keyboard_40_n04505470_7161.png
subject-04,1,939,0.841222047805786,bird,bird,bw,0939_cl_s04_bw_bird_40_n02002724_1459.png
subject-04,1,940,0.678866147994995,airplane,airplane,bw,0940_cl_s04_bw_airplane_40_n02690373_4727.png
subject-04,1,941,1.30066299438477,chair,clock,bw,0941_cl_s04_bw_clock_40_n04548280_7384.png
subject-04,1,942,0.952517032623291,truck,truck,bw,0942_cl_s04_bw_truck_40_n03417042_29849.png
subject-04,1,943,1.04834914207458,knife,knife,bw,0943_cl_s04_bw_knife_40_n03041632_28009.png
subject-04,1,944,0.728050947189331,keyboard,keyboard,cr,0944_cl_s04_cr_keyboard_40_n04505470_4356.png
subject-04,1,945,0.802213907241821,bicycle,bicycle,cr,0945_cl_s04_cr_bicycle_40_n02835271_5886.png
subject-04,1,946,0.83553409576416,bicycle,bicycle,bw,0946_cl_s04_bw_bicycle_40_n02835271_381.png
subject-04,1,947,0.627776861190796,oven,oven,bw,0947_cl_s04_bw_oven_40_n04111531_11868.png
subject-04,1,948,0.717226982116699,car,car,bw,0948_cl_s04_bw_car_40_n03100240_19223.png
subject-04,1,949,1.5001220703125,oven,oven,bw,0949_cl_s04_bw_oven_40_n04111531_887.png
subject-04,1,950,0.865176916122437,clock,clock,bw,0950_cl_s04_bw_clock_40_n03196217_711.png
subject-04,1,951,0.969146013259888,truck,truck,bw,0951_cl_s04_bw_truck_40_n04467665_70308.png
subject-04,1,952,1.38868594169617,knife,keyboard,cr,0952_cl_s04_cr_keyboard_40_n03085013_7576.png
subject-04,1,953,0.882338047027588,bottle,bottle,bw,0953_cl_s04_bw_bottle_40_n03937543_4850.png
subject-04,1,954,0.786267995834351,car,car,cr,0954_cl_s04_cr_car_40_n04285008_8093.png
subject-04,1,955,0.734108924865723,keyboard,keyboard,bw,0955_cl_s04_bw_keyboard_40_n04505470_4477.png
subject-04,1,956,0.721867084503174,airplane,airplane,cr,0956_cl_s04_cr_airplane_40_n02690373_2293.png
subject-04,1,957,0.679811954498291,chair,chair,bw,0957_cl_s04_bw_chair_40_n04099969_8934.png
subject-04,1,958,0.801988124847412,dog,dog,bw,0958_cl_s04_bw_dog_40_n02105505_2121.png
subject-04,1,959,0.899285078048706,bottle,bottle,bw,0959_cl_s04_bw_bottle_40_n03983396_5611.png
subject-04,1,960,0.589534044265747,keyboard,keyboard,cr,0960_cl_s04_cr_keyboard_40_n03085013_21325.png
subject-04,1,961,0.699692010879517,bottle,bottle,bw,0961_cl_s04_bw_bottle_40_n02823428_1154.png
subject-04,1,962,1.12143802642822,bottle,keyboard,cr,0962_cl_s04_cr_keyboard_40_n04505470_4878.png
subject-04,1,963,0.587408065795898,knife,knife,cr,0963_cl_s04_cr_knife_40_n03041632_29276.png
subject-04,1,964,0.733201026916504,clock,clock,cr,0964_cl_s04_cr_clock_40_n04548280_2988.png
subject-04,1,965,0.682941913604736,airplane,airplane,bw,0965_cl_s04_bw_airplane_40_n02690373_2316.png
subject-04,1,966,0.596864938735962,bicycle,bicycle,cr,0966_cl_s04_cr_bicycle_40_n03792782_3342.png
subject-04,1,967,0.568672895431519,oven,oven,cr,0967_cl_s04_cr_oven_40_n04111531_10749.png
subject-04,1,968,0.626442909240723,clock,clock,cr,0968_cl_s04_cr_clock_40_n04548280_2177.png
subject-04,1,969,1.50000190734863,oven,airplane,bw,0969_cl_s04_bw_airplane_40_n02690373_4107.png
subject-04,1,970,0.74445104598999,airplane,airplane,cr,0970_cl_s04_cr_airplane_40_n02690373_713.png
subject-04,1,971,1.15181684494019,knife,knife,cr,0971_cl_s04_cr_knife_40_n03041632_32350.png
subject-04,1,972,0.649543046951294,oven,oven,cr,0972_cl_s04_cr_oven_40_n04111531_5888.png
subject-04,1,973,0.83344292640686,boat,boat,cr,0973_cl_s04_cr_boat_40_n04273569_111.png
subject-04,1,974,0.665334939956665,clock,clock,cr,0974_cl_s04_cr_clock_40_n03196217_4821.png
subject-04,1,975,0.847248077392578,cat,cat,cr,0975_cl_s04_cr_cat_40_n02123394_133.png
subject-04,1,976,1.02477097511292,chair,chair,bw,0976_cl_s04_bw_chair_40_n02791124_6077.png
subject-04,1,977,0.860838174819946,dog,dog,bw,0977_cl_s04_bw_dog_40_n02092002_10760.png
subject-04,1,978,0.80253791809082,oven,oven,cr,0978_cl_s04_cr_oven_40_n04111531_5290.png
subject-04,1,979,1.04044508934021,bear,bear,cr,0979_cl_s04_cr_bear_40_n02132136_10622.png
subject-04,1,980,0.778253078460693,bicycle,bicycle,cr,0980_cl_s04_cr_bicycle_40_n02835271_22263.png
subject-04,1,981,1.35438299179077,dog,cat,bw,0981_cl_s04_bw_cat_40_n02125311_7527.png
subject-04,1,982,0.616096019744873,cat,cat,cr,0982_cl_s04_cr_cat_40_n02123045_5932.png
subject-04,1,983,0.636027812957764,airplane,airplane,bw,0983_cl_s04_bw_airplane_40_n02690373_6046.png
subject-04,1,984,0.701525926589966,airplane,airplane,cr,0984_cl_s04_cr_airplane_40_n02690373_6212.png
subject-04,1,985,0.697522878646851,clock,clock,bw,0985_cl_s04_bw_clock_40_n04548280_17198.png
subject-04,1,986,1.07344388961792,oven,chair,cr,0986_cl_s04_cr_chair_40_n02791124_3323.png
subject-04,1,987,0.6389319896698,cat,cat,bw,0987_cl_s04_bw_cat_40_n02124075_14242.png
subject-04,1,988,0.900663137435913,truck,truck,bw,0988_cl_s04_bw_truck_40_n03796401_13490.png
subject-04,1,989,0.622542858123779,airplane,airplane,bw,0989_cl_s04_bw_airplane_40_n02690373_4233.png
subject-04,1,990,0.72019100189209,car,car,cr,0990_cl_s04_cr_car_40_n03100240_3286.png
subject-04,1,991,1.08431100845337,bear,dog,cr,0991_cl_s04_cr_dog_40_n02097130_5045.png
subject-04,1,992,1.02774906158447,dog,bear,cr,0992_cl_s04_cr_bear_40_n02133161_9949.png
subject-04,1,993,0.868107080459595,car,car,bw,0993_cl_s04_bw_car_40_n02814533_12388.png
subject-04,1,994,0.677442073822021,oven,oven,cr,0994_cl_s04_cr_oven_40_n04111531_7072.png
subject-04,1,995,0.757519006729126,truck,truck,bw,0995_cl_s04_bw_truck_40_n03796401_713.png
subject-04,1,996,0.933104038238525,airplane,airplane,bw,0996_cl_s04_bw_airplane_40_n02690373_4269.png
subject-04,1,997,0.786853075027466,clock,clock,cr,0997_cl_s04_cr_clock_40_n02708093_1559.png
subject-04,1,998,0.606587886810303,car,car,cr,0998_cl_s04_cr_car_40_n04285008_1085.png
subject-04,1,999,0.794517040252686,knife,knife,cr,0999_cl_s04_cr_knife_40_n03041632_29125.png
subject-04,1,1000,0.854376792907715,cat,cat,cr,1000_cl_s04_cr_cat_40_n02124075_9206.png
subject-04,1,1001,0.616307973861694,keyboard,keyboard,cr,1001_cl_s04_cr_keyboard_40_n04505470_1518.png
subject-04,1,1002,0.608083009719849,clock,clock,bw,1002_cl_s04_bw_clock_40_n03196217_6477.png
subject-04,1,1003,1.27792406082153,knife,knife,cr,1003_cl_s04_cr_knife_40_n03041632_99875.png
subject-04,1,1004,1.19758415222168,dog,bear,bw,1004_cl_s04_bw_bear_40_n02134084_7841.png
subject-04,1,1005,1.1273980140686,chair,elephant,cr,1005_cl_s04_cr_elephant_40_n02504013_3197.png
subject-04,1,1006,0.701692819595337,oven,oven,cr,1006_cl_s04_cr_oven_40_n04111531_8687.png
subject-04,1,1007,0.757539033889771,boat,boat,cr,1007_cl_s04_cr_boat_40_n04273569_13641.png
subject-04,1,1008,0.681061983108521,keyboard,keyboard,cr,1008_cl_s04_cr_keyboard_40_n04505470_2889.png
subject-04,1,1009,0.77894115447998,car,car,bw,1009_cl_s04_bw_car_40_n04285008_2750.png
subject-04,1,1010,0.60643482208252,keyboard,keyboard,cr,1010_cl_s04_cr_keyboard_40_n03085013_2842.png
subject-04,1,1011,0.720492124557495,bicycle,bicycle,cr,1011_cl_s04_cr_bicycle_40_n03792782_10281.png
subject-04,1,1012,0.590222120285034,keyboard,keyboard,bw,1012_cl_s04_bw_keyboard_40_n04505470_2907.png
subject-04,1,1013,0.854049921035767,elephant,elephant,cr,1013_cl_s04_cr_elephant_40_n02504458_694.png
subject-04,1,1014,0.739741086959839,chair,chair,bw,1014_cl_s04_bw_chair_40_n03376595_6673.png
subject-04,1,1015,0.755458116531372,knife,knife,cr,1015_cl_s04_cr_knife_40_n03041632_3717.png
subject-04,1,1016,0.687401056289673,elephant,elephant,bw,1016_cl_s04_bw_elephant_40_n02504458_4711.png
subject-04,1,1017,0.811146974563599,dog,dog,bw,1017_cl_s04_bw_dog_40_n02102973_5217.png
subject-04,1,1018,0.960975170135498,chair,chair,cr,1018_cl_s04_cr_chair_40_n02791124_1865.png
subject-04,1,1019,0.779002904891968,dog,dog,bw,1019_cl_s04_bw_dog_40_n02091244_9271.png
subject-04,1,1020,0.896706104278564,dog,dog,bw,1020_cl_s04_bw_dog_40_n02108915_4936.png
subject-04,1,1021,0.830347061157227,bear,bear,bw,1021_cl_s04_bw_bear_40_n02132136_26027.png
subject-04,1,1022,0.714296102523804,dog,dog,cr,1022_cl_s04_cr_dog_40_n02087394_7104.png
subject-04,1,1023,0.656132936477661,airplane,airplane,cr,1023_cl_s04_cr_airplane_40_n02690373_9626.png
subject-04,1,1024,0.731908082962036,knife,knife,bw,1024_cl_s04_bw_knife_40_n03041632_32337.png
subject-04,1,1025,0.599580764770508,airplane,airplane,bw,1025_cl_s04_bw_airplane_40_n02690373_2514.png
subject-04,1,1026,0.753500938415527,car,car,cr,1026_cl_s04_cr_car_40_n02814533_72213.png
subject-04,1,1027,1.11725997924805,knife,bear,cr,1027_cl_s04_cr_bear_40_n02134084_6669.png
subject-04,1,1028,1.47323203086853,car,bicycle,bw,1028_cl_s04_bw_bicycle_40_n03792782_7388.png
subject-04,1,1029,0.792854785919189,bear,bear,cr,1029_cl_s04_cr_bear_40_n02132136_8637.png
subject-04,1,1030,0.640842914581299,clock,clock,bw,1030_cl_s04_bw_clock_40_n03196217_3689.png
subject-04,1,1031,1.23882102966309,elephant,elephant,cr,1031_cl_s04_cr_elephant_40_n02504013_6672.png
subject-04,1,1032,0.908344030380249,car,car,bw,1032_cl_s04_bw_car_40_n03100240_6479.png
subject-04,1,1033,1.50015091896057,bear,bear,bw,1033_cl_s04_bw_bear_40_n02134084_1009.png
subject-04,1,1034,0.916411161422729,bicycle,bicycle,bw,1034_cl_s04_bw_bicycle_40_n02835271_4341.png
subject-04,1,1035,0.641793966293335,oven,oven,cr,1035_cl_s04_cr_oven_40_n04111531_4662.png
subject-04,1,1036,0.69375205039978,airplane,airplane,cr,1036_cl_s04_cr_airplane_40_n02690373_3313.png
subject-04,1,1037,1.01794695854187,elephant,elephant,bw,1037_cl_s04_bw_elephant_40_n02504013_257.png
subject-04,1,1038,0.709611177444458,boat,boat,cr,1038_cl_s04_cr_boat_40_n03662601_26298.png
subject-04,1,1039,0.616936922073364,keyboard,keyboard,cr,1039_cl_s04_cr_keyboard_40_n04505470_3089.png
subject-04,1,1040,1.07475399971008,clock,clock,cr,1040_cl_s04_cr_clock_40_n03196217_6293.png
subject-04,1,1041,0.829830884933472,truck,truck,bw,1041_cl_s04_bw_truck_40_n04467665_30683.png
subject-04,1,1042,1.5000479221344,bird,bird,bw,1042_cl_s04_bw_bird_40_n01601694_13054.png
subject-04,1,1043,0.799382209777832,knife,knife,cr,1043_cl_s04_cr_knife_40_n03041632_32048.png
subject-04,1,1044,0.719299077987671,bird,bird,bw,1044_cl_s04_bw_bird_40_n01795545_6290.png
subject-04,1,1045,0.847129106521606,chair,chair,bw,1045_cl_s04_bw_chair_40_n04099969_24495.png
subject-04,1,1046,0.702858924865723,bird,bird,cr,1046_cl_s04_cr_bird_40_n02009229_6551.png
subject-04,1,1047,0.714749813079834,car,car,cr,1047_cl_s04_cr_car_40_n02814533_6233.png
subject-04,1,1048,0.61652398109436,chair,chair,bw,1048_cl_s04_bw_chair_40_n04099969_8509.png
subject-04,1,1049,0.68220591545105,bottle,bottle,bw,1049_cl_s04_bw_bottle_40_n03937543_9756.png
subject-04,1,1050,0.92999792098999,cat,cat,cr,1050_cl_s04_cr_cat_40_n02123597_12266.png
subject-04,1,1051,1.5001220703125,dog,dog,bw,1051_cl_s04_bw_dog_40_n02110063_16336.png
subject-04,1,1052,0.675735950469971,keyboard,keyboard,bw,1052_cl_s04_bw_keyboard_40_n04505470_4856.png
subject-04,1,1053,1.11563992500305,bottle,bottle,bw,1053_cl_s04_bw_bottle_40_n03937543_5088.png
subject-04,1,1054,1.50006008148193,bird,clock,cr,1054_cl_s04_cr_clock_40_n04548280_4637.png
subject-04,1,1055,1.16137719154358,elephant,elephant,cr,1055_cl_s04_cr_elephant_40_n02504458_481.png
subject-04,1,1056,0.717030048370361,bottle,bottle,cr,1056_cl_s04_cr_bottle_40_n03937543_3219.png
subject-04,1,1057,1.330726146698,knife,knife,bw,1057_cl_s04_bw_knife_40_n03041632_4808.png
subject-04,1,1058,0.744626998901367,boat,boat,bw,1058_cl_s04_bw_boat_40_n02951358_5952.png
subject-04,1,1059,0.764318943023682,bicycle,bicycle,cr,1059_cl_s04_cr_bicycle_40_n02835271_14383.png
subject-04,1,1060,0.800253868103027,boat,boat,cr,1060_cl_s04_cr_boat_40_n03344393_6226.png
subject-04,1,1061,0.946394920349121,car,car,bw,1061_cl_s04_bw_car_40_n03100240_10982.png
subject-04,1,1062,1.02793312072754,boat,boat,cr,1062_cl_s04_cr_boat_40_n04273569_3052.png
subject-04,1,1063,0.581757068634033,car,car,cr,1063_cl_s04_cr_car_40_n04285008_6131.png
subject-04,1,1064,0.611743211746216,clock,clock,bw,1064_cl_s04_bw_clock_40_n04548280_1202.png
subject-04,1,1065,0.801651000976562,airplane,airplane,bw,1065_cl_s04_bw_airplane_40_n02690373_693.png
subject-04,1,1066,0.649257898330688,boat,boat,cr,1066_cl_s04_cr_boat_40_n03344393_2480.png
subject-04,1,1067,0.770965099334717,bear,bear,bw,1067_cl_s04_bw_bear_40_n02132136_22313.png
subject-04,1,1068,0.7410569190979,bird,bird,cr,1068_cl_s04_cr_bird_40_n02007558_19064.png
subject-04,1,1069,0.826483011245728,boat,boat,bw,1069_cl_s04_bw_boat_40_n03344393_547.png
subject-04,1,1070,1.44077897071838,boat,boat,cr,1070_cl_s04_cr_boat_40_n03662601_35008.png
subject-04,1,1071,0.724107027053833,boat,boat,cr,1071_cl_s04_cr_boat_40_n03344393_8160.png
subject-04,1,1072,1.34436583518982,clock,clock,cr,1072_cl_s04_cr_clock_40_n03196217_1109.png
subject-04,1,1073,1.50016212463379,boat,bicycle,bw,1073_cl_s04_bw_bicycle_40_n03792782_15557.png
