subj,Session,trial,rt,object_response,category,condition,imagename
subject-01,1,1,0.796405076980591,oven,oven,cr,0001_cl_s01_cr_oven_40_n04111531_14126.png
subject-01,1,2,0.656121015548706,cat,bear,cr,0002_cl_s01_cr_bear_40_n02134084_5274.png
subject-01,1,3,0.611840009689331,cat,cat,cr,0003_cl_s01_cr_cat_40_n02123394_133.png
subject-01,1,4,0.633913040161133,car,car,cr,0004_cl_s01_cr_car_40_n02814533_51190.png
subject-01,1,5,0.619470119476318,chair,chair,bw,0005_cl_s01_bw_chair_40_n04099969_14986.png
subject-01,1,6,0.855474948883057,elephant,elephant,cr,0006_cl_s01_cr_elephant_40_n02504013_6731.png
subject-01,1,7,0.81902003288269,bottle,bottle,cr,0007_cl_s01_cr_bottle_40_n02823428_987.png
subject-01,1,8,0.60297703742981,truck,truck,cr,0008_cl_s01_cr_truck_40_n03417042_7458.png
subject-01,1,9,0.51496410369873,chair,chair,bw,0009_cl_s01_bw_chair_40_n04099969_4577.png
subject-01,1,10,1.07865905761719,cat,knife,cr,0010_cl_s01_cr_knife_40_n03041632_83472.png
subject-01,1,11,0.726448059082031,elephant,elephant,bw,0011_cl_s01_bw_elephant_40_n02504458_3485.png
subject-01,1,12,0.856294870376587,bear,bear,bw,0012_cl_s01_bw_bear_40_n02133161_1066.png
subject-01,1,13,0.820024013519287,elephant,elephant,bw,0013_cl_s01_bw_elephant_40_n02504013_1060.png
subject-01,1,14,1.01591014862061,elephant,bear,bw,0014_cl_s01_bw_bear_40_n02134084_1009.png
subject-01,1,15,0.727574825286865,cat,cat,cr,0015_cl_s01_cr_cat_40_n02125311_13383.png
subject-01,1,16,0.839364051818848,elephant,elephant,bw,0016_cl_s01_bw_elephant_40_n02504013_257.png
subject-01,1,17,0.609374046325684,cat,cat,bw,0017_cl_s01_bw_cat_40_n02123045_6445.png
subject-01,1,18,0.65506911277771,airplane,airplane,bw,0018_cl_s01_bw_airplane_40_n02690373_3493.png
subject-01,1,19,0.684980869293213,airplane,airplane,bw,0019_cl_s01_bw_airplane_40_n02690373_5184.png
subject-01,1,20,0.787031173706055,truck,truck,bw,0020_cl_s01_bw_truck_40_n04467665_22637.png
subject-01,1,21,0.640532970428467,cat,cat,cr,0021_cl_s01_cr_cat_40_n02123159_10952.png
subject-01,1,22,0.718217134475708,airplane,airplane,bw,0022_cl_s01_bw_airplane_40_n02690373_3620.png
subject-01,1,23,0.756150960922241,bottle,bottle,cr,0023_cl_s01_cr_bottle_40_n04557648_10744.png
subject-01,1,24,0.672043085098267,oven,oven,bw,0024_cl_s01_bw_oven_40_n04111531_12702.png
subject-01,1,25,1.14181399345398,bicycle,bear,cr,0025_cl_s01_cr_bear_40_n02133161_9949.png
subject-01,1,26,0.611485958099365,bottle,keyboard,cr,0026_cl_s01_cr_keyboard_40_n03085013_3489.png
subject-01,1,27,0.729439973831177,elephant,elephant,bw,0027_cl_s01_bw_elephant_40_n02504458_4633.png
subject-01,1,28,0.651228904724121,clock,clock,cr,0028_cl_s01_cr_clock_40_n04548280_7816.png
subject-01,1,29,1.03513598442078,dog,dog,bw,0029_cl_s01_bw_dog_40_n02097474_1859.png
subject-01,1,30,0.628832101821899,cat,cat,bw,0030_cl_s01_bw_cat_40_n02123394_916.png
subject-01,1,31,1.08478403091431,elephant,elephant,cr,0031_cl_s01_cr_elephant_40_n02504458_3525.png
subject-01,1,32,0.762521028518677,bear,bear,bw,0032_cl_s01_bw_bear_40_n02134418_4456.png
subject-01,1,33,0.74449610710144,keyboard,keyboard,bw,0033_cl_s01_bw_keyboard_40_n03085013_24045.png
subject-01,1,34,0.798105001449585,oven,knife,bw,0034_cl_s01_bw_knife_40_n03041632_49363.png
subject-01,1,35,0.601968050003052,cat,cat,bw,0035_cl_s01_bw_cat_40_n02123159_7854.png
subject-01,1,36,0.937577962875366,knife,knife,cr,0036_cl_s01_cr_knife_40_n03041632_4708.png
subject-01,1,37,0.875389099121094,chair,chair,cr,0037_cl_s01_cr_chair_40_n04429376_7788.png
subject-01,1,38,0.739211082458496,car,car,cr,0038_cl_s01_cr_car_40_n03100240_9086.png
subject-01,1,39,0.761220932006836,chair,chair,cr,0039_cl_s01_cr_chair_40_n03376595_3038.png
subject-01,1,40,0.908882856369019,truck,truck,bw,0040_cl_s01_bw_truck_40_n03796401_1758.png
subject-01,1,41,0.78907299041748,boat,boat,cr,0041_cl_s01_cr_boat_40_n04273569_4324.png
subject-01,1,42,1.04080319404602,bear,bear,cr,0042_cl_s01_cr_bear_40_n02134084_1090.png
subject-01,1,43,0.760260105133057,bicycle,bicycle,bw,0043_cl_s01_bw_bicycle_40_n03792782_13665.png
subject-01,1,44,0.828228950500488,knife,knife,bw,0044_cl_s01_bw_knife_40_n03041632_36215.png
subject-01,1,45,0.670124053955078,car,car,bw,0045_cl_s01_bw_car_40_n04285008_7770.png
subject-01,1,46,0.677746057510376,bottle,bottle,cr,0046_cl_s01_cr_bottle_40_n03983396_15260.png
subject-01,1,47,0.891555070877075,dog,dog,cr,0047_cl_s01_cr_dog_40_n02091635_6519.png
subject-01,1,48,0.749383926391602,elephant,elephant,cr,0048_cl_s01_cr_elephant_40_n02504013_3485.png
subject-01,1,49,0.819130897521973,oven,oven,cr,0049_cl_s01_cr_oven_40_n04111531_807.png
subject-01,1,50,0.647217035293579,oven,oven,cr,0050_cl_s01_cr_oven_40_n04111531_605.png
subject-01,1,51,1.06100010871887,dog,dog,bw,0051_cl_s01_bw_dog_40_n02109047_2662.png
subject-01,1,52,0.812947034835815,truck,truck,cr,0052_cl_s01_cr_truck_40_n03417042_16038.png
subject-01,1,53,0.836802005767822,truck,truck,bw,0053_cl_s01_bw_truck_40_n03796401_1710.png
subject-01,1,54,0.758625984191895,cat,cat,cr,0054_cl_s01_cr_cat_40_n02125311_20921.png
subject-01,1,55,1.16014790534973,bear,bear,cr,0055_cl_s01_cr_bear_40_n02133161_575.png
subject-01,1,56,NaN,na,chair,bw,0056_cl_s01_bw_chair_40_n04429376_21865.png
subject-01,1,57,0.873806953430176,bird,bird,bw,0057_cl_s01_bw_bird_40_n01616318_26436.png
subject-01,1,58,0.903491020202637,oven,oven,cr,0058_cl_s01_cr_oven_40_n04111531_9498.png
subject-01,1,59,1.21934795379639,dog,bear,bw,0059_cl_s01_bw_bear_40_n02134418_397.png
subject-01,1,60,0.869349956512451,chair,chair,cr,0060_cl_s01_cr_chair_40_n04099969_23961.png
subject-01,1,61,0.731137037277222,bear,dog,bw,0061_cl_s01_bw_dog_40_n02093256_7181.png
subject-01,1,62,0.730796813964844,bicycle,bicycle,cr,0062_cl_s01_cr_bicycle_40_n02835271_26731.png
subject-01,1,63,0.612759113311768,cat,cat,cr,0063_cl_s01_cr_cat_40_n02125311_12557.png
subject-01,1,64,1.13053894042969,dog,dog,cr,0064_cl_s01_cr_dog_40_n02093647_2890.png
subject-01,1,65,1.00676894187927,knife,knife,cr,0065_cl_s01_cr_knife_40_n03041632_14293.png
subject-01,1,66,0.722059965133667,oven,oven,bw,0066_cl_s01_bw_oven_40_n04111531_20359.png
subject-01,1,67,0.743914842605591,truck,truck,bw,0067_cl_s01_bw_truck_40_n04467665_12177.png
subject-01,1,68,0.949620008468628,bicycle,bicycle,cr,0068_cl_s01_cr_bicycle_40_n02835271_19400.png
subject-01,1,69,1.11346983909607,truck,truck,cr,0069_cl_s01_cr_truck_40_n03417042_1263.png
subject-01,1,70,0.723450899124146,cat,cat,bw,0070_cl_s01_bw_cat_40_n02123045_8336.png
subject-01,1,71,0.86904501914978,bear,bear,bw,0071_cl_s01_bw_bear_40_n02134418_5405.png
subject-01,1,72,0.996978044509888,car,car,bw,0072_cl_s01_bw_car_40_n04285008_2906.png
subject-01,1,73,0.972716808319092,bird,bird,cr,0073_cl_s01_cr_bird_40_n01818515_10517.png
subject-01,1,74,0.91055703163147,truck,truck,cr,0074_cl_s01_cr_truck_40_n03796401_14203.png
subject-01,1,75,0.870818138122559,bird,bird,bw,0075_cl_s01_bw_bird_40_n02009229_2503.png
subject-01,1,76,0.892213106155396,bottle,bottle,bw,0076_cl_s01_bw_bottle_40_n02823428_6767.png
subject-01,1,77,0.682184934616089,bicycle,bicycle,bw,0077_cl_s01_bw_bicycle_40_n02835271_12847.png
subject-01,1,78,0.931842088699341,bicycle,bicycle,cr,0078_cl_s01_cr_bicycle_40_n02835271_24104.png
subject-01,1,79,0.791682004928589,clock,clock,cr,0079_cl_s01_cr_clock_40_n04548280_77.png
subject-01,1,80,0.607320070266724,cat,cat,bw,0080_cl_s01_bw_cat_40_n02123394_6698.png
subject-01,1,81,0.780138969421387,keyboard,keyboard,cr,0081_cl_s01_cr_keyboard_40_n04505470_4356.png
subject-01,1,82,0.727821111679077,chair,chair,cr,0082_cl_s01_cr_chair_40_n04429376_16325.png
subject-01,1,83,1.10395097732544,elephant,elephant,bw,0083_cl_s01_bw_elephant_40_n02504458_6721.png
subject-01,1,84,0.763550043106079,truck,truck,cr,0084_cl_s01_cr_truck_40_n03417042_6213.png
subject-01,1,85,0.779315948486328,dog,dog,bw,0085_cl_s01_bw_dog_40_n02097130_8277.png
subject-01,1,86,0.819065093994141,bottle,bottle,cr,0086_cl_s01_cr_bottle_40_n04557648_1856.png
subject-01,1,87,0.854953050613403,bird,bird,bw,0087_cl_s01_bw_bird_40_n01531178_10905.png
subject-01,1,88,0.916968822479248,dog,bear,cr,0088_cl_s01_cr_bear_40_n02133161_2202.png
subject-01,1,89,0.840394020080566,elephant,elephant,cr,0089_cl_s01_cr_elephant_40_n02504458_10439.png
subject-01,1,90,0.688568115234375,clock,clock,cr,0090_cl_s01_cr_clock_40_n02708093_6766.png
subject-01,1,91,0.680039882659912,bottle,bottle,bw,0091_cl_s01_bw_bottle_40_n03983396_2057.png
subject-01,1,92,0.758191823959351,knife,knife,bw,0092_cl_s01_bw_knife_40_n03041632_10000.png
subject-01,1,93,0.687850952148438,cat,cat,cr,0093_cl_s01_cr_cat_40_n02125311_2959.png
subject-01,1,94,0.649534940719604,car,car,bw,0094_cl_s01_bw_car_40_n04285008_13759.png
subject-01,1,95,0.741360187530518,bottle,bottle,cr,0095_cl_s01_cr_bottle_40_n03937543_396.png
subject-01,1,96,0.631439924240112,boat,boat,bw,0096_cl_s01_bw_boat_40_n03662601_3984.png
subject-01,1,97,0.916867017745972,truck,truck,bw,0097_cl_s01_bw_truck_40_n04467665_2230.png
subject-01,1,98,0.760757923126221,boat,boat,cr,0098_cl_s01_cr_boat_40_n03662601_28640.png
subject-01,1,99,0.626872777938843,cat,cat,cr,0099_cl_s01_cr_cat_40_n02124075_11039.png
subject-01,1,100,0.894286870956421,clock,knife,bw,0100_cl_s01_bw_knife_40_n03041632_7380.png
subject-01,1,101,0.57610011100769,cat,cat,cr,0101_cl_s01_cr_cat_40_n02123045_6607.png
subject-01,1,102,0.731995820999146,chair,chair,cr,0102_cl_s01_cr_chair_40_n03376595_6704.png
subject-01,1,103,0.821752071380615,bear,bear,bw,0103_cl_s01_bw_bear_40_n02133161_12187.png
subject-01,1,104,0.993884086608887,dog,dog,cr,0104_cl_s01_cr_dog_40_n02110958_2363.png
subject-01,1,105,0.753473997116089,airplane,airplane,cr,0105_cl_s01_cr_airplane_40_n02690373_19438.png
subject-01,1,106,0.715614080429077,bird,bird,cr,0106_cl_s01_cr_bird_40_n01855032_5511.png
subject-01,1,107,0.741085052490234,boat,boat,bw,0107_cl_s01_bw_boat_40_n04273569_9821.png
subject-01,1,108,0.866961002349854,bear,bear,bw,0108_cl_s01_bw_bear_40_n02133161_13461.png
subject-01,1,109,1.44279789924622,bicycle,dog,cr,0109_cl_s01_cr_dog_40_n02113023_8552.png
subject-01,1,110,0.906491994857788,elephant,elephant,cr,0110_cl_s01_cr_elephant_40_n02504458_1600.png
subject-01,1,111,0.874805927276611,chair,chair,cr,0111_cl_s01_cr_chair_40_n04099969_4205.png
subject-01,1,112,0.776096105575562,dog,dog,bw,0112_cl_s01_bw_dog_40_n02105505_2121.png
subject-01,1,113,0.708391904830933,chair,chair,cr,0113_cl_s01_cr_chair_40_n02791124_4528.png
subject-01,1,114,0.675745964050293,truck,truck,bw,0114_cl_s01_bw_truck_40_n03417042_5659.png
subject-01,1,115,0.65953803062439,elephant,elephant,cr,0115_cl_s01_cr_elephant_40_n02504013_10330.png
subject-01,1,116,0.62746000289917,cat,cat,cr,0116_cl_s01_cr_cat_40_n02123394_1594.png
subject-01,1,117,1.18522191047668,bicycle,bear,bw,0117_cl_s01_bw_bear_40_n02132136_10654.png
subject-01,1,118,0.598973989486694,bottle,bottle,bw,0118_cl_s01_bw_bottle_40_n02823428_5265.png
subject-01,1,119,0.880774021148682,truck,truck,cr,0119_cl_s01_cr_truck_40_n04467665_3125.png
subject-01,1,120,0.638864994049072,airplane,airplane,cr,0120_cl_s01_cr_airplane_40_n02690373_60.png
subject-01,1,121,0.700472116470337,keyboard,keyboard,cr,0121_cl_s01_cr_keyboard_40_n03085013_21645.png
subject-01,1,122,0.676378965377808,car,car,bw,0122_cl_s01_bw_car_40_n03100240_9471.png
subject-01,1,123,0.702153921127319,boat,boat,cr,0123_cl_s01_cr_boat_40_n03344393_9818.png
subject-01,1,124,0.615941047668457,elephant,elephant,bw,0124_cl_s01_bw_elephant_40_n02504458_5444.png
subject-01,1,125,0.757703065872192,bottle,bottle,bw,0125_cl_s01_bw_bottle_40_n04557648_26823.png
subject-01,1,126,0.847549200057983,bottle,bottle,cr,0126_cl_s01_cr_bottle_40_n02823428_765.png
subject-01,1,127,0.653418064117432,cat,cat,bw,0127_cl_s01_bw_cat_40_n02123045_1787.png
subject-01,1,128,0.893413066864014,car,car,bw,0128_cl_s01_bw_car_40_n02814533_35863.png
subject-01,1,129,0.811244964599609,boat,boat,bw,0129_cl_s01_bw_boat_40_n02951358_7944.png
subject-01,1,130,0.652862071990967,dog,dog,bw,0130_cl_s01_bw_dog_40_n02091467_3727.png
subject-01,1,131,0.646882057189941,bicycle,bicycle,cr,0131_cl_s01_cr_bicycle_40_n02835271_5886.png
subject-01,1,132,0.712346076965332,truck,truck,bw,0132_cl_s01_bw_truck_40_n04467665_18234.png
subject-01,1,133,0.84620189666748,elephant,elephant,cr,0133_cl_s01_cr_elephant_40_n02504013_4892.png
subject-01,1,134,0.70433497428894,keyboard,keyboard,cr,0134_cl_s01_cr_keyboard_40_n03085013_19618.png
subject-01,1,135,0.750250101089478,clock,clock,cr,0135_cl_s01_cr_clock_40_n03196217_3430.png
subject-01,1,136,0.765634059906006,bicycle,bicycle,bw,0136_cl_s01_bw_bicycle_40_n03792782_24591.png
subject-01,1,137,1.00960206985474,bird,bird,cr,0137_cl_s01_cr_bird_40_n02007558_2822.png
subject-01,1,138,0.86338210105896,truck,truck,bw,0138_cl_s01_bw_truck_40_n04467665_71126.png
subject-01,1,139,0.737015962600708,bicycle,bicycle,cr,0139_cl_s01_cr_bicycle_40_n02835271_22263.png
subject-01,1,140,NaN,na,car,bw,0140_cl_s01_bw_car_40_n04285008_5548.png
subject-01,1,141,0.650889873504639,oven,oven,bw,0141_cl_s01_bw_oven_40_n04111531_13006.png
subject-01,1,142,0.764680862426758,car,car,bw,0142_cl_s01_bw_car_40_n04285008_11410.png
subject-01,1,143,0.608307123184204,oven,chair,bw,0143_cl_s01_bw_chair_40_n04429376_2304.png
subject-01,1,144,0.61658501625061,boat,boat,cr,0144_cl_s01_cr_boat_40_n03662601_27165.png
subject-01,1,145,0.934026002883911,truck,truck,bw,0145_cl_s01_bw_truck_40_n04467665_70308.png
subject-01,1,146,0.871887922286987,bicycle,bicycle,cr,0146_cl_s01_cr_bicycle_40_n03792782_51414.png
subject-01,1,147,0.929754018783569,knife,knife,cr,0147_cl_s01_cr_knife_40_n03041632_44738.png
subject-01,1,148,0.699570894241333,elephant,elephant,bw,0148_cl_s01_bw_elephant_40_n02504458_11363.png
subject-01,1,149,0.895236968994141,truck,truck,cr,0149_cl_s01_cr_truck_40_n04467665_4899.png
subject-01,1,150,1.05311799049377,bear,bear,cr,0150_cl_s01_cr_bear_40_n02134418_685.png
subject-01,1,151,0.794685125350952,keyboard,keyboard,bw,0151_cl_s01_bw_keyboard_40_n04505470_4363.png
subject-01,1,152,0.866644859313965,oven,oven,bw,0152_cl_s01_bw_oven_40_n04111531_12468.png
subject-01,1,153,0.896422147750854,bottle,bottle,cr,0153_cl_s01_cr_bottle_40_n04591713_5559.png
subject-01,1,154,1.10623002052307,car,elephant,cr,0154_cl_s01_cr_elephant_40_n02504013_3197.png
subject-01,1,155,0.729853868484497,bird,bird,bw,0155_cl_s01_bw_bird_40_n01817953_5039.png
subject-01,1,156,0.659940958023071,bicycle,bicycle,cr,0156_cl_s01_cr_bicycle_40_n03792782_3296.png
subject-01,1,157,0.621645212173462,bird,bird,cr,0157_cl_s01_cr_bird_40_n01855672_5670.png
subject-01,1,158,0.583492994308472,oven,oven,cr,0158_cl_s01_cr_oven_40_n04111531_2260.png
subject-01,1,159,0.665237903594971,cat,cat,cr,0159_cl_s01_cr_cat_40_n02123045_5932.png
subject-01,1,160,0.745030164718628,dog,dog,cr,0160_cl_s01_cr_dog_40_n02100583_1267.png
subject-01,1,161,0.670621156692505,dog,dog,bw,0161_cl_s01_bw_dog_40_n02099601_8005.png
subject-01,1,162,0.592497110366821,boat,boat,cr,0162_cl_s01_cr_boat_40_n02951358_12080.png
subject-01,1,163,0.588268995285034,oven,oven,cr,0163_cl_s01_cr_oven_40_n04111531_20028.png
subject-01,1,164,0.55993390083313,cat,cat,bw,0164_cl_s01_bw_cat_40_n02123159_2107.png
subject-01,1,165,1.05790209770203,cat,bear,cr,0165_cl_s01_cr_bear_40_n02134418_1351.png
subject-01,1,166,0.495577096939087,oven,oven,cr,0166_cl_s01_cr_oven_40_n04111531_6609.png
subject-01,1,167,0.87575101852417,knife,knife,bw,0167_cl_s01_bw_knife_40_n03041632_21477.png
subject-01,1,168,0.611354112625122,cat,cat,cr,0168_cl_s01_cr_cat_40_n02123394_238.png
subject-01,1,169,0.711107969284058,elephant,elephant,cr,0169_cl_s01_cr_elephant_40_n02504013_3141.png
subject-01,1,170,0.812933921813965,elephant,elephant,cr,0170_cl_s01_cr_elephant_40_n02504013_5035.png
subject-01,1,171,0.782644987106323,dog,dog,cr,0171_cl_s01_cr_dog_40_n02089867_2298.png
subject-01,1,172,0.7566978931427,bear,bear,bw,0172_cl_s01_bw_bear_40_n02134418_2503.png
subject-01,1,173,0.910619020462036,oven,keyboard,cr,0173_cl_s01_cr_keyboard_40_n04505470_4878.png
subject-01,1,174,1.07008099555969,knife,knife,bw,0174_cl_s01_bw_knife_40_n03041632_22734.png
subject-01,1,175,0.887872934341431,bear,bear,cr,0175_cl_s01_cr_bear_40_n02132136_8896.png
subject-01,1,176,0.707885980606079,boat,boat,bw,0176_cl_s01_bw_boat_40_n02951358_5952.png
subject-01,1,177,0.707556962966919,chair,chair,bw,0177_cl_s01_bw_chair_40_n04099969_1775.png
subject-01,1,178,0.723643064498901,airplane,airplane,bw,0178_cl_s01_bw_airplane_40_n02690373_6524.png
subject-01,1,179,0.691186904907227,cat,bear,cr,0179_cl_s01_cr_bear_40_n02133161_1916.png
subject-01,1,180,0.790891885757446,knife,knife,bw,0180_cl_s01_bw_knife_40_n03041632_96714.png
subject-01,1,181,0.839040994644165,truck,truck,bw,0181_cl_s01_bw_truck_40_n03417042_13635.png
subject-01,1,182,0.766528129577637,boat,boat,bw,0182_cl_s01_bw_boat_40_n04612504_1748.png
subject-01,1,183,0.728618144989014,bird,bird,cr,0183_cl_s01_cr_bird_40_n01592084_3341.png
subject-01,1,184,1.41008901596069,car,car,bw,0184_cl_s01_bw_car_40_n02814533_12388.png
subject-01,1,185,0.743963956832886,bicycle,bicycle,cr,0185_cl_s01_cr_bicycle_40_n03792782_5864.png
subject-01,1,186,0.742130994796753,bird,bird,bw,0186_cl_s01_bw_bird_40_n01514859_17156.png
subject-01,1,187,0.805705070495605,car,car,cr,0187_cl_s01_cr_car_40_n03100240_7737.png
subject-01,1,188,0.86742901802063,bottle,bottle,bw,0188_cl_s01_bw_bottle_40_n04579145_1829.png
subject-01,1,189,1.01968002319336,elephant,elephant,bw,0189_cl_s01_bw_elephant_40_n02504013_22388.png
subject-01,1,190,0.735496044158936,airplane,airplane,bw,0190_cl_s01_bw_airplane_40_n02690373_7107.png
subject-01,1,191,0.617036104202271,car,car,bw,0191_cl_s01_bw_car_40_n02814533_45594.png
subject-01,1,192,0.77476692199707,boat,boat,cr,0192_cl_s01_cr_boat_40_n04612504_18536.png
subject-01,1,193,0.74458909034729,dog,dog,cr,0193_cl_s01_cr_dog_40_n02088466_6371.png
subject-01,1,194,0.794439077377319,cat,bear,bw,0194_cl_s01_bw_bear_40_n02133161_1003.png
subject-01,1,195,1.29417896270752,bottle,knife,bw,0195_cl_s01_bw_knife_40_n03041632_29037.png
subject-01,1,196,0.911942958831787,boat,airplane,cr,0196_cl_s01_cr_airplane_40_n02690373_4015.png
subject-01,1,197,1.08569097518921,knife,knife,bw,0197_cl_s01_bw_knife_40_n03041632_28009.png
subject-01,1,198,0.821464061737061,bird,bird,bw,0198_cl_s01_bw_bird_40_n01560419_5714.png
subject-01,1,199,0.885385990142822,cat,cat,cr,0199_cl_s01_cr_cat_40_n02125311_6429.png
subject-01,1,200,0.655330181121826,chair,chair,bw,0200_cl_s01_bw_chair_40_n04099969_9847.png
subject-01,1,201,0.570921897888184,cat,cat,bw,0201_cl_s01_bw_cat_40_n02123597_7142.png
subject-01,1,202,0.648710012435913,bicycle,bicycle,cr,0202_cl_s01_cr_bicycle_40_n02835271_8982.png
subject-01,1,203,0.840626001358032,bird,bird,bw,0203_cl_s01_bw_bird_40_n01592084_19555.png
subject-01,1,204,1.0466091632843,knife,knife,cr,0204_cl_s01_cr_knife_40_n03041632_8618.png
subject-01,1,205,0.768255949020386,boat,boat,bw,0205_cl_s01_bw_boat_40_n03344393_547.png
subject-01,1,206,0.722102165222168,bird,bird,bw,0206_cl_s01_bw_bird_40_n01843383_5962.png
subject-01,1,207,0.527976036071777,keyboard,keyboard,cr,0207_cl_s01_cr_keyboard_40_n04505470_213.png
subject-01,1,208,0.885758876800537,elephant,elephant,cr,0208_cl_s01_cr_elephant_40_n02504458_2607.png
subject-01,1,209,0.921547889709473,bear,bear,bw,0209_cl_s01_bw_bear_40_n02134418_4157.png
subject-01,1,210,0.687677145004272,bottle,bottle,cr,0210_cl_s01_cr_bottle_40_n03983396_11519.png
subject-01,1,211,0.583086967468262,cat,cat,cr,0211_cl_s01_cr_cat_40_n02124075_1999.png
subject-01,1,212,0.489305019378662,cat,cat,bw,0212_cl_s01_bw_cat_40_n02124075_11252.png
subject-01,1,213,0.552841186523438,boat,airplane,bw,0213_cl_s01_bw_airplane_40_n02690373_4195.png
subject-01,1,214,0.654422044754028,airplane,airplane,cr,0214_cl_s01_cr_airplane_40_n02690373_2629.png
subject-01,1,215,0.842443943023682,keyboard,keyboard,bw,0215_cl_s01_bw_keyboard_40_n04505470_5060.png
subject-01,1,216,0.646029949188232,bear,bear,cr,0216_cl_s01_cr_bear_40_n02132136_10060.png
subject-01,1,217,0.750076055526733,airplane,airplane,bw,0217_cl_s01_bw_airplane_40_n02690373_4150.png
subject-01,1,218,1.1498601436615,cat,dog,cr,0218_cl_s01_cr_dog_40_n02102040_7465.png
subject-01,1,219,0.737957000732422,bird,bird,bw,0219_cl_s01_bw_bird_40_n02009229_12179.png
subject-01,1,220,0.739767074584961,knife,knife,bw,0220_cl_s01_bw_knife_40_n03041632_20413.png
subject-01,1,221,0.819177150726318,truck,truck,bw,0221_cl_s01_bw_truck_40_n03796401_13490.png
subject-01,1,222,NaN,na,oven,cr,0222_cl_s01_cr_oven_40_n04111531_584.png
subject-01,1,223,0.730892181396484,airplane,airplane,bw,0223_cl_s01_bw_airplane_40_n02690373_3899.png
subject-01,1,224,0.958885192871094,bird,bird,cr,0224_cl_s01_cr_bird_40_n02027492_8707.png
subject-01,1,225,0.810709953308105,airplane,airplane,cr,0225_cl_s01_cr_airplane_40_n02690373_2648.png
subject-01,1,226,0.750423908233643,cat,cat,bw,0226_cl_s01_bw_cat_40_n02123394_6598.png
subject-01,1,227,0.668482065200806,bicycle,bicycle,bw,0227_cl_s01_bw_bicycle_40_n02835271_17168.png
subject-01,1,228,0.812303066253662,truck,truck,bw,0228_cl_s01_bw_truck_40_n03417042_29849.png
subject-01,1,229,0.788103103637695,knife,knife,cr,0229_cl_s01_cr_knife_40_n03041632_29125.png
subject-01,1,230,0.919716119766235,clock,clock,bw,0230_cl_s01_bw_clock_40_n04548280_5456.png
subject-01,1,231,0.971279144287109,truck,truck,bw,0231_cl_s01_bw_truck_40_n03796401_8099.png
subject-01,1,232,0.805160999298096,bear,bear,cr,0232_cl_s01_cr_bear_40_n02132136_860.png
subject-01,1,233,1.08311796188354,truck,truck,bw,0233_cl_s01_bw_truck_40_n03796401_4423.png
subject-01,1,234,0.876722097396851,elephant,elephant,bw,0234_cl_s01_bw_elephant_40_n02504458_7871.png
subject-01,1,235,1.14859199523926,oven,oven,cr,0235_cl_s01_cr_oven_40_n04111531_14753.png
subject-01,1,236,0.666520833969116,clock,clock,bw,0236_cl_s01_bw_clock_40_n04548280_17198.png
subject-01,1,237,0.54836106300354,oven,oven,cr,0237_cl_s01_cr_oven_40_n04111531_15947.png
subject-01,1,238,0.942008018493652,bear,elephant,bw,0238_cl_s01_bw_elephant_40_n02504013_1103.png
subject-01,1,239,0.783833026885986,bicycle,bicycle,cr,0239_cl_s01_cr_bicycle_40_n03792782_33853.png
subject-01,1,240,0.645689010620117,bottle,bottle,bw,0240_cl_s01_bw_bottle_40_n04557648_5665.png
subject-01,1,241,1.31178092956543,bear,bear,bw,0241_cl_s01_bw_bear_40_n02134418_5824.png
subject-01,1,242,0.759884119033813,truck,truck,cr,0242_cl_s01_cr_truck_40_n04467665_54349.png
subject-01,1,243,1.14738082885742,truck,truck,cr,0243_cl_s01_cr_truck_40_n03796401_8100.png
subject-01,1,244,0.699350118637085,elephant,elephant,cr,0244_cl_s01_cr_elephant_40_n02504013_4288.png
subject-01,1,245,0.567062854766846,boat,boat,cr,0245_cl_s01_cr_boat_40_n03662601_4437.png
subject-01,1,246,0.606829166412354,bicycle,bicycle,cr,0246_cl_s01_cr_bicycle_40_n02835271_7351.png
subject-01,1,247,0.766826868057251,elephant,elephant,bw,0247_cl_s01_bw_elephant_40_n02504458_2556.png
subject-01,1,248,0.846597909927368,airplane,airplane,cr,0248_cl_s01_cr_airplane_40_n02690373_303.png
subject-01,1,249,0.756850957870483,elephant,elephant,bw,0249_cl_s01_bw_elephant_40_n02504013_5503.png
subject-01,1,250,0.834223985671997,truck,truck,cr,0250_cl_s01_cr_truck_40_n04467665_68332.png
subject-01,1,251,0.810053110122681,clock,clock,bw,0251_cl_s01_bw_clock_40_n02708093_3079.png
subject-01,1,252,0.719900131225586,cat,cat,cr,0252_cl_s01_cr_cat_40_n02123394_2395.png
subject-01,1,253,0.945568084716797,chair,chair,cr,0253_cl_s01_cr_chair_40_n04429376_20906.png
subject-01,1,254,0.663475036621094,boat,boat,cr,0254_cl_s01_cr_boat_40_n03344393_8160.png
subject-01,1,255,0.703165054321289,keyboard,keyboard,cr,0255_cl_s01_cr_keyboard_40_n03085013_21325.png
subject-01,1,256,1.28112697601318,knife,knife,cr,0256_cl_s01_cr_knife_40_n03041632_99875.png
subject-01,1,257,NaN,na,clock,bw,0257_cl_s01_bw_clock_40_n04548280_7384.png
subject-01,1,258,0.748556852340698,keyboard,keyboard,bw,0258_cl_s01_bw_keyboard_40_n03085013_23534.png
subject-01,1,259,0.726629972457886,truck,truck,bw,0259_cl_s01_bw_truck_40_n03417042_2383.png
subject-01,1,260,0.804624080657959,clock,clock,bw,0260_cl_s01_bw_clock_40_n03196217_711.png
subject-01,1,261,0.854262113571167,keyboard,keyboard,bw,0261_cl_s01_bw_keyboard_40_n03085013_7992.png
subject-01,1,262,0.854249000549316,cat,cat,bw,0262_cl_s01_bw_cat_40_n02125311_75445.png
subject-01,1,263,0.911697864532471,knife,knife,cr,0263_cl_s01_cr_knife_40_n03041632_47410.png
subject-01,1,264,0.723505020141602,bottle,oven,bw,0264_cl_s01_bw_oven_40_n04111531_741.png
subject-01,1,265,0.773500919342041,cat,oven,bw,0265_cl_s01_bw_oven_40_n04111531_3181.png
subject-01,1,266,0.829262971878052,truck,truck,bw,0266_cl_s01_bw_truck_40_n03417042_17099.png
subject-01,1,267,0.775015830993652,boat,boat,cr,0267_cl_s01_cr_boat_40_n03662601_15143.png
subject-01,1,268,0.642730951309204,keyboard,keyboard,bw,0268_cl_s01_bw_keyboard_40_n03085013_19197.png
subject-01,1,269,0.832751035690308,airplane,airplane,cr,0269_cl_s01_cr_airplane_40_n02690373_4202.png
subject-01,1,270,1.138592004776,bear,bear,bw,0270_cl_s01_bw_bear_40_n02132136_10134.png
subject-01,1,271,0.896149873733521,boat,boat,bw,0271_cl_s01_bw_boat_40_n03344393_5296.png
subject-01,1,272,0.674127101898193,keyboard,keyboard,bw,0272_cl_s01_bw_keyboard_40_n04505470_1600.png
subject-01,1,273,0.919944047927856,truck,truck,bw,0273_cl_s01_bw_truck_40_n03417042_10043.png
subject-01,1,274,0.935667037963867,bird,bird,bw,0274_cl_s01_bw_bird_40_n02007558_5525.png
subject-01,1,275,0.629421949386597,airplane,airplane,cr,0275_cl_s01_cr_airplane_40_n02690373_6621.png
subject-01,1,276,0.881345987319946,keyboard,keyboard,bw,0276_cl_s01_bw_keyboard_40_n04505470_6623.png
subject-01,1,277,0.957065105438232,dog,dog,cr,0277_cl_s01_cr_dog_40_n02113624_3403.png
subject-01,1,278,0.988949060440063,dog,dog,bw,0278_cl_s01_bw_dog_40_n02106550_12642.png
subject-01,1,279,0.710717916488647,clock,clock,cr,0279_cl_s01_cr_clock_40_n04548280_24041.png
subject-01,1,280,0.780566930770874,truck,truck,bw,0280_cl_s01_bw_truck_40_n03417042_3236.png
subject-01,1,281,0.946386098861694,car,car,bw,0281_cl_s01_bw_car_40_n03100240_2583.png
subject-01,1,282,0.736212015151978,knife,knife,cr,0282_cl_s01_cr_knife_40_n03041632_45090.png
subject-01,1,283,0.62985897064209,cat,cat,cr,0283_cl_s01_cr_cat_40_n02123597_660.png
subject-01,1,284,0.591778039932251,clock,clock,bw,0284_cl_s01_bw_clock_40_n04548280_7813.png
subject-01,1,285,0.823554992675781,dog,dog,bw,0285_cl_s01_bw_dog_40_n02111129_797.png
subject-01,1,286,0.643319845199585,knife,knife,cr,0286_cl_s01_cr_knife_40_n03041632_3717.png
subject-01,1,287,0.767122030258179,boat,boat,bw,0287_cl_s01_bw_boat_40_n04273569_870.png
subject-01,1,288,0.801316976547241,elephant,elephant,bw,0288_cl_s01_bw_elephant_40_n02504013_720.png
subject-01,1,289,0.706681966781616,oven,oven,cr,0289_cl_s01_cr_oven_40_n04111531_14876.png
subject-01,1,290,0.622674942016602,cat,cat,bw,0290_cl_s01_bw_cat_40_n02123045_569.png
subject-01,1,291,0.580349922180176,clock,clock,bw,0291_cl_s01_bw_clock_40_n03196217_5888.png
subject-01,1,292,0.836266994476318,keyboard,keyboard,cr,0292_cl_s01_cr_keyboard_40_n04505470_4770.png
subject-01,1,293,0.820199966430664,knife,knife,cr,0293_cl_s01_cr_knife_40_n03041632_32292.png
subject-01,1,294,0.83002495765686,elephant,elephant,cr,0294_cl_s01_cr_elephant_40_n02504013_6672.png
subject-01,1,295,0.697790861129761,airplane,airplane,bw,0295_cl_s01_bw_airplane_40_n02690373_5838.png
subject-01,1,296,0.82148814201355,bird,bird,cr,0296_cl_s01_cr_bird_40_n01796340_5508.png
subject-01,1,297,0.605350017547607,clock,clock,bw,0297_cl_s01_bw_clock_40_n03196217_6477.png
subject-01,1,298,0.975183963775635,bird,bird,bw,0298_cl_s01_bw_bird_40_n02011460_5075.png
subject-01,1,299,0.686983108520508,boat,boat,bw,0299_cl_s01_bw_boat_40_n03344393_10284.png
subject-01,1,300,0.602743864059448,oven,oven,bw,0300_cl_s01_bw_oven_40_n04111531_14559.png
subject-01,1,301,0.838429927825928,knife,knife,cr,0301_cl_s01_cr_knife_40_n03041632_24060.png
subject-01,1,302,0.804340839385986,airplane,airplane,bw,0302_cl_s01_bw_airplane_40_n02690373_4134.png
subject-01,1,303,1.03023791313171,knife,bear,cr,0303_cl_s01_cr_bear_40_n02134084_6669.png
subject-01,1,304,0.602093935012817,bird,bird,cr,0304_cl_s01_cr_bird_40_n01558993_5744.png
subject-01,1,305,1.12777018547058,bird,bird,bw,0305_cl_s01_bw_bird_40_n01818515_10536.png
subject-01,1,306,0.637563943862915,bicycle,bottle,bw,0306_cl_s01_bw_bottle_40_n04557648_20614.png
subject-01,1,307,0.973321914672852,clock,clock,cr,0307_cl_s01_cr_clock_40_n04548280_3605.png
subject-01,1,308,0.801162004470825,truck,truck,bw,0308_cl_s01_bw_truck_40_n03796401_27288.png
subject-01,1,309,0.795114040374756,bicycle,bicycle,cr,0309_cl_s01_cr_bicycle_40_n02835271_18276.png
subject-01,1,310,1.11295580863953,dog,bear,cr,0310_cl_s01_cr_bear_40_n02133161_12152.png
subject-01,1,311,0.66095495223999,elephant,elephant,cr,0311_cl_s01_cr_elephant_40_n02504013_14918.png
subject-01,1,312,0.662439107894897,bicycle,bicycle,bw,0312_cl_s01_bw_bicycle_40_n03792782_5323.png
subject-01,1,313,0.904272794723511,truck,truck,cr,0313_cl_s01_cr_truck_40_n04467665_37066.png
subject-01,1,314,0.818172931671143,bird,bird,bw,0314_cl_s01_bw_bird_40_n02025239_2481.png
subject-01,1,315,0.70796799659729,bicycle,bicycle,bw,0315_cl_s01_bw_bicycle_40_n02835271_5113.png
subject-01,1,316,0.76970386505127,elephant,elephant,cr,0316_cl_s01_cr_elephant_40_n02504458_6185.png
subject-01,1,317,0.943567037582397,knife,knife,cr,0317_cl_s01_cr_knife_40_n03041632_11475.png
subject-01,1,318,0.78931999206543,cat,cat,bw,0318_cl_s01_bw_cat_40_n02125311_31318.png
subject-01,1,319,0.517084121704102,clock,clock,bw,0319_cl_s01_bw_clock_40_n04548280_8585.png
subject-01,1,320,0.768915891647339,bear,bear,bw,0320_cl_s01_bw_bear_40_n02134418_12628.png
subject-01,1,321,0.736981868743896,chair,chair,bw,0321_cl_s01_bw_chair_40_n03376595_17859.png
subject-01,1,322,0.82499098777771,knife,knife,cr,0322_cl_s01_cr_knife_40_n03041632_379.png
subject-01,1,323,0.676830053329468,bottle,bottle,bw,0323_cl_s01_bw_bottle_40_n04557648_1293.png
subject-01,1,324,0.67464804649353,boat,boat,cr,0324_cl_s01_cr_boat_40_n03662601_26298.png
subject-01,1,325,0.490484952926636,oven,oven,bw,0325_cl_s01_bw_oven_40_n04111531_6120.png
subject-01,1,326,0.690310955047607,car,car,bw,0326_cl_s01_bw_car_40_n02814533_92940.png
subject-01,1,327,0.580342054367065,chair,chair,cr,0327_cl_s01_cr_chair_40_n02791124_392.png
subject-01,1,328,0.623688936233521,clock,clock,bw,0328_cl_s01_bw_clock_40_n04548280_3330.png
subject-01,1,329,0.631739854812622,car,car,cr,0329_cl_s01_cr_car_40_n02814533_83614.png
subject-01,1,330,0.719483137130737,bear,bear,cr,0330_cl_s01_cr_bear_40_n02134418_3846.png
subject-01,1,331,1.10345602035522,elephant,elephant,cr,0331_cl_s01_cr_elephant_40_n02504013_811.png
subject-01,1,332,0.689126014709473,airplane,airplane,bw,0332_cl_s01_bw_airplane_40_n02690373_1442.png
subject-01,1,333,0.682753086090088,chair,chair,cr,0333_cl_s01_cr_chair_40_n03376595_6691.png
subject-01,1,334,0.844614028930664,bird,bird,bw,0334_cl_s01_bw_bird_40_n01616318_1071.png
subject-01,1,335,1.50005412101746,bear,boat,cr,0335_cl_s01_cr_boat_40_n03662601_8333.png
subject-01,1,336,0.800363063812256,truck,truck,cr,0336_cl_s01_cr_truck_40_n03796401_9384.png
subject-01,1,337,0.666000127792358,bottle,bottle,cr,0337_cl_s01_cr_bottle_40_n04560804_19001.png
subject-01,1,338,0.598037958145142,cat,cat,cr,0338_cl_s01_cr_cat_40_n02123045_7646.png
subject-01,1,339,0.745954990386963,elephant,elephant,cr,0339_cl_s01_cr_elephant_40_n02504013_3599.png
subject-01,1,340,0.677677869796753,clock,clock,cr,0340_cl_s01_cr_clock_40_n03196217_1109.png
subject-01,1,341,0.547734022140503,boat,boat,bw,0341_cl_s01_bw_boat_40_n03344393_5322.png
subject-01,1,342,0.883167028427124,dog,dog,cr,0342_cl_s01_cr_dog_40_n02090622_11748.png
subject-01,1,343,0.809121131896973,oven,knife,cr,0343_cl_s01_cr_knife_40_n03041632_20707.png
subject-01,1,344,0.652827024459839,keyboard,keyboard,cr,0344_cl_s01_cr_keyboard_40_n03085013_8936.png
subject-01,1,345,0.738651990890503,airplane,airplane,cr,0345_cl_s01_cr_airplane_40_n02690373_4695.png
subject-01,1,346,0.656467199325562,oven,oven,bw,0346_cl_s01_bw_oven_40_n04111531_16463.png
subject-01,1,347,0.63420295715332,dog,dog,bw,0347_cl_s01_bw_dog_40_n02099712_1234.png
subject-01,1,348,0.636096000671387,boat,boat,bw,0348_cl_s01_bw_boat_40_n03662601_17361.png
subject-01,1,349,0.535830974578857,oven,oven,cr,0349_cl_s01_cr_oven_40_n04111531_12929.png
subject-01,1,350,0.983811855316162,truck,truck,bw,0350_cl_s01_bw_truck_40_n03417042_2056.png
subject-01,1,351,0.661611080169678,oven,oven,cr,0351_cl_s01_cr_oven_40_n04111531_2937.png
subject-01,1,352,0.599251985549927,boat,boat,bw,0352_cl_s01_bw_boat_40_n04273569_23705.png
subject-01,1,353,0.749076128005981,boat,boat,cr,0353_cl_s01_cr_boat_40_n02951358_8456.png
subject-01,1,354,0.680830001831055,bottle,bottle,bw,0354_cl_s01_bw_bottle_40_n03983396_11632.png
subject-01,1,355,0.674745082855225,bicycle,bicycle,bw,0355_cl_s01_bw_bicycle_40_n02835271_506.png
subject-01,1,356,0.826795101165771,keyboard,keyboard,cr,0356_cl_s01_cr_keyboard_40_n04505470_665.png
subject-01,1,357,1.24029803276062,bear,bear,bw,0357_cl_s01_bw_bear_40_n02132136_390.png
subject-01,1,358,0.880517959594727,bear,bear,cr,0358_cl_s01_cr_bear_40_n02134084_13663.png
subject-01,1,359,0.818341016769409,airplane,airplane,cr,0359_cl_s01_cr_airplane_40_n02690373_2837.png
subject-01,1,360,0.921844005584717,airplane,airplane,bw,0360_cl_s01_bw_airplane_40_n02690373_1492.png
subject-01,1,361,0.701680898666382,car,car,cr,0361_cl_s01_cr_car_40_n03100240_14252.png
subject-01,1,362,1.06923294067383,elephant,elephant,bw,0362_cl_s01_bw_elephant_40_n02504458_4908.png
subject-01,1,363,0.787147998809814,bird,bird,bw,0363_cl_s01_bw_bird_40_n01582220_5821.png
subject-01,1,364,0.778961896896362,cat,cat,cr,0364_cl_s01_cr_cat_40_n02123045_2968.png
subject-01,1,365,1.01277184486389,dog,dog,cr,0365_cl_s01_cr_dog_40_n02088466_1671.png
subject-01,1,366,0.780760049819946,boat,boat,bw,0366_cl_s01_bw_boat_40_n03344393_7659.png
subject-01,1,367,0.69461989402771,bicycle,bicycle,bw,0367_cl_s01_bw_bicycle_40_n03792782_3783.png
subject-01,1,368,0.844599962234497,airplane,airplane,cr,0368_cl_s01_cr_airplane_40_n02690373_2059.png
subject-01,1,369,0.954035043716431,keyboard,keyboard,cr,0369_cl_s01_cr_keyboard_40_n03085013_19483.png
subject-01,1,370,0.838093996047974,bicycle,bicycle,bw,0370_cl_s01_bw_bicycle_40_n03792782_2960.png
subject-01,1,371,1.0441529750824,keyboard,keyboard,cr,0371_cl_s01_cr_keyboard_40_n03085013_24538.png
subject-01,1,372,0.785560846328735,cat,cat,cr,0372_cl_s01_cr_cat_40_n02123597_9656.png
subject-01,1,373,0.747434854507446,car,car,cr,0373_cl_s01_cr_car_40_n04285008_1085.png
subject-01,1,374,0.843068838119507,dog,dog,cr,0374_cl_s01_cr_dog_40_n02102177_5870.png
subject-01,1,375,0.819020986557007,boat,boat,cr,0375_cl_s01_cr_boat_40_n03662601_24852.png
subject-01,1,376,0.802778005599976,bicycle,bicycle,cr,0376_cl_s01_cr_bicycle_40_n03792782_32379.png
subject-01,1,377,0.704602003097534,cat,cat,cr,0377_cl_s01_cr_cat_40_n02123597_12266.png
subject-01,1,378,0.688650131225586,airplane,airplane,cr,0378_cl_s01_cr_airplane_40_n02690373_713.png
subject-01,1,379,0.960644006729126,airplane,airplane,cr,0379_cl_s01_cr_airplane_40_n02690373_6543.png
subject-01,1,380,0.656491994857788,oven,oven,cr,0380_cl_s01_cr_oven_40_n04111531_5888.png
subject-01,1,381,0.843802928924561,dog,dog,bw,0381_cl_s01_bw_dog_40_n02099601_7304.png
subject-01,1,382,0.981611967086792,bird,bird,bw,0382_cl_s01_bw_bird_40_n01819313_146.png
subject-01,1,383,0.749760866165161,car,car,bw,0383_cl_s01_bw_car_40_n03100240_18873.png
subject-01,1,384,0.929358959197998,dog,dog,bw,0384_cl_s01_bw_dog_40_n02100583_2707.png
subject-01,1,385,0.887094020843506,dog,dog,bw,0385_cl_s01_bw_dog_40_n02105056_15484.png
subject-01,1,386,0.969203948974609,truck,truck,bw,0386_cl_s01_bw_truck_40_n04467665_66535.png
subject-01,1,387,0.714864015579224,elephant,elephant,bw,0387_cl_s01_bw_elephant_40_n02504458_12303.png
subject-01,1,388,0.846442222595215,bottle,bottle,cr,0388_cl_s01_cr_bottle_40_n03937543_4586.png
subject-01,1,389,0.672785043716431,bird,bird,cr,0389_cl_s01_cr_bird_40_n02007558_19064.png
subject-01,1,390,0.788308143615723,oven,oven,bw,0390_cl_s01_bw_oven_40_n04111531_5904.png
subject-01,1,391,0.718120098114014,keyboard,keyboard,cr,0391_cl_s01_cr_keyboard_40_n03085013_18625.png
subject-01,1,392,0.626236915588379,bottle,bottle,cr,0392_cl_s01_cr_bottle_40_n04579145_445.png
subject-01,1,393,0.621665954589844,keyboard,keyboard,bw,0393_cl_s01_bw_keyboard_40_n03085013_22820.png
subject-01,1,394,0.69923996925354,truck,truck,cr,0394_cl_s01_cr_truck_40_n03417042_19479.png
subject-01,1,395,0.789501905441284,bird,bird,bw,0395_cl_s01_bw_bird_40_n01833805_28946.png
subject-01,1,396,0.753036022186279,bottle,bottle,bw,0396_cl_s01_bw_bottle_40_n04591713_3896.png
subject-01,1,397,1.05883407592773,cat,cat,cr,0397_cl_s01_cr_cat_40_n02123159_782.png
subject-01,1,398,0.690698146820068,keyboard,keyboard,bw,0398_cl_s01_bw_keyboard_40_n04505470_464.png
subject-01,1,399,0.792426109313965,bird,bird,cr,0399_cl_s01_cr_bird_40_n01558993_3939.png
subject-01,1,400,0.722640991210938,boat,boat,cr,0400_cl_s01_cr_boat_40_n04273569_3052.png
subject-01,1,401,0.858174085617065,bottle,knife,bw,0401_cl_s01_bw_knife_40_n03041632_85416.png
subject-01,1,402,0.536123037338257,car,car,bw,0402_cl_s01_bw_car_40_n02814533_51154.png
subject-01,1,403,0.642078161239624,airplane,airplane,bw,0403_cl_s01_bw_airplane_40_n02690373_6516.png
subject-01,1,404,0.655658960342407,airplane,airplane,cr,0404_cl_s01_cr_airplane_40_n02690373_12813.png
subject-01,1,405,0.85725212097168,airplane,airplane,bw,0405_cl_s01_bw_airplane_40_n02690373_6406.png
subject-01,1,406,0.717182159423828,chair,chair,cr,0406_cl_s01_cr_chair_40_n03376595_8228.png
subject-01,1,407,0.733052968978882,chair,chair,bw,0407_cl_s01_bw_chair_40_n04099969_6309.png
subject-01,1,408,0.701022863388062,elephant,elephant,cr,0408_cl_s01_cr_elephant_40_n02504013_19831.png
subject-01,1,409,0.978636026382446,bottle,bottle,bw,0409_cl_s01_bw_bottle_40_n03937543_5088.png
subject-01,1,410,0.728461980819702,elephant,elephant,cr,0410_cl_s01_cr_elephant_40_n02504458_2190.png
subject-01,1,411,0.842298030853271,car,car,bw,0411_cl_s01_bw_car_40_n04285008_5997.png
subject-01,1,412,1.23845481872559,knife,knife,cr,0412_cl_s01_cr_knife_40_n03041632_94620.png
subject-01,1,413,0.706123113632202,bicycle,bicycle,cr,0413_cl_s01_cr_bicycle_40_n02835271_8125.png
subject-01,1,414,0.681666135787964,oven,oven,cr,0414_cl_s01_cr_oven_40_n04111531_4662.png
subject-01,1,415,1.05179882049561,cat,dog,bw,0415_cl_s01_bw_dog_40_n02110806_21755.png
subject-01,1,416,0.683206081390381,bottle,bottle,bw,0416_cl_s01_bw_bottle_40_n02823428_3505.png
subject-01,1,417,0.715057134628296,cat,cat,cr,0417_cl_s01_cr_cat_40_n02123045_11472.png
subject-01,1,418,0.631059885025024,boat,boat,cr,0418_cl_s01_cr_boat_40_n03662601_14818.png
subject-01,1,419,0.715114116668701,bicycle,bicycle,cr,0419_cl_s01_cr_bicycle_40_n02835271_8322.png
subject-01,1,420,1.25284481048584,keyboard,knife,bw,0420_cl_s01_bw_knife_40_n03041632_9580.png
subject-01,1,421,0.910505056381226,dog,dog,bw,0421_cl_s01_bw_dog_40_n02088466_3052.png
subject-01,1,422,1.02063798904419,keyboard,keyboard,cr,0422_cl_s01_cr_keyboard_40_n04505470_7161.png
subject-01,1,423,0.677949905395508,keyboard,keyboard,cr,0423_cl_s01_cr_keyboard_40_n04505470_2321.png
subject-01,1,424,1.09181189537048,knife,knife,cr,0424_cl_s01_cr_knife_40_n03041632_6708.png
subject-01,1,425,0.738049983978271,keyboard,keyboard,bw,0425_cl_s01_bw_keyboard_40_n04505470_4965.png
subject-01,1,426,0.873461961746216,cat,cat,bw,0426_cl_s01_bw_cat_40_n02123597_11981.png
subject-01,1,427,0.819623231887817,truck,truck,cr,0427_cl_s01_cr_truck_40_n03417042_2778.png
subject-01,1,428,0.803430080413818,car,car,cr,0428_cl_s01_cr_car_40_n02814533_80049.png
subject-01,1,429,1.03902411460876,keyboard,keyboard,cr,0429_cl_s01_cr_keyboard_40_n03085013_23561.png
subject-01,1,430,0.956799030303955,airplane,airplane,bw,0430_cl_s01_bw_airplane_40_n02690373_1800.png
subject-01,1,431,0.832504034042358,chair,chair,bw,0431_cl_s01_bw_chair_40_n02791124_4306.png
subject-01,1,432,1.02023100852966,bicycle,knife,bw,0432_cl_s01_bw_knife_40_n03041632_33424.png
subject-01,1,433,0.740253210067749,boat,boat,cr,0433_cl_s01_cr_boat_40_n04273569_111.png
subject-01,1,434,1.12980604171753,bear,bear,bw,0434_cl_s01_bw_bear_40_n02132136_4403.png
subject-01,1,435,0.905701875686646,bicycle,bicycle,bw,0435_cl_s01_bw_bicycle_40_n03792782_49707.png
subject-01,1,436,0.771564960479736,bicycle,bicycle,cr,0436_cl_s01_cr_bicycle_40_n02835271_3308.png
subject-01,1,437,0.741671085357666,clock,clock,bw,0437_cl_s01_bw_clock_40_n04548280_3305.png
subject-01,1,438,0.649091005325317,boat,boat,bw,0438_cl_s01_bw_boat_40_n03344393_7614.png
subject-01,1,439,0.710951089859009,chair,bicycle,bw,0439_cl_s01_bw_bicycle_40_n02835271_9434.png
subject-01,1,440,1.39473795890808,keyboard,truck,bw,0440_cl_s01_bw_truck_40_n03417042_3039.png
subject-01,1,441,0.63673210144043,oven,oven,cr,0441_cl_s01_cr_oven_40_n04111531_5519.png
subject-01,1,442,0.628324031829834,bottle,bottle,cr,0442_cl_s01_cr_bottle_40_n03983396_3702.png
subject-01,1,443,0.798280000686646,clock,clock,cr,0443_cl_s01_cr_clock_40_n04548280_2177.png
subject-01,1,444,0.690185070037842,bottle,bottle,cr,0444_cl_s01_cr_bottle_40_n03983396_4132.png
subject-01,1,445,0.627974033355713,bicycle,bicycle,cr,0445_cl_s01_cr_bicycle_40_n02835271_17509.png
subject-01,1,446,0.695797204971313,airplane,airplane,bw,0446_cl_s01_bw_airplane_40_n02690373_3090.png
subject-01,1,447,0.685550928115845,chair,chair,cr,0447_cl_s01_cr_chair_40_n03376595_1302.png
subject-01,1,448,0.771613121032715,dog,dog,cr,0448_cl_s01_cr_dog_40_n02107683_3640.png
subject-01,1,449,0.747220039367676,car,car,cr,0449_cl_s01_cr_car_40_n03100240_770.png
subject-01,1,450,NaN,na,knife,cr,0450_cl_s01_cr_knife_40_n03041632_4305.png
subject-01,1,451,0.755110025405884,elephant,elephant,cr,0451_cl_s01_cr_elephant_40_n02504013_4590.png
subject-01,1,452,0.928687810897827,truck,truck,cr,0452_cl_s01_cr_truck_40_n03417042_5752.png
subject-01,1,453,0.794510126113892,oven,oven,cr,0453_cl_s01_cr_oven_40_n04111531_21931.png
subject-01,1,454,0.74409008026123,elephant,elephant,bw,0454_cl_s01_bw_elephant_40_n02504458_4711.png
subject-01,1,455,0.761962175369263,clock,clock,bw,0455_cl_s01_bw_clock_40_n02708093_8033.png
subject-01,1,456,0.803950071334839,bicycle,bicycle,bw,0456_cl_s01_bw_bicycle_40_n03792782_41992.png
subject-01,1,457,0.717722177505493,keyboard,keyboard,cr,0457_cl_s01_cr_keyboard_40_n03085013_5622.png
subject-01,1,458,0.675262928009033,bird,bird,bw,0458_cl_s01_bw_bird_40_n02009912_1919.png
subject-01,1,459,0.941102981567383,bottle,bottle,cr,0459_cl_s01_cr_bottle_40_n03937543_4202.png
subject-01,1,460,0.693013906478882,bicycle,bicycle,bw,0460_cl_s01_bw_bicycle_40_n02835271_4341.png
subject-01,1,461,NaN,na,bear,bw,0461_cl_s01_bw_bear_40_n02132136_18543.png
subject-01,1,462,0.672876834869385,cat,cat,bw,0462_cl_s01_bw_cat_40_n02124075_14425.png
subject-01,1,463,0.548500061035156,clock,clock,bw,0463_cl_s01_bw_clock_40_n02708093_544.png
subject-01,1,464,1.02013492584229,bear,bear,cr,0464_cl_s01_cr_bear_40_n02133161_7604.png
subject-01,1,465,0.842043161392212,car,car,bw,0465_cl_s01_bw_car_40_n03100240_15407.png
subject-01,1,466,0.951965093612671,bicycle,bicycle,bw,0466_cl_s01_bw_bicycle_40_n02835271_12926.png
subject-01,1,467,0.703813076019287,chair,chair,cr,0467_cl_s01_cr_chair_40_n03376595_2056.png
subject-01,1,468,0.947813987731934,oven,oven,bw,0468_cl_s01_bw_oven_40_n04111531_9762.png
subject-01,1,469,0.73346996307373,bicycle,bicycle,bw,0469_cl_s01_bw_bicycle_40_n03792782_25799.png
subject-01,1,470,0.69324803352356,oven,oven,cr,0470_cl_s01_cr_oven_40_n04111531_3570.png
subject-01,1,471,0.740985155105591,car,car,cr,0471_cl_s01_cr_car_40_n04285008_874.png
subject-01,1,472,1.20066404342651,keyboard,bottle,cr,0472_cl_s01_cr_bottle_40_n04557648_364.png
subject-01,1,473,0.696537017822266,airplane,airplane,bw,0473_cl_s01_bw_airplane_40_n02690373_8461.png
subject-01,1,474,0.72226095199585,boat,boat,cr,0474_cl_s01_cr_boat_40_n04273569_1087.png
subject-01,1,475,1.4825382232666,oven,chair,cr,0475_cl_s01_cr_chair_40_n03376595_1798.png
subject-01,1,476,0.553972005844116,oven,oven,cr,0476_cl_s01_cr_oven_40_n04111531_5290.png
subject-01,1,477,0.619872093200684,cat,cat,bw,0477_cl_s01_bw_cat_40_n02124075_12369.png
subject-01,1,478,0.670127153396606,elephant,elephant,bw,0478_cl_s01_bw_elephant_40_n02504458_3714.png
subject-01,1,479,0.821352005004883,bicycle,bicycle,bw,0479_cl_s01_bw_bicycle_40_n03792782_7388.png
subject-01,1,480,0.813265085220337,truck,truck,cr,0480_cl_s01_cr_truck_40_n03796401_18240.png
subject-01,1,481,0.93754506111145,airplane,airplane,cr,0481_cl_s01_cr_airplane_40_n02690373_610.png
subject-01,1,482,0.821477890014648,airplane,airplane,bw,0482_cl_s01_bw_airplane_40_n02690373_6046.png
subject-01,1,483,0.703336000442505,dog,dog,cr,0483_cl_s01_cr_dog_40_n02105505_4069.png
subject-01,1,484,1.22712898254395,chair,chair,bw,0484_cl_s01_bw_chair_40_n04429376_1954.png
subject-01,1,485,0.640799999237061,oven,oven,bw,0485_cl_s01_bw_oven_40_n04111531_7862.png
subject-01,1,486,0.814790010452271,chair,chair,cr,0486_cl_s01_cr_chair_40_n02791124_7424.png
subject-01,1,487,0.85256814956665,dog,dog,bw,0487_cl_s01_bw_dog_40_n02088466_5521.png
subject-01,1,488,0.750822067260742,bear,bear,cr,0488_cl_s01_cr_bear_40_n02133161_12868.png
subject-01,1,489,0.698232889175415,bottle,keyboard,bw,0489_cl_s01_bw_keyboard_40_n04505470_4107.png
subject-01,1,490,0.803989887237549,boat,boat,bw,0490_cl_s01_bw_boat_40_n03662601_855.png
subject-01,1,491,0.787527799606323,bird,bird,cr,0491_cl_s01_cr_bird_40_n02017213_7558.png
subject-01,1,492,0.939852952957153,bottle,bottle,bw,0492_cl_s01_bw_bottle_40_n04557648_23801.png
subject-01,1,493,0.733268022537231,bird,bird,bw,0493_cl_s01_bw_bird_40_n01601694_13054.png
subject-01,1,494,0.753103971481323,oven,oven,bw,0494_cl_s01_bw_oven_40_n04111531_2207.png
subject-01,1,495,0.618969917297363,bird,bird,bw,0495_cl_s01_bw_bird_40_n02009912_9425.png
subject-01,1,496,0.712784051895142,clock,clock,cr,0496_cl_s01_cr_clock_40_n03196217_6193.png
subject-01,1,497,0.592375993728638,boat,boat,bw,0497_cl_s01_bw_boat_40_n04273569_27625.png
subject-01,1,498,0.826657056808472,truck,truck,bw,0498_cl_s01_bw_truck_40_n03417042_29855.png
subject-01,1,499,0.562291145324707,bottle,bottle,cr,0499_cl_s01_cr_bottle_40_n03983396_4212.png
subject-01,1,500,0.547961950302124,cat,cat,bw,0500_cl_s01_bw_cat_40_n02123597_11613.png
subject-01,1,501,0.997841835021973,clock,clock,cr,0501_cl_s01_cr_clock_40_n02708093_1559.png
subject-01,1,502,0.608039140701294,chair,chair,cr,0502_cl_s01_cr_chair_40_n02791124_7031.png
subject-01,1,503,0.769598007202148,bottle,bottle,cr,0503_cl_s01_cr_bottle_40_n04560804_1703.png
subject-01,1,504,0.689248085021973,bottle,bottle,bw,0504_cl_s01_bw_bottle_40_n04560804_15679.png
subject-01,1,505,0.621016979217529,bottle,bottle,bw,0505_cl_s01_bw_bottle_40_n03983396_1006.png
subject-01,1,506,0.946988821029663,knife,knife,bw,0506_cl_s01_bw_knife_40_n03041632_100645.png
subject-01,1,507,0.676692962646484,car,car,cr,0507_cl_s01_cr_car_40_n02814533_54845.png
subject-01,1,508,0.524841070175171,keyboard,keyboard,cr,0508_cl_s01_cr_keyboard_40_n03085013_20078.png
subject-01,1,509,0.622143983840942,chair,chair,cr,0509_cl_s01_cr_chair_40_n04099969_4543.png
subject-01,1,510,0.854147911071777,dog,bear,cr,0510_cl_s01_cr_bear_40_n02134418_1253.png
subject-01,1,511,0.662057876586914,bicycle,bicycle,bw,0511_cl_s01_bw_bicycle_40_n02835271_8137.png
subject-01,1,512,0.955761194229126,keyboard,keyboard,bw,0512_cl_s01_bw_keyboard_40_n04505470_7312.png
subject-01,1,513,0.76348090171814,elephant,elephant,cr,0513_cl_s01_cr_elephant_40_n02504013_2460.png
subject-01,1,514,0.697432041168213,clock,clock,cr,0514_cl_s01_cr_clock_40_n04548280_13469.png
subject-01,1,515,0.693183898925781,chair,chair,cr,0515_cl_s01_cr_chair_40_n02791124_3161.png
subject-01,1,516,0.885043859481812,dog,dog,cr,0516_cl_s01_cr_dog_40_n02093647_1818.png
subject-01,1,517,1.03687405586243,chair,chair,cr,0517_cl_s01_cr_chair_40_n02791124_4294.png
subject-01,1,518,0.688512086868286,cat,cat,cr,0518_cl_s01_cr_cat_40_n02124075_3533.png
subject-01,1,519,0.716540813446045,boat,boat,cr,0519_cl_s01_cr_boat_40_n03344393_2480.png
subject-01,1,520,0.878218173980713,car,car,bw,0520_cl_s01_bw_car_40_n02814533_95054.png
subject-01,1,521,0.716052055358887,bottle,bottle,cr,0521_cl_s01_cr_bottle_40_n03937543_1808.png
subject-01,1,522,0.680047035217285,car,car,cr,0522_cl_s01_cr_car_40_n02814533_72213.png
subject-01,1,523,0.793832063674927,clock,clock,cr,0523_cl_s01_cr_clock_40_n03196217_1499.png
subject-01,1,524,0.711546182632446,cat,cat,cr,0524_cl_s01_cr_cat_40_n02123045_5300.png
subject-01,1,525,0.989268064498901,bird,bird,bw,0525_cl_s01_bw_bird_40_n02006656_3185.png
subject-01,1,526,0.655127048492432,clock,clock,cr,0526_cl_s01_cr_clock_40_n03196217_4541.png
subject-01,1,527,0.690944910049438,cat,cat,cr,0527_cl_s01_cr_cat_40_n02123159_2317.png
subject-01,1,528,0.822667837142944,bear,bear,cr,0528_cl_s01_cr_bear_40_n02133161_1362.png
subject-01,1,529,0.62689208984375,clock,clock,bw,0529_cl_s01_bw_clock_40_n04548280_1202.png
subject-01,1,530,0.762752056121826,dog,dog,bw,0530_cl_s01_bw_dog_40_n02095570_6717.png
subject-01,1,531,0.746135950088501,car,car,bw,0531_cl_s01_bw_car_40_n03100240_15941.png
subject-01,1,532,1.00009918212891,bear,chair,bw,0532_cl_s01_bw_chair_40_n02791124_1443.png
subject-01,1,533,0.897691965103149,bottle,bottle,cr,0533_cl_s01_cr_bottle_40_n04557648_830.png
subject-01,1,534,0.743704080581665,truck,truck,cr,0534_cl_s01_cr_truck_40_n03417042_8298.png
subject-01,1,535,0.821371078491211,clock,clock,bw,0535_cl_s01_bw_clock_40_n02708093_4569.png
subject-01,1,536,1.07926893234253,keyboard,keyboard,cr,0536_cl_s01_cr_keyboard_40_n03085013_7576.png
subject-01,1,537,0.681194067001343,truck,truck,bw,0537_cl_s01_bw_truck_40_n03417042_27093.png
subject-01,1,538,0.869108915328979,elephant,elephant,cr,0538_cl_s01_cr_elephant_40_n02504013_13560.png
subject-01,1,539,0.76661491394043,car,car,bw,0539_cl_s01_bw_car_40_n04285008_12045.png
subject-01,1,540,0.65244197845459,airplane,airplane,cr,0540_cl_s01_cr_airplane_40_n02690373_5176.png
subject-01,1,541,0.810422897338867,bicycle,bicycle,bw,0541_cl_s01_bw_bicycle_40_n03792782_6194.png
subject-01,1,542,0.624221086502075,oven,oven,cr,0542_cl_s01_cr_oven_40_n04111531_15912.png
subject-01,1,543,0.788343906402588,oven,oven,cr,0543_cl_s01_cr_oven_40_n04111531_2592.png
subject-01,1,544,0.712038040161133,oven,bird,cr,0544_cl_s01_cr_bird_40_n02011460_2435.png
subject-01,1,545,0.687522888183594,car,car,cr,0545_cl_s01_cr_car_40_n02814533_33205.png
subject-01,1,546,0.625257015228271,oven,oven,bw,0546_cl_s01_bw_oven_40_n04111531_14959.png
subject-01,1,547,0.591127872467041,clock,clock,cr,0547_cl_s01_cr_clock_40_n04548280_6743.png
subject-01,1,548,0.821316957473755,knife,knife,bw,0548_cl_s01_bw_knife_40_n03041632_15299.png
subject-01,1,549,1.42674589157104,clock,clock,bw,0549_cl_s01_bw_clock_40_n03196217_127.png
subject-01,1,550,0.990653991699219,boat,boat,bw,0550_cl_s01_bw_boat_40_n04273569_12917.png
subject-01,1,551,0.640408992767334,airplane,airplane,cr,0551_cl_s01_cr_airplane_40_n02690373_9626.png
subject-01,1,552,0.758321046829224,bear,bear,cr,0552_cl_s01_cr_bear_40_n02134084_20500.png
subject-01,1,553,0.984035968780518,bear,bear,bw,0553_cl_s01_bw_bear_40_n02132136_6890.png
subject-01,1,554,0.71786904335022,bottle,bottle,bw,0554_cl_s01_bw_bottle_40_n02823428_3049.png
subject-01,1,555,0.865939855575562,keyboard,keyboard,cr,0555_cl_s01_cr_keyboard_40_n03085013_22837.png
subject-01,1,556,0.613567113876343,keyboard,keyboard,bw,0556_cl_s01_bw_keyboard_40_n03085013_3264.png
subject-01,1,557,0.581313133239746,bear,bear,bw,0557_cl_s01_bw_bear_40_n02134418_7795.png
subject-01,1,558,0.817407846450806,boat,boat,bw,0558_cl_s01_bw_boat_40_n02951358_34163.png
subject-01,1,559,0.996882915496826,bear,bear,cr,0559_cl_s01_cr_bear_40_n02132136_8637.png
subject-01,1,560,0.85087513923645,truck,truck,cr,0560_cl_s01_cr_truck_40_n03417042_4218.png
subject-01,1,561,0.742557048797607,clock,clock,bw,0561_cl_s01_bw_clock_40_n04548280_4473.png
subject-01,1,562,0.666538000106812,bear,bear,bw,0562_cl_s01_bw_bear_40_n02132136_21799.png
subject-01,1,563,0.690342903137207,bird,bird,cr,0563_cl_s01_cr_bird_40_n01531178_5780.png
subject-01,1,564,0.735964059829712,truck,truck,cr,0564_cl_s01_cr_truck_40_n03796401_27184.png
subject-01,1,565,0.667972087860107,clock,clock,bw,0565_cl_s01_bw_clock_40_n03196217_5258.png
subject-01,1,566,0.631762981414795,bird,bird,cr,0566_cl_s01_cr_bird_40_n02002556_15337.png
subject-01,1,567,0.723562002182007,bottle,bottle,cr,0567_cl_s01_cr_bottle_40_n04560804_3683.png
subject-01,1,568,0.609277963638306,bicycle,bicycle,cr,0568_cl_s01_cr_bicycle_40_n02835271_8511.png
subject-01,1,569,0.759196043014526,bear,bear,cr,0569_cl_s01_cr_bear_40_n02134084_23974.png
subject-01,1,570,0.756922960281372,cat,dog,bw,0570_cl_s01_bw_dog_40_n02091244_9271.png
subject-01,1,571,0.970879077911377,bird,bear,cr,0571_cl_s01_cr_bear_40_n02133161_6946.png
subject-01,1,572,0.760486841201782,truck,truck,bw,0572_cl_s01_bw_truck_40_n04467665_10060.png
subject-01,1,573,0.674381971359253,oven,oven,bw,0573_cl_s01_bw_oven_40_n04111531_5328.png
subject-01,1,574,0.77849006652832,bottle,bottle,cr,0574_cl_s01_cr_bottle_40_n04560804_2005.png
subject-01,1,575,0.898101091384888,bear,bear,bw,0575_cl_s01_bw_bear_40_n02134084_3695.png
subject-01,1,576,0.623795986175537,cat,cat,bw,0576_cl_s01_bw_cat_40_n02123597_2219.png
subject-01,1,577,0.753590106964111,chair,chair,bw,0577_cl_s01_bw_chair_40_n02791124_6077.png
subject-01,1,578,0.863446950912476,bottle,bottle,cr,0578_cl_s01_cr_bottle_40_n04579145_7431.png
subject-01,1,579,0.67728590965271,keyboard,keyboard,bw,0579_cl_s01_bw_keyboard_40_n04505470_510.png
subject-01,1,580,0.69913387298584,oven,oven,cr,0580_cl_s01_cr_oven_40_n04111531_4452.png
subject-01,1,581,0.958968877792358,elephant,elephant,bw,0581_cl_s01_bw_elephant_40_n02504013_237.png
subject-01,1,582,0.834724903106689,elephant,elephant,cr,0582_cl_s01_cr_elephant_40_n02504013_10351.png
subject-01,1,583,1.09493708610535,elephant,elephant,cr,0583_cl_s01_cr_elephant_40_n02504458_1304.png
subject-01,1,584,0.736185073852539,cat,dog,bw,0584_cl_s01_bw_dog_40_n02104365_9837.png
subject-01,1,585,0.582043170928955,cat,cat,cr,0585_cl_s01_cr_cat_40_n02123045_9661.png
subject-01,1,586,0.750220060348511,bottle,bottle,bw,0586_cl_s01_bw_bottle_40_n02823428_5214.png
subject-01,1,587,0.687702894210815,bird,bird,bw,0587_cl_s01_bw_bird_40_n01828970_5448.png
subject-01,1,588,0.871506929397583,car,car,cr,0588_cl_s01_cr_car_40_n02814533_83874.png
subject-01,1,589,0.735205888748169,oven,oven,bw,0589_cl_s01_bw_oven_40_n04111531_8036.png
subject-01,1,590,0.917156934738159,bottle,oven,cr,0590_cl_s01_cr_oven_40_n04111531_7355.png
subject-01,1,591,0.716856956481934,car,car,bw,0591_cl_s01_bw_car_40_n04285008_13354.png
subject-01,1,592,0.668636083602905,clock,clock,cr,0592_cl_s01_cr_clock_40_n02708093_8267.png
subject-01,1,593,0.610716104507446,cat,cat,bw,0593_cl_s01_bw_cat_40_n02124075_14242.png
subject-01,1,594,0.892402172088623,knife,knife,cr,0594_cl_s01_cr_knife_40_n03041632_4279.png
subject-01,1,595,0.760422945022583,oven,oven,cr,0595_cl_s01_cr_oven_40_n04111531_2296.png
subject-01,1,596,0.614096879959106,boat,boat,cr,0596_cl_s01_cr_boat_40_n03344393_5859.png
subject-01,1,597,0.729871034622192,car,car,cr,0597_cl_s01_cr_car_40_n02814533_57176.png
subject-01,1,598,0.663733005523682,cat,cat,bw,0598_cl_s01_bw_cat_40_n02123159_1769.png
subject-01,1,599,0.627568006515503,clock,clock,cr,0599_cl_s01_cr_clock_40_n02708093_4976.png
subject-01,1,600,0.71316385269165,car,truck,cr,0600_cl_s01_cr_truck_40_n03796401_8864.png
subject-01,1,601,0.603389024734497,clock,clock,bw,0601_cl_s01_bw_clock_40_n03196217_868.png
subject-01,1,602,0.674905061721802,cat,keyboard,bw,0602_cl_s01_bw_keyboard_40_n03085013_3910.png
subject-01,1,603,0.690742015838623,bicycle,bicycle,cr,0603_cl_s01_cr_bicycle_40_n03792782_5466.png
subject-01,1,604,0.990840911865234,bear,bear,bw,0604_cl_s01_bw_bear_40_n02132136_23248.png
subject-01,1,605,0.79044508934021,truck,truck,bw,0605_cl_s01_bw_truck_40_n03417042_2794.png
subject-01,1,606,0.866492986679077,bottle,chair,bw,0606_cl_s01_bw_chair_40_n02791124_7324.png
subject-01,1,607,0.659870147705078,bicycle,bicycle,bw,0607_cl_s01_bw_bicycle_40_n02835271_6736.png
subject-01,1,608,0.787827968597412,clock,clock,bw,0608_cl_s01_bw_clock_40_n04548280_8990.png
subject-01,1,609,0.739729881286621,airplane,airplane,bw,0609_cl_s01_bw_airplane_40_n02690373_971.png
subject-01,1,610,1.35916209220886,bear,bear,bw,0610_cl_s01_bw_bear_40_n02132136_23853.png
subject-01,1,611,0.697288990020752,clock,clock,cr,0611_cl_s01_cr_clock_40_n03196217_3416.png
subject-01,1,612,0.611419916152954,clock,clock,bw,0612_cl_s01_bw_clock_40_n04548280_4346.png
subject-01,1,613,0.604903221130371,oven,oven,cr,0613_cl_s01_cr_oven_40_n04111531_2342.png
subject-01,1,614,0.738590002059937,chair,chair,bw,0614_cl_s01_bw_chair_40_n04099969_8509.png
subject-01,1,615,0.814454078674316,bottle,bottle,bw,0615_cl_s01_bw_bottle_40_n03937543_4340.png
subject-01,1,616,NaN,na,clock,bw,0616_cl_s01_bw_clock_40_n02708093_6655.png
subject-01,1,617,0.60608696937561,cat,cat,cr,0617_cl_s01_cr_cat_40_n02123159_1339.png
subject-01,1,618,0.919816017150879,knife,knife,bw,0618_cl_s01_bw_knife_40_n03041632_30553.png
subject-01,1,619,0.711702108383179,bicycle,bicycle,cr,0619_cl_s01_cr_bicycle_40_n03792782_18707.png
subject-01,1,620,1.22962808609009,elephant,elephant,bw,0620_cl_s01_bw_elephant_40_n02504458_3648.png
subject-01,1,621,0.893265008926392,elephant,elephant,cr,0621_cl_s01_cr_elephant_40_n02504458_1179.png
subject-01,1,622,0.661151885986328,clock,clock,bw,0622_cl_s01_bw_clock_40_n02708093_391.png
subject-01,1,623,0.849126815795898,car,car,cr,0623_cl_s01_cr_car_40_n04285008_3453.png
subject-01,1,624,0.628743171691895,airplane,airplane,bw,0624_cl_s01_bw_airplane_40_n02690373_2800.png
subject-01,1,625,0.588747024536133,cat,cat,cr,0625_cl_s01_cr_cat_40_n02123394_979.png
subject-01,1,626,0.888293981552124,cat,dog,cr,0626_cl_s01_cr_dog_40_n02105641_4701.png
subject-01,1,627,0.69016695022583,boat,boat,cr,0627_cl_s01_cr_boat_40_n04273569_13641.png
subject-01,1,628,1.25184893608093,car,car,cr,0628_cl_s01_cr_car_40_n02814533_74825.png
subject-01,1,629,0.65982985496521,airplane,airplane,cr,0629_cl_s01_cr_airplane_40_n02690373_6812.png
subject-01,1,630,0.611618041992188,car,car,bw,0630_cl_s01_bw_car_40_n03100240_19223.png
subject-01,1,631,0.717235088348389,bottle,bottle,bw,0631_cl_s01_bw_bottle_40_n03983396_3817.png
subject-01,1,632,0.769204139709473,elephant,elephant,bw,0632_cl_s01_bw_elephant_40_n02504013_1432.png
subject-01,1,633,1.3189709186554,boat,boat,cr,0633_cl_s01_cr_boat_40_n03662601_35008.png
subject-01,1,634,1.41467905044556,bottle,oven,bw,0634_cl_s01_bw_oven_40_n04111531_14055.png
subject-01,1,635,0.646530151367188,airplane,airplane,bw,0635_cl_s01_bw_airplane_40_n02690373_9812.png
subject-01,1,636,1.00231909751892,car,car,cr,0636_cl_s01_cr_car_40_n04285008_6200.png
subject-01,1,637,0.682326078414917,clock,clock,cr,0637_cl_s01_cr_clock_40_n04548280_5889.png
subject-01,1,638,0.794033050537109,oven,chair,bw,0638_cl_s01_bw_chair_40_n03376595_2924.png
subject-01,1,639,0.794081211090088,airplane,airplane,bw,0639_cl_s01_bw_airplane_40_n02690373_693.png
subject-01,1,640,0.753737211227417,bicycle,bicycle,bw,0640_cl_s01_bw_bicycle_40_n03792782_1778.png
subject-01,1,641,0.502671003341675,clock,clock,cr,0641_cl_s01_cr_clock_40_n02708093_444.png
subject-01,1,642,0.506515026092529,clock,clock,cr,0642_cl_s01_cr_clock_40_n02708093_3385.png
subject-01,1,643,0.592329978942871,clock,clock,cr,0643_cl_s01_cr_clock_40_n03196217_970.png
subject-01,1,644,0.604228973388672,clock,clock,bw,0644_cl_s01_bw_clock_40_n04548280_4839.png
subject-01,1,645,1.2839469909668,truck,truck,bw,0645_cl_s01_bw_truck_40_n03796401_1853.png
subject-01,1,646,0.651942014694214,bottle,bottle,bw,0646_cl_s01_bw_bottle_40_n04591713_2680.png
subject-01,1,647,0.515692949295044,clock,clock,bw,0647_cl_s01_bw_clock_40_n02708093_3691.png
subject-01,1,648,0.593626976013184,cat,cat,bw,0648_cl_s01_bw_cat_40_n02123045_12762.png
subject-01,1,649,0.557253837585449,cat,cat,cr,0649_cl_s01_cr_cat_40_n02124075_17464.png
subject-01,1,650,0.856973171234131,oven,chair,bw,0650_cl_s01_bw_chair_40_n02791124_5690.png
subject-01,1,651,0.662971019744873,bird,bird,bw,0651_cl_s01_bw_bird_40_n01592084_5361.png
subject-01,1,652,1.47884821891785,airplane,truck,cr,0652_cl_s01_cr_truck_40_n04467665_34228.png
subject-01,1,653,0.856369018554688,bear,bear,cr,0653_cl_s01_cr_bear_40_n02133161_4282.png
subject-01,1,654,0.740254878997803,cat,cat,bw,0654_cl_s01_bw_cat_40_n02125311_20219.png
subject-01,1,655,0.820082902908325,bicycle,bicycle,cr,0655_cl_s01_cr_bicycle_40_n02835271_8502.png
subject-01,1,656,0.731923818588257,cat,dog,bw,0656_cl_s01_bw_dog_40_n02110958_5624.png
subject-01,1,657,0.819737911224365,knife,knife,bw,0657_cl_s01_bw_knife_40_n03041632_35365.png
subject-01,1,658,0.831501960754395,bear,bear,bw,0658_cl_s01_bw_bear_40_n02134418_399.png
subject-01,1,659,0.815701961517334,bear,bear,cr,0659_cl_s01_cr_bear_40_n02132136_4314.png
subject-01,1,660,0.893247127532959,keyboard,keyboard,cr,0660_cl_s01_cr_keyboard_40_n04505470_996.png
subject-01,1,661,0.857104778289795,airplane,airplane,cr,0661_cl_s01_cr_airplane_40_n02690373_3313.png
subject-01,1,662,1.44277787208557,knife,knife,bw,0662_cl_s01_bw_knife_40_n03041632_9302.png
subject-01,1,663,0.782938957214355,clock,clock,bw,0663_cl_s01_bw_clock_40_n04548280_7211.png
subject-01,1,664,0.674362182617188,bird,bird,cr,0664_cl_s01_cr_bird_40_n01829413_122.png
subject-01,1,665,0.642652034759521,keyboard,keyboard,cr,0665_cl_s01_cr_keyboard_40_n03085013_24001.png
subject-01,1,666,1.50006794929504,chair,bottle,cr,0666_cl_s01_cr_bottle_40_n03937543_3219.png
subject-01,1,667,0.769729852676392,keyboard,keyboard,bw,0667_cl_s01_bw_keyboard_40_n03085013_19916.png
subject-01,1,668,0.529754161834717,cat,cat,cr,0668_cl_s01_cr_cat_40_n02123159_6609.png
subject-01,1,669,0.881341934204102,cat,cat,bw,0669_cl_s01_bw_cat_40_n02125311_17543.png
subject-01,1,670,0.867205858230591,bear,bear,bw,0670_cl_s01_bw_bear_40_n02134418_1043.png
subject-01,1,671,0.733198165893555,chair,chair,bw,0671_cl_s01_bw_chair_40_n04099969_43.png
subject-01,1,672,1.2348198890686,airplane,airplane,bw,0672_cl_s01_bw_airplane_40_n02690373_1912.png
subject-01,1,673,0.966631889343262,bicycle,bicycle,cr,0673_cl_s01_cr_bicycle_40_n02835271_1426.png
subject-01,1,674,0.890697956085205,bicycle,bicycle,bw,0674_cl_s01_bw_bicycle_40_n03792782_47426.png
subject-01,1,675,0.938436985015869,truck,truck,cr,0675_cl_s01_cr_truck_40_n03417042_27404.png
subject-01,1,676,1.08823609352112,chair,clock,cr,0676_cl_s01_cr_clock_40_n04548280_4349.png
subject-01,1,677,0.647919893264771,oven,oven,bw,0677_cl_s01_bw_oven_40_n04111531_8193.png
subject-01,1,678,0.907770872116089,boat,boat,bw,0678_cl_s01_bw_boat_40_n03344393_11855.png
subject-01,1,679,0.6616370677948,bottle,bottle,bw,0679_cl_s01_bw_bottle_40_n02823428_6830.png
subject-01,1,680,1.50005102157593,bottle,bottle,bw,0680_cl_s01_bw_bottle_40_n02823428_3298.png
subject-01,1,681,0.705158948898315,oven,oven,bw,0681_cl_s01_bw_oven_40_n04111531_615.png
subject-01,1,682,0.574857950210571,clock,clock,cr,0682_cl_s01_cr_clock_40_n03196217_9736.png
subject-01,1,683,0.792881965637207,clock,clock,cr,0683_cl_s01_cr_clock_40_n03196217_6293.png
subject-01,1,684,0.746574878692627,bicycle,bicycle,cr,0684_cl_s01_cr_bicycle_40_n02835271_15524.png
subject-01,1,685,0.638738870620728,oven,oven,cr,0685_cl_s01_cr_oven_40_n04111531_10749.png
subject-01,1,686,1.24832606315613,car,car,cr,0686_cl_s01_cr_car_40_n03100240_9354.png
subject-01,1,687,0.710003852844238,chair,chair,bw,0687_cl_s01_bw_chair_40_n03376595_9695.png
subject-01,1,688,0.659916877746582,cat,cat,bw,0688_cl_s01_bw_cat_40_n02125311_7729.png
subject-01,1,689,0.731900930404663,clock,clock,cr,0689_cl_s01_cr_clock_40_n04548280_7153.png
subject-01,1,690,0.657482147216797,boat,boat,cr,0690_cl_s01_cr_boat_40_n03344393_3355.png
subject-01,1,691,0.705272912979126,boat,boat,bw,0691_cl_s01_bw_boat_40_n02951358_381.png
subject-01,1,692,0.737409114837646,boat,boat,cr,0692_cl_s01_cr_boat_40_n03344393_6226.png
subject-01,1,693,0.883057832717896,car,car,bw,0693_cl_s01_bw_car_40_n03100240_8206.png
subject-01,1,694,0.83461594581604,boat,boat,bw,0694_cl_s01_bw_boat_40_n04273569_4044.png
subject-01,1,695,0.678745031356812,bicycle,bicycle,cr,0695_cl_s01_cr_bicycle_40_n02835271_8180.png
subject-01,1,696,1.18670201301575,keyboard,bear,cr,0696_cl_s01_cr_bear_40_n02134418_1063.png
subject-01,1,697,0.70827317237854,truck,truck,bw,0697_cl_s01_bw_truck_40_n03417042_265.png
subject-01,1,698,0.624098062515259,cat,cat,cr,0698_cl_s01_cr_cat_40_n02124075_8351.png
subject-01,1,699,0.829716920852661,clock,clock,bw,0699_cl_s01_bw_clock_40_n03196217_4004.png
subject-01,1,700,0.715520143508911,car,car,cr,0700_cl_s01_cr_car_40_n04285008_8093.png
subject-01,1,701,0.959465980529785,knife,knife,bw,0701_cl_s01_bw_knife_40_n03041632_131.png
subject-01,1,702,0.771204948425293,car,car,bw,0702_cl_s01_bw_car_40_n03100240_6479.png
subject-01,1,703,0.919077157974243,clock,clock,bw,0703_cl_s01_bw_clock_40_n03196217_5365.png
subject-01,1,704,0.987014055252075,bear,bear,bw,0704_cl_s01_bw_bear_40_n02134418_6123.png
subject-01,1,705,0.882764101028442,bear,bear,cr,0705_cl_s01_cr_bear_40_n02134418_5273.png
subject-01,1,706,1.2108199596405,bird,bird,cr,0706_cl_s01_cr_bird_40_n01558993_11456.png
subject-01,1,707,0.984556913375854,oven,oven,cr,0707_cl_s01_cr_oven_40_n04111531_6080.png
subject-01,1,708,0.848266839981079,knife,knife,bw,0708_cl_s01_bw_knife_40_n03041632_101553.png
subject-01,1,709,0.672045946121216,oven,oven,bw,0709_cl_s01_bw_oven_40_n04111531_10436.png
subject-01,1,710,0.671798944473267,clock,clock,cr,0710_cl_s01_cr_clock_40_n02708093_3621.png
subject-01,1,711,1.22757196426392,knife,knife,cr,0711_cl_s01_cr_knife_40_n03041632_14801.png
subject-01,1,712,0.679491996765137,dog,dog,cr,0712_cl_s01_cr_dog_40_n02097130_456.png
subject-01,1,713,0.819287776947021,chair,chair,cr,0713_cl_s01_cr_chair_40_n04429376_21081.png
subject-01,1,714,0.743139982223511,bicycle,bicycle,cr,0714_cl_s01_cr_bicycle_40_n02835271_2068.png
subject-01,1,715,0.632904052734375,chair,chair,cr,0715_cl_s01_cr_chair_40_n03376595_1773.png
subject-01,1,716,1.14660787582397,car,car,bw,0716_cl_s01_bw_car_40_n03100240_23849.png
subject-01,1,717,1.00645589828491,car,car,bw,0717_cl_s01_bw_car_40_n04285008_4834.png
subject-01,1,718,0.986273050308228,cat,knife,cr,0718_cl_s01_cr_knife_40_n03041632_18859.png
subject-01,1,719,0.97389817237854,car,car,bw,0719_cl_s01_bw_car_40_n03100240_7013.png
subject-01,1,720,0.677892923355103,airplane,airplane,cr,0720_cl_s01_cr_airplane_40_n02690373_1732.png
subject-01,1,721,1.17110705375671,dog,dog,cr,0721_cl_s01_cr_dog_40_n02100877_1107.png
subject-01,1,722,0.618549823760986,cat,dog,bw,0722_cl_s01_bw_dog_40_n02106662_50272.png
subject-01,1,723,0.706356048583984,boat,boat,cr,0723_cl_s01_cr_boat_40_n03344393_3337.png
subject-01,1,724,0.520580053329468,oven,oven,bw,0724_cl_s01_bw_oven_40_n04111531_4939.png
subject-01,1,725,0.806262969970703,knife,knife,bw,0725_cl_s01_bw_knife_40_n03041632_37513.png
subject-01,1,726,1.27983999252319,chair,chair,cr,0726_cl_s01_cr_chair_40_n04429376_7089.png
subject-01,1,727,0.985720157623291,knife,knife,cr,0727_cl_s01_cr_knife_40_n03041632_32048.png
subject-01,1,728,0.617424964904785,boat,boat,cr,0728_cl_s01_cr_boat_40_n02951358_5355.png
subject-01,1,729,0.779406070709229,bird,bird,cr,0729_cl_s01_cr_bird_40_n01797886_3876.png
subject-01,1,730,1.07922101020813,boat,boat,bw,0730_cl_s01_bw_boat_40_n04273569_517.png
subject-01,1,731,0.718800067901611,chair,chair,cr,0731_cl_s01_cr_chair_40_n04099969_17727.png
subject-01,1,732,0.63257098197937,keyboard,keyboard,cr,0732_cl_s01_cr_keyboard_40_n03085013_6644.png
subject-01,1,733,0.834473133087158,knife,knife,bw,0733_cl_s01_bw_knife_40_n03041632_32177.png
subject-01,1,734,0.746728897094727,chair,chair,bw,0734_cl_s01_bw_chair_40_n03376595_2420.png
subject-01,1,735,0.770298957824707,clock,clock,bw,0735_cl_s01_bw_clock_40_n02708093_1430.png
subject-01,1,736,0.920090913772583,knife,knife,cr,0736_cl_s01_cr_knife_40_n03041632_90125.png
subject-01,1,737,0.841670036315918,truck,truck,cr,0737_cl_s01_cr_truck_40_n04467665_67327.png
subject-01,1,738,0.78184700012207,dog,dog,bw,0738_cl_s01_bw_dog_40_n02101556_8410.png
subject-01,1,739,0.675242185592651,boat,boat,bw,0739_cl_s01_bw_boat_40_n03662601_6340.png
subject-01,1,740,0.675129890441895,bird,bird,cr,0740_cl_s01_cr_bird_40_n01860187_2825.png
subject-01,1,741,0.607129096984863,keyboard,keyboard,cr,0741_cl_s01_cr_keyboard_40_n04505470_8575.png
subject-01,1,742,0.564977169036865,boat,boat,bw,0742_cl_s01_bw_boat_40_n03344393_3443.png
subject-01,1,743,0.580785989761353,boat,boat,bw,0743_cl_s01_bw_boat_40_n03344393_5066.png
subject-01,1,744,0.808442115783691,elephant,elephant,bw,0744_cl_s01_bw_elephant_40_n02504458_6995.png
subject-01,1,745,0.750185966491699,cat,cat,bw,0745_cl_s01_bw_cat_40_n02123394_5708.png
subject-01,1,746,0.828118085861206,truck,truck,bw,0746_cl_s01_bw_truck_40_n04467665_68331.png
subject-01,1,747,0.781973123550415,keyboard,keyboard,cr,0747_cl_s01_cr_keyboard_40_n04505470_2740.png
subject-01,1,748,1.2056200504303,cat,oven,bw,0748_cl_s01_bw_oven_40_n04111531_12103.png
subject-01,1,749,0.779725074768066,boat,boat,bw,0749_cl_s01_bw_boat_40_n02951358_30020.png
subject-01,1,750,0.58322811126709,bottle,bottle,bw,0750_cl_s01_bw_bottle_40_n03983396_16300.png
subject-01,1,751,0.923203945159912,chair,chair,bw,0751_cl_s01_bw_chair_40_n02791124_3926.png
subject-01,1,752,0.906814098358154,knife,knife,bw,0752_cl_s01_bw_knife_40_n03041632_5102.png
subject-01,1,753,0.750627040863037,keyboard,keyboard,bw,0753_cl_s01_bw_keyboard_40_n03085013_20161.png
subject-01,1,754,0.728535175323486,bottle,bottle,bw,0754_cl_s01_bw_bottle_40_n04591713_7959.png
subject-01,1,755,0.684674024581909,car,car,cr,0755_cl_s01_cr_car_40_n04285008_10901.png
subject-01,1,756,0.842136859893799,bear,bear,cr,0756_cl_s01_cr_bear_40_n02134084_4490.png
subject-01,1,757,0.800060987472534,truck,truck,cr,0757_cl_s01_cr_truck_40_n03417042_8046.png
subject-01,1,758,0.887759208679199,bicycle,bicycle,bw,0758_cl_s01_bw_bicycle_40_n03792782_13140.png
subject-01,1,759,0.749979019165039,boat,boat,bw,0759_cl_s01_bw_boat_40_n03662601_8283.png
subject-01,1,760,0.701542854309082,elephant,elephant,bw,0760_cl_s01_bw_elephant_40_n02504458_6930.png
subject-01,1,761,0.5731520652771,car,car,cr,0761_cl_s01_cr_car_40_n03100240_3286.png
subject-01,1,762,0.711189031600952,bear,bear,bw,0762_cl_s01_bw_bear_40_n02132136_7647.png
subject-01,1,763,0.697026014328003,bottle,bottle,bw,0763_cl_s01_bw_bottle_40_n03983396_20329.png
subject-01,1,764,0.812770843505859,dog,dog,cr,0764_cl_s01_cr_dog_40_n02097209_1491.png
subject-01,1,765,0.586452007293701,bicycle,bicycle,bw,0765_cl_s01_bw_bicycle_40_n02835271_10813.png
subject-01,1,766,0.634283065795898,bird,bird,cr,0766_cl_s01_cr_bird_40_n01833805_4859.png
subject-01,1,767,0.802154779434204,knife,knife,cr,0767_cl_s01_cr_knife_40_n03041632_30573.png
subject-01,1,768,1.48205399513245,keyboard,bottle,cr,0768_cl_s01_cr_bottle_40_n04560804_15293.png
subject-01,1,769,0.815706968307495,cat,cat,cr,0769_cl_s01_cr_cat_40_n02123045_4089.png
subject-01,1,770,0.807968139648438,knife,knife,cr,0770_cl_s01_cr_knife_40_n03041632_32350.png
subject-01,1,771,0.683446884155273,oven,oven,cr,0771_cl_s01_cr_oven_40_n04111531_11499.png
subject-01,1,772,0.713152885437012,elephant,elephant,bw,0772_cl_s01_bw_elephant_40_n02504013_9401.png
subject-01,1,773,0.88495397567749,elephant,elephant,cr,0773_cl_s01_cr_elephant_40_n02504013_6167.png
subject-01,1,774,0.688881874084473,truck,truck,cr,0774_cl_s01_cr_truck_40_n04467665_4287.png
subject-01,1,775,0.856745958328247,car,car,cr,0775_cl_s01_cr_car_40_n04285008_953.png
subject-01,1,776,0.962524175643921,bird,bird,bw,0776_cl_s01_bw_bird_40_n01537544_2875.png
subject-01,1,777,0.586303949356079,bicycle,bicycle,cr,0777_cl_s01_cr_bicycle_40_n02835271_14383.png
subject-01,1,778,0.618083953857422,cat,cat,cr,0778_cl_s01_cr_cat_40_n02125311_28254.png
subject-01,1,779,0.590158224105835,keyboard,keyboard,bw,0779_cl_s01_bw_keyboard_40_n04505470_3959.png
subject-01,1,780,0.657633066177368,cat,clock,cr,0780_cl_s01_cr_clock_40_n03196217_10578.png
subject-01,1,781,0.677500009536743,chair,chair,bw,0781_cl_s01_bw_chair_40_n04429376_27560.png
subject-01,1,782,1.3494930267334,knife,oven,bw,0782_cl_s01_bw_oven_40_n04111531_9322.png
subject-01,1,783,0.929439067840576,airplane,airplane,bw,0783_cl_s01_bw_airplane_40_n02690373_15966.png
subject-01,1,784,0.624824047088623,car,car,cr,0784_cl_s01_cr_car_40_n02814533_27983.png
subject-01,1,785,0.774794101715088,knife,knife,bw,0785_cl_s01_bw_knife_40_n03041632_2630.png
subject-01,1,786,0.688499927520752,bottle,bottle,bw,0786_cl_s01_bw_bottle_40_n03983396_5611.png
subject-01,1,787,0.644279003143311,keyboard,keyboard,bw,0787_cl_s01_bw_keyboard_40_n03085013_6561.png
subject-01,1,788,1.50001811981201,elephant,elephant,bw,0788_cl_s01_bw_elephant_40_n02504458_10344.png
subject-01,1,789,0.806255102157593,bottle,bottle,cr,0789_cl_s01_cr_bottle_40_n04557648_4302.png
subject-01,1,790,1.02572703361511,bird,bird,bw,0790_cl_s01_bw_bird_40_n02002724_1459.png
subject-01,1,791,0.629595041275024,keyboard,keyboard,bw,0791_cl_s01_bw_keyboard_40_n03085013_23800.png
subject-01,1,792,0.561312198638916,boat,boat,cr,0792_cl_s01_cr_boat_40_n02951358_30622.png
subject-01,1,793,0.663188934326172,boat,boat,bw,0793_cl_s01_bw_boat_40_n02951358_4128.png
subject-01,1,794,0.843041181564331,clock,clock,bw,0794_cl_s01_bw_clock_40_n03196217_2414.png
subject-01,1,795,0.849091053009033,bicycle,bicycle,bw,0795_cl_s01_bw_bicycle_40_n03792782_3705.png
subject-01,1,796,0.692846059799194,cat,cat,bw,0796_cl_s01_bw_cat_40_n02123597_9939.png
subject-01,1,797,0.600461006164551,keyboard,oven,bw,0797_cl_s01_bw_oven_40_n04111531_8263.png
subject-01,1,798,0.944164991378784,truck,truck,bw,0798_cl_s01_bw_truck_40_n03417042_5229.png
subject-01,1,799,0.646034002304077,bottle,bottle,cr,0799_cl_s01_cr_bottle_40_n04560804_545.png
subject-01,1,800,0.691776037216187,keyboard,knife,bw,0800_cl_s01_bw_knife_40_n03041632_85488.png
subject-01,1,801,0.607072830200195,oven,oven,cr,0801_cl_s01_cr_oven_40_n04111531_18430.png
subject-01,1,802,0.623085021972656,boat,boat,cr,0802_cl_s01_cr_boat_40_n02951358_34003.png
subject-01,1,803,0.940887928009033,dog,dog,cr,0803_cl_s01_cr_dog_40_n02110958_2175.png
subject-01,1,804,0.76860499382019,cat,cat,bw,0804_cl_s01_bw_cat_40_n02123597_5298.png
subject-01,1,805,0.540336132049561,oven,oven,cr,0805_cl_s01_cr_oven_40_n04111531_20914.png
subject-01,1,806,0.634204149246216,car,car,cr,0806_cl_s01_cr_car_40_n02814533_76817.png
subject-01,1,807,0.6700758934021,airplane,airplane,cr,0807_cl_s01_cr_airplane_40_n02690373_8650.png
subject-01,1,808,0.714260101318359,oven,oven,bw,0808_cl_s01_bw_oven_40_n04111531_3575.png
subject-01,1,809,0.881638050079346,knife,knife,cr,0809_cl_s01_cr_knife_40_n03041632_49570.png
subject-01,1,810,0.6855149269104,bear,bear,cr,0810_cl_s01_cr_bear_40_n02133161_3988.png
subject-01,1,811,0.599287986755371,keyboard,keyboard,bw,0811_cl_s01_bw_keyboard_40_n04505470_1903.png
subject-01,1,812,0.765106916427612,chair,chair,cr,0812_cl_s01_cr_chair_40_n04099969_13948.png
subject-01,1,813,0.716871976852417,car,car,bw,0813_cl_s01_bw_car_40_n04285008_2750.png
subject-01,1,814,0.820672988891602,knife,knife,bw,0814_cl_s01_bw_knife_40_n03041632_11186.png
subject-01,1,815,0.746556997299194,cat,cat,bw,0815_cl_s01_bw_cat_40_n02125311_46330.png
subject-01,1,816,0.942516088485718,keyboard,clock,cr,0816_cl_s01_cr_clock_40_n04548280_4637.png
subject-01,1,817,0.830200910568237,airplane,airplane,cr,0817_cl_s01_cr_airplane_40_n02690373_9086.png
subject-01,1,818,0.751986980438232,knife,knife,bw,0818_cl_s01_bw_knife_40_n03041632_16172.png
subject-01,1,819,0.75794506072998,elephant,elephant,cr,0819_cl_s01_cr_elephant_40_n02504458_4554.png
subject-01,1,820,0.743767976760864,bear,bear,bw,0820_cl_s01_bw_bear_40_n02132136_2463.png
subject-01,1,821,0.815586090087891,knife,chair,bw,0821_cl_s01_bw_chair_40_n02791124_2813.png
subject-01,1,822,0.687088012695312,boat,boat,cr,0822_cl_s01_cr_boat_40_n03662601_8216.png
subject-01,1,823,0.667107105255127,airplane,airplane,bw,0823_cl_s01_bw_airplane_40_n02690373_7748.png
subject-01,1,824,0.785043954849243,elephant,elephant,bw,0824_cl_s01_bw_elephant_40_n02504013_2770.png
subject-01,1,825,0.882871150970459,dog,dog,bw,0825_cl_s01_bw_dog_40_n02102973_5217.png
subject-01,1,826,0.892746925354004,keyboard,keyboard,bw,0826_cl_s01_bw_keyboard_40_n04505470_4549.png
subject-01,1,827,0.756422996520996,keyboard,keyboard,bw,0827_cl_s01_bw_keyboard_40_n04505470_3065.png
subject-01,1,828,0.804349899291992,car,car,bw,0828_cl_s01_bw_car_40_n02814533_85368.png
subject-01,1,829,1.04998707771301,bear,cat,bw,0829_cl_s01_bw_cat_40_n02125311_5300.png
subject-01,1,830,0.819798946380615,car,car,bw,0830_cl_s01_bw_car_40_n02814533_45935.png
subject-01,1,831,0.663699150085449,oven,keyboard,bw,0831_cl_s01_bw_keyboard_40_n03085013_7613.png
subject-01,1,832,0.569605112075806,clock,clock,bw,0832_cl_s01_bw_clock_40_n02708093_394.png
subject-01,1,833,0.69159984588623,boat,boat,bw,0833_cl_s01_bw_boat_40_n02951358_34662.png
subject-01,1,834,0.744914054870605,knife,knife,bw,0834_cl_s01_bw_knife_40_n03041632_11327.png
subject-01,1,835,0.809123992919922,dog,dog,bw,0835_cl_s01_bw_dog_40_n02091032_1035.png
subject-01,1,836,0.99879002571106,car,car,cr,0836_cl_s01_cr_car_40_n02814533_6233.png
subject-01,1,837,0.708397150039673,bicycle,bicycle,bw,0837_cl_s01_bw_bicycle_40_n02835271_5602.png
subject-01,1,838,0.696396827697754,boat,boat,bw,0838_cl_s01_bw_boat_40_n02951358_32698.png
subject-01,1,839,0.782403945922852,knife,knife,cr,0839_cl_s01_cr_knife_40_n03041632_44212.png
subject-01,1,840,0.767937898635864,elephant,elephant,bw,0840_cl_s01_bw_elephant_40_n02504013_1560.png
subject-01,1,841,0.799812078475952,knife,knife,bw,0841_cl_s01_bw_knife_40_n03041632_4808.png
subject-01,1,842,0.679504871368408,chair,chair,cr,0842_cl_s01_cr_chair_40_n02791124_1239.png
subject-01,1,843,0.657624959945679,bicycle,bicycle,bw,0843_cl_s01_bw_bicycle_40_n02835271_11332.png
subject-01,1,844,0.705009937286377,elephant,elephant,bw,0844_cl_s01_bw_elephant_40_n02504458_6130.png
subject-01,1,845,0.876883029937744,keyboard,keyboard,bw,0845_cl_s01_bw_keyboard_40_n04505470_713.png
subject-01,1,846,0.72109317779541,bottle,bottle,cr,0846_cl_s01_cr_bottle_40_n03937543_2469.png
subject-01,1,847,0.672559976577759,boat,boat,cr,0847_cl_s01_cr_boat_40_n03344393_9732.png
subject-01,1,848,0.628423929214478,clock,clock,cr,0848_cl_s01_cr_clock_40_n02708093_2394.png
subject-01,1,849,1.36420392990112,knife,knife,cr,0849_cl_s01_cr_knife_40_n03041632_7173.png
subject-01,1,850,0.74817419052124,airplane,airplane,bw,0850_cl_s01_bw_airplane_40_n02690373_18936.png
subject-01,1,851,0.950017929077148,cat,oven,bw,0851_cl_s01_bw_oven_40_n04111531_978.png
subject-01,1,852,0.865777969360352,bicycle,bicycle,bw,0852_cl_s01_bw_bicycle_40_n03792782_710.png
subject-01,1,853,0.749385118484497,dog,dog,cr,0853_cl_s01_cr_dog_40_n02097298_4393.png
subject-01,1,854,0.797260046005249,airplane,airplane,bw,0854_cl_s01_bw_airplane_40_n02690373_4107.png
subject-01,1,855,0.625184059143066,keyboard,keyboard,cr,0855_cl_s01_cr_keyboard_40_n04505470_4385.png
subject-01,1,856,0.696902990341187,bottle,bottle,bw,0856_cl_s01_bw_bottle_40_n03983396_8684.png
subject-01,1,857,0.714606046676636,bird,bird,cr,0857_cl_s01_cr_bird_40_n02056570_6364.png
subject-01,1,858,0.768420934677124,bear,bear,bw,0858_cl_s01_bw_bear_40_n02133161_13267.png
subject-01,1,859,0.966349124908447,boat,boat,cr,0859_cl_s01_cr_boat_40_n03344393_2408.png
subject-01,1,860,0.662265062332153,car,car,cr,0860_cl_s01_cr_car_40_n03100240_12146.png
subject-01,1,861,0.831907033920288,bird,bird,bw,0861_cl_s01_bw_bird_40_n01534433_8318.png
subject-01,1,862,0.76009202003479,cat,cat,cr,0862_cl_s01_cr_cat_40_n02124075_9206.png
subject-01,1,863,0.671485900878906,chair,chair,bw,0863_cl_s01_bw_chair_40_n04099969_22572.png
subject-01,1,864,0.593498945236206,car,car,bw,0864_cl_s01_bw_car_40_n04285008_658.png
subject-01,1,865,1.05521512031555,knife,knife,cr,0865_cl_s01_cr_knife_40_n03041632_51256.png
subject-01,1,866,1.50015497207642,car,dog,bw,0866_cl_s01_bw_dog_40_n02093256_3792.png
subject-01,1,867,0.689132928848267,car,car,cr,0867_cl_s01_cr_car_40_n03100240_5121.png
subject-01,1,868,0.698450803756714,chair,chair,bw,0868_cl_s01_bw_chair_40_n03376595_1766.png
subject-01,1,869,0.778522968292236,elephant,elephant,cr,0869_cl_s01_cr_elephant_40_n02504013_4038.png
subject-01,1,870,0.738718032836914,elephant,elephant,cr,0870_cl_s01_cr_elephant_40_n02504458_169.png
subject-01,1,871,0.842135906219482,airplane,airplane,cr,0871_cl_s01_cr_airplane_40_n02690373_5342.png
subject-01,1,872,0.809795141220093,bicycle,bicycle,cr,0872_cl_s01_cr_bicycle_40_n02835271_13023.png
subject-01,1,873,1.13779902458191,bird,bird,cr,0873_cl_s01_cr_bird_40_n01797886_6946.png
subject-01,1,874,0.599568128585815,airplane,airplane,bw,0874_cl_s01_bw_airplane_40_n02690373_9619.png
subject-01,1,875,0.833357095718384,boat,boat,cr,0875_cl_s01_cr_boat_40_n03344393_5017.png
subject-01,1,876,0.619174957275391,elephant,elephant,cr,0876_cl_s01_cr_elephant_40_n02504458_694.png
subject-01,1,877,0.660864114761353,bear,bear,bw,0877_cl_s01_bw_bear_40_n02134084_21413.png
subject-01,1,878,0.616641044616699,airplane,airplane,cr,0878_cl_s01_cr_airplane_40_n02690373_5142.png
subject-01,1,879,0.704861879348755,airplane,airplane,bw,0879_cl_s01_bw_airplane_40_n02690373_4233.png
subject-01,1,880,0.724364995956421,bird,bird,bw,0880_cl_s01_bw_bird_40_n01558993_6287.png
subject-01,1,881,0.60425877571106,bicycle,bicycle,cr,0881_cl_s01_cr_bicycle_40_n03792782_18343.png
subject-01,1,882,0.896067142486572,airplane,airplane,cr,0882_cl_s01_cr_airplane_40_n02690373_3859.png
subject-01,1,883,0.655904054641724,boat,boat,cr,0883_cl_s01_cr_boat_40_n04273569_17983.png
subject-01,1,884,0.561549186706543,keyboard,keyboard,bw,0884_cl_s01_bw_keyboard_40_n04505470_4856.png
subject-01,1,885,0.681551218032837,bottle,bottle,bw,0885_cl_s01_bw_bottle_40_n02823428_1678.png
subject-01,1,886,0.647272109985352,bird,bird,cr,0886_cl_s01_cr_bird_40_n02025239_6030.png
subject-01,1,887,0.560955047607422,bicycle,knife,cr,0887_cl_s01_cr_knife_40_n03041632_28201.png
subject-01,1,888,0.74298095703125,elephant,elephant,cr,0888_cl_s01_cr_elephant_40_n02504458_481.png
subject-01,1,889,0.658578872680664,bicycle,bicycle,bw,0889_cl_s01_bw_bicycle_40_n03792782_4102.png
subject-01,1,890,0.728612899780273,truck,truck,bw,0890_cl_s01_bw_truck_40_n03417042_22513.png
subject-01,1,891,0.612160921096802,bird,bird,bw,0891_cl_s01_bw_bird_40_n02006656_6733.png
subject-01,1,892,0.848322153091431,chair,chair,cr,0892_cl_s01_cr_chair_40_n03376595_9813.png
subject-01,1,893,0.713883876800537,elephant,elephant,bw,0893_cl_s01_bw_elephant_40_n02504013_53.png
subject-01,1,894,0.78571605682373,dog,dog,bw,0894_cl_s01_bw_dog_40_n02092002_10760.png
subject-01,1,895,0.753295183181763,dog,dog,cr,0895_cl_s01_cr_dog_40_n02106662_9600.png
subject-01,1,896,0.691365957260132,bottle,bottle,bw,0896_cl_s01_bw_bottle_40_n04557648_2523.png
subject-01,1,897,0.643122911453247,knife,knife,bw,0897_cl_s01_bw_knife_40_n03041632_27575.png
subject-01,1,898,0.646896123886108,airplane,airplane,bw,0898_cl_s01_bw_airplane_40_n02690373_2514.png
subject-01,1,899,0.816813945770264,bicycle,bicycle,bw,0899_cl_s01_bw_bicycle_40_n03792782_818.png
subject-01,1,900,0.736490964889526,clock,clock,cr,0900_cl_s01_cr_clock_40_n02708093_57.png
subject-01,1,901,0.576397895812988,oven,oven,bw,0901_cl_s01_bw_oven_40_n04111531_4407.png
subject-01,1,902,0.762431859970093,bicycle,bicycle,bw,0902_cl_s01_bw_bicycle_40_n03792782_67333.png
subject-01,1,903,0.754077911376953,bear,bear,cr,0903_cl_s01_cr_bear_40_n02134084_13339.png
subject-01,1,904,0.873831987380981,bear,bear,cr,0904_cl_s01_cr_bear_40_n02133161_574.png
subject-01,1,905,0.607666015625,bottle,bottle,cr,0905_cl_s01_cr_bottle_40_n04557648_2122.png
subject-01,1,906,0.739457130432129,elephant,elephant,bw,0906_cl_s01_bw_elephant_40_n02504458_4570.png
subject-01,1,907,0.647386789321899,knife,knife,bw,0907_cl_s01_bw_knife_40_n03041632_32337.png
subject-01,1,908,0.633250951766968,truck,truck,cr,0908_cl_s01_cr_truck_40_n04467665_11299.png
subject-01,1,909,1.00291204452515,oven,chair,cr,0909_cl_s01_cr_chair_40_n03376595_1135.png
subject-01,1,910,0.879072904586792,truck,truck,bw,0910_cl_s01_bw_truck_40_n03796401_713.png
subject-01,1,911,0.722593069076538,cat,keyboard,cr,0911_cl_s01_cr_keyboard_40_n03085013_20398.png
subject-01,1,912,0.646662950515747,bottle,bottle,cr,0912_cl_s01_cr_bottle_40_n03983396_2053.png
subject-01,1,913,0.638286828994751,cat,cat,bw,0913_cl_s01_bw_cat_40_n02123159_6041.png
subject-01,1,914,0.716020107269287,dog,dog,bw,0914_cl_s01_bw_dog_40_n02090721_4088.png
subject-01,1,915,0.8556969165802,bear,bear,cr,0915_cl_s01_cr_bear_40_n02134084_868.png
subject-01,1,916,0.647956132888794,oven,chair,bw,0916_cl_s01_bw_chair_40_n04429376_9121.png
subject-01,1,917,0.665515899658203,bottle,bottle,cr,0917_cl_s01_cr_bottle_40_n04560804_10184.png
subject-01,1,918,0.7171471118927,knife,knife,cr,0918_cl_s01_cr_knife_40_n03041632_13478.png
subject-01,1,919,0.819198846817017,bicycle,bicycle,cr,0919_cl_s01_cr_bicycle_40_n02835271_2753.png
subject-01,1,920,0.777153015136719,airplane,airplane,bw,0920_cl_s01_bw_airplane_40_n02690373_2750.png
subject-01,1,921,1.20294117927551,keyboard,clock,bw,0921_cl_s01_bw_clock_40_n03196217_5165.png
subject-01,1,922,0.780584096908569,bottle,bottle,cr,0922_cl_s01_cr_bottle_40_n03937543_1231.png
subject-01,1,923,0.816674947738647,elephant,elephant,bw,0923_cl_s01_bw_elephant_40_n02504458_5972.png
subject-01,1,924,0.744189023971558,bottle,bottle,cr,0924_cl_s01_cr_bottle_40_n03937543_5322.png
subject-01,1,925,0.730108022689819,truck,truck,cr,0925_cl_s01_cr_truck_40_n04467665_9123.png
subject-01,1,926,0.563859939575195,oven,oven,cr,0926_cl_s01_cr_oven_40_n04111531_8687.png
subject-01,1,927,0.707561016082764,bicycle,bicycle,cr,0927_cl_s01_cr_bicycle_40_n03792782_85.png
subject-01,1,928,0.809449911117554,truck,truck,cr,0928_cl_s01_cr_truck_40_n04467665_55848.png
subject-01,1,929,0.723191976547241,chair,chair,bw,0929_cl_s01_bw_chair_40_n04099969_8934.png
subject-01,1,930,0.795371055603027,airplane,airplane,cr,0930_cl_s01_cr_airplane_40_n02690373_2293.png
subject-01,1,931,0.716816902160645,boat,boat,cr,0931_cl_s01_cr_boat_40_n03344393_8625.png
subject-01,1,932,0.866385936737061,cat,cat,cr,0932_cl_s01_cr_cat_40_n02123394_686.png
subject-01,1,933,1.26252412796021,bear,bear,bw,0933_cl_s01_bw_bear_40_n02132136_22313.png
subject-01,1,934,0.622168064117432,bottle,bottle,bw,0934_cl_s01_bw_bottle_40_n04560804_10989.png
subject-01,1,935,0.629989862442017,oven,oven,bw,0935_cl_s01_bw_oven_40_n04111531_11868.png
subject-01,1,936,0.586029052734375,oven,oven,bw,0936_cl_s01_bw_oven_40_n04111531_4012.png
subject-01,1,937,0.667607069015503,bicycle,bicycle,bw,0937_cl_s01_bw_bicycle_40_n02835271_8529.png
subject-01,1,938,0.733469009399414,keyboard,keyboard,cr,0938_cl_s01_cr_keyboard_40_n04505470_4906.png
subject-01,1,939,0.925098180770874,airplane,airplane,cr,0939_cl_s01_cr_airplane_40_n02690373_7387.png
subject-01,1,940,0.572965145111084,car,car,cr,0940_cl_s01_cr_car_40_n04285008_901.png
subject-01,1,941,0.65488600730896,chair,chair,bw,0941_cl_s01_bw_chair_40_n03376595_8140.png
subject-01,1,942,0.768941879272461,elephant,elephant,bw,0942_cl_s01_bw_elephant_40_n02504458_7133.png
subject-01,1,943,0.642503023147583,bird,bird,cr,0943_cl_s01_cr_bird_40_n01860187_1258.png
subject-01,1,944,0.650231838226318,dog,dog,cr,0944_cl_s01_cr_dog_40_n02097658_16.png
subject-01,1,945,1.006108045578,truck,truck,bw,0945_cl_s01_bw_truck_40_n03417042_16871.png
subject-01,1,946,0.632029056549072,keyboard,keyboard,bw,0946_cl_s01_bw_keyboard_40_n04505470_3957.png
subject-01,1,947,0.749704837799072,chair,chair,cr,0947_cl_s01_cr_chair_40_n04429376_16081.png
subject-01,1,948,0.975911140441895,car,car,bw,0948_cl_s01_bw_car_40_n04285008_4749.png
subject-01,1,949,0.663259983062744,airplane,airplane,bw,0949_cl_s01_bw_airplane_40_n02690373_4727.png
subject-01,1,950,0.791043043136597,knife,knife,bw,0950_cl_s01_bw_knife_40_n03041632_4214.png
subject-01,1,951,0.556954860687256,bird,bird,bw,0951_cl_s01_bw_bird_40_n02027492_9786.png
subject-01,1,952,0.668874979019165,airplane,airplane,bw,0952_cl_s01_bw_airplane_40_n02690373_4269.png
subject-01,1,953,0.738707065582275,bear,bear,bw,0953_cl_s01_bw_bear_40_n02132136_1644.png
subject-01,1,954,0.68648886680603,bird,bird,bw,0954_cl_s01_bw_bird_40_n02025239_7746.png
subject-01,1,955,0.752574920654297,clock,clock,bw,0955_cl_s01_bw_clock_40_n04548280_21263.png
subject-01,1,956,0.836292028427124,dog,dog,cr,0956_cl_s01_cr_dog_40_n02099849_8726.png
subject-01,1,957,0.746219158172607,bird,bird,bw,0957_cl_s01_bw_bird_40_n01532829_15048.png
subject-01,1,958,0.773787021636963,bear,bear,cr,0958_cl_s01_cr_bear_40_n02134084_16163.png
subject-01,1,959,0.657580137252808,bicycle,bicycle,cr,0959_cl_s01_cr_bicycle_40_n02835271_4434.png
subject-01,1,960,0.713235855102539,keyboard,keyboard,cr,0960_cl_s01_cr_keyboard_40_n03085013_1797.png
subject-01,1,961,0.701303958892822,knife,knife,cr,0961_cl_s01_cr_knife_40_n03041632_992.png
subject-01,1,962,0.631318092346191,dog,dog,cr,0962_cl_s01_cr_dog_40_n02108551_7534.png
subject-01,1,963,0.490805864334106,bicycle,bicycle,bw,0963_cl_s01_bw_bicycle_40_n03792782_9412.png
subject-01,1,964,0.58449912071228,car,car,cr,0964_cl_s01_cr_car_40_n02814533_11051.png
subject-01,1,965,0.664793968200684,oven,oven,bw,0965_cl_s01_bw_oven_40_n04111531_8963.png
subject-01,1,966,0.588253974914551,clock,clock,cr,0966_cl_s01_cr_clock_40_n02708093_6610.png
subject-01,1,967,0.803859949111938,dog,dog,bw,0967_cl_s01_bw_dog_40_n02095570_513.png
subject-01,1,968,0.765727043151855,bottle,bottle,bw,0968_cl_s01_bw_bottle_40_n04557648_9898.png
subject-01,1,969,0.653616905212402,cat,cat,bw,0969_cl_s01_bw_cat_40_n02123394_4877.png
subject-01,1,970,0.545562982559204,oven,oven,cr,0970_cl_s01_cr_oven_40_n04111531_6412.png
subject-01,1,971,0.563210964202881,oven,oven,bw,0971_cl_s01_bw_oven_40_n04111531_887.png
subject-01,1,972,0.943193197250366,oven,oven,bw,0972_cl_s01_bw_oven_40_n04111531_19000.png
subject-01,1,973,0.600908994674683,clock,clock,cr,0973_cl_s01_cr_clock_40_n03196217_4821.png
subject-01,1,974,0.652806997299194,cat,cat,bw,0974_cl_s01_bw_cat_40_n02123159_7638.png
subject-01,1,975,1.08252596855164,bottle,bottle,cr,0975_cl_s01_cr_bottle_40_n03937543_1486.png
subject-01,1,976,0.628345966339111,keyboard,keyboard,bw,0976_cl_s01_bw_keyboard_40_n03085013_23648.png
subject-01,1,977,0.654682874679565,bird,bird,cr,0977_cl_s01_cr_bird_40_n01819313_6430.png
subject-01,1,978,0.71613597869873,keyboard,keyboard,bw,0978_cl_s01_bw_keyboard_40_n03085013_20843.png
subject-01,1,979,0.879855871200562,chair,chair,cr,0979_cl_s01_cr_chair_40_n04429376_9432.png
subject-01,1,980,0.731495141983032,bicycle,bicycle,bw,0980_cl_s01_bw_bicycle_40_n03792782_5426.png
subject-01,1,981,0.67569899559021,bottle,bottle,bw,0981_cl_s01_bw_bottle_40_n02823428_10814.png
subject-01,1,982,0.757568120956421,dog,dog,cr,0982_cl_s01_cr_dog_40_n02109525_12602.png
subject-01,1,983,0.699143886566162,boat,boat,bw,0983_cl_s01_bw_boat_40_n02951358_863.png
subject-01,1,984,1.36881399154663,bicycle,bicycle,cr,0984_cl_s01_cr_bicycle_40_n02835271_6563.png
subject-01,1,985,0.924697160720825,oven,oven,cr,0985_cl_s01_cr_oven_40_n04111531_9455.png
subject-01,1,986,0.574445009231567,cat,cat,bw,0986_cl_s01_bw_cat_40_n02123394_4542.png
subject-01,1,987,0.724393844604492,bicycle,bicycle,cr,0987_cl_s01_cr_bicycle_40_n03792782_3342.png
subject-01,1,988,0.826087951660156,elephant,elephant,bw,0988_cl_s01_bw_elephant_40_n02504458_2471.png
subject-01,1,989,0.581837177276611,bear,bear,bw,0989_cl_s01_bw_bear_40_n02132136_1626.png
subject-01,1,990,0.749629974365234,car,car,bw,0990_cl_s01_bw_car_40_n04285008_14334.png
subject-01,1,991,0.595379114151001,cat,cat,bw,0991_cl_s01_bw_cat_40_n02123159_4353.png
subject-01,1,992,1.08116793632507,airplane,boat,bw,0992_cl_s01_bw_boat_40_n03662601_8709.png
subject-01,1,993,0.855047941207886,clock,clock,cr,0993_cl_s01_cr_clock_40_n02708093_3595.png
subject-01,1,994,0.667004823684692,elephant,elephant,cr,0994_cl_s01_cr_elephant_40_n02504458_3776.png
subject-01,1,995,0.682760953903198,elephant,elephant,cr,0995_cl_s01_cr_elephant_40_n02504013_7001.png
subject-01,1,996,1.0270369052887,bear,bear,cr,0996_cl_s01_cr_bear_40_n02133161_739.png
subject-01,1,997,0.888299942016602,elephant,elephant,cr,0997_cl_s01_cr_elephant_40_n02504013_8497.png
subject-01,1,998,0.788106918334961,bear,bear,cr,0998_cl_s01_cr_bear_40_n02134084_5822.png
subject-01,1,999,0.80635404586792,airplane,airplane,bw,0999_cl_s01_bw_airplane_40_n02690373_3054.png
subject-01,1,1000,0.681694030761719,bottle,bottle,cr,1000_cl_s01_cr_bottle_40_n04591713_2899.png
subject-01,1,1001,0.919708013534546,elephant,elephant,cr,1001_cl_s01_cr_elephant_40_n02504013_5014.png
subject-01,1,1002,0.731446981430054,keyboard,keyboard,bw,1002_cl_s01_bw_keyboard_40_n03085013_23789.png
subject-01,1,1003,0.70331597328186,clock,clock,cr,1003_cl_s01_cr_clock_40_n02708093_6696.png
subject-01,1,1004,0.603060960769653,chair,chair,cr,1004_cl_s01_cr_chair_40_n03376595_6570.png
subject-01,1,1005,0.722706079483032,airplane,airplane,cr,1005_cl_s01_cr_airplane_40_n02690373_1235.png
subject-01,1,1006,0.752768993377686,bear,bear,bw,1006_cl_s01_bw_bear_40_n02134418_496.png
subject-01,1,1007,0.754680156707764,elephant,elephant,bw,1007_cl_s01_bw_elephant_40_n02504458_6336.png
subject-01,1,1008,0.630224943161011,chair,chair,cr,1008_cl_s01_cr_chair_40_n04099969_7998.png
subject-01,1,1009,0.752058029174805,bottle,bottle,cr,1009_cl_s01_cr_bottle_40_n04591713_2879.png
subject-01,1,1010,0.930021047592163,airplane,airplane,cr,1010_cl_s01_cr_airplane_40_n02690373_4578.png
subject-01,1,1011,0.949769020080566,knife,knife,cr,1011_cl_s01_cr_knife_40_n03041632_9759.png
subject-01,1,1012,0.857620000839233,dog,dog,cr,1012_cl_s01_cr_dog_40_n02093991_434.png
subject-01,1,1013,0.789448976516724,chair,chair,bw,1013_cl_s01_bw_chair_40_n02791124_14.png
subject-01,1,1014,1.09929895401001,knife,oven,cr,1014_cl_s01_cr_oven_40_n04111531_12080.png
subject-01,1,1015,0.889025926589966,bird,bird,cr,1015_cl_s01_cr_bird_40_n02013706_9024.png
subject-01,1,1016,0.806888103485107,elephant,elephant,bw,1016_cl_s01_bw_elephant_40_n02504013_4071.png
subject-01,1,1017,0.612515926361084,truck,truck,bw,1017_cl_s01_bw_truck_40_n04467665_30683.png
subject-01,1,1018,0.65449595451355,oven,oven,cr,1018_cl_s01_cr_oven_40_n04111531_1220.png
subject-01,1,1019,0.756619930267334,bicycle,bicycle,cr,1019_cl_s01_cr_bicycle_40_n03792782_10281.png
subject-01,1,1020,0.746060848236084,dog,dog,cr,1020_cl_s01_cr_dog_40_n02113624_9189.png
subject-01,1,1021,1.06585907936096,truck,truck,bw,1021_cl_s01_bw_truck_40_n04467665_22573.png
subject-01,1,1022,0.687774896621704,keyboard,keyboard,bw,1022_cl_s01_bw_keyboard_40_n03085013_21956.png
subject-01,1,1023,0.615612030029297,chair,chair,cr,1023_cl_s01_cr_chair_40_n03376595_3169.png
subject-01,1,1024,0.819243192672729,truck,truck,cr,1024_cl_s01_cr_truck_40_n03417042_10283.png
subject-01,1,1025,0.563205003738403,bottle,bottle,bw,1025_cl_s01_bw_bottle_40_n03983396_3173.png
subject-01,1,1026,0.861020803451538,cat,cat,cr,1026_cl_s01_cr_cat_40_n02125311_4261.png
subject-01,1,1027,0.604815006256104,chair,chair,bw,1027_cl_s01_bw_chair_40_n04099969_24495.png
subject-01,1,1028,0.858542919158936,clock,clock,bw,1028_cl_s01_bw_clock_40_n02708093_3745.png
subject-01,1,1029,0.958499908447266,cat,bird,cr,1029_cl_s01_cr_bird_40_n02013706_2849.png
subject-01,1,1030,0.764188051223755,dog,dog,cr,1030_cl_s01_cr_dog_40_n02087394_7104.png
subject-01,1,1031,1.06244206428528,boat,boat,bw,1031_cl_s01_bw_boat_40_n03662601_34174.png
subject-01,1,1032,0.906112909317017,knife,knife,bw,1032_cl_s01_bw_knife_40_n03041632_3101.png
subject-01,1,1033,0.689715147018433,clock,clock,cr,1033_cl_s01_cr_clock_40_n02708093_7076.png
subject-01,1,1034,0.675573825836182,bottle,bottle,cr,1034_cl_s01_cr_bottle_40_n03983396_21043.png
subject-01,1,1035,0.807286024093628,bear,bear,bw,1035_cl_s01_bw_bear_40_n02134418_2324.png
subject-01,1,1036,0.769084215164185,boat,boat,cr,1036_cl_s01_cr_boat_40_n04273569_15892.png
subject-01,1,1037,0.780937910079956,bottle,bottle,bw,1037_cl_s01_bw_bottle_40_n03937543_9756.png
subject-01,1,1038,0.696667909622192,cat,cat,cr,1038_cl_s01_cr_cat_40_n02125311_8567.png
subject-01,1,1039,0.984439849853516,bear,bear,cr,1039_cl_s01_cr_bear_40_n02134418_1482.png
subject-01,1,1040,0.900260925292969,knife,knife,cr,1040_cl_s01_cr_knife_40_n03041632_17285.png
subject-01,1,1041,0.677818059921265,bird,bird,cr,1041_cl_s01_cr_bird_40_n01855672_7647.png
subject-01,1,1042,0.615473031997681,keyboard,keyboard,bw,1042_cl_s01_bw_keyboard_40_n04505470_4202.png
subject-01,1,1043,0.873157978057861,chair,chair,bw,1043_cl_s01_bw_chair_40_n04429376_14170.png
subject-01,1,1044,0.746973991394043,knife,knife,bw,1044_cl_s01_bw_knife_40_n03041632_10109.png
subject-01,1,1045,0.684828042984009,oven,oven,bw,1045_cl_s01_bw_oven_40_n04111531_12830.png
subject-01,1,1046,0.578603982925415,bottle,bottle,cr,1046_cl_s01_cr_bottle_40_n02823428_5813.png
subject-01,1,1047,0.69842791557312,keyboard,keyboard,cr,1047_cl_s01_cr_keyboard_40_n04505470_1518.png
subject-01,1,1048,0.784339904785156,chair,chair,cr,1048_cl_s01_cr_chair_40_n04429376_7181.png
subject-01,1,1049,0.84615683555603,car,car,cr,1049_cl_s01_cr_car_40_n03100240_1910.png
subject-01,1,1050,0.955888986587524,elephant,elephant,bw,1050_cl_s01_bw_elephant_40_n02504458_1961.png
subject-01,1,1051,0.785732984542847,elephant,elephant,bw,1051_cl_s01_bw_elephant_40_n02504458_5799.png
subject-01,1,1052,0.679971933364868,chair,chair,bw,1052_cl_s01_bw_chair_40_n03376595_6673.png
subject-01,1,1053,0.659180879592896,bird,bird,cr,1053_cl_s01_cr_bird_40_n01860187_285.png
subject-01,1,1054,0.581142902374268,airplane,airplane,cr,1054_cl_s01_cr_airplane_40_n02690373_6854.png
subject-01,1,1055,0.710983037948608,airplane,airplane,cr,1055_cl_s01_cr_airplane_40_n02690373_6845.png
subject-01,1,1056,0.586955070495605,chair,chair,bw,1056_cl_s01_bw_chair_40_n03376595_10266.png
subject-01,1,1057,0.580669164657593,airplane,airplane,cr,1057_cl_s01_cr_airplane_40_n02690373_8231.png
subject-01,1,1058,0.580428838729858,keyboard,keyboard,cr,1058_cl_s01_cr_keyboard_40_n03085013_17455.png
subject-01,1,1059,0.574512958526611,oven,oven,cr,1059_cl_s01_cr_oven_40_n04111531_8688.png
subject-01,1,1060,1.10001516342163,car,truck,cr,1060_cl_s01_cr_truck_40_n03796401_23711.png
subject-01,1,1061,0.959993839263916,truck,truck,bw,1061_cl_s01_bw_truck_40_n04467665_53635.png
subject-01,1,1062,0.783684968948364,car,car,bw,1062_cl_s01_bw_car_40_n02814533_45312.png
subject-01,1,1063,0.75946307182312,knife,knife,cr,1063_cl_s01_cr_knife_40_n03041632_29276.png
subject-01,1,1064,0.837234973907471,dog,dog,bw,1064_cl_s01_bw_dog_40_n02090721_464.png
subject-01,1,1065,0.723221778869629,airplane,airplane,cr,1065_cl_s01_cr_airplane_40_n02690373_7145.png
subject-01,1,1066,0.714937925338745,truck,truck,cr,1066_cl_s01_cr_truck_40_n03796401_17616.png
subject-01,1,1067,0.777169942855835,cat,knife,cr,1067_cl_s01_cr_knife_40_n03041632_27929.png
subject-01,1,1068,0.652655124664307,boat,boat,cr,1068_cl_s01_cr_boat_40_n03344393_661.png
subject-01,1,1069,0.6702880859375,knife,knife,bw,1069_cl_s01_bw_knife_40_n03041632_33739.png
subject-01,1,1070,0.73028302192688,keyboard,keyboard,bw,1070_cl_s01_bw_keyboard_40_n03085013_7440.png
