subj,session,trial,rt,object_response,category,condition,imagename
swag_vit_b16_in1k,1,1,NaN,oven,oven,1-10-10,0001_eid_dnn_1-10-10_oven_10_n04111531_17072.png
swag_vit_b16_in1k,1,2,NaN,boat,airplane,16-10-10,0002_eid_dnn_16-10-10_airplane_10_n02690373_4183.png
swag_vit_b16_in1k,1,3,NaN,airplane,car,8-10-10,0003_eid_dnn_8-10-10_car_10_n03100240_1137.png
swag_vit_b16_in1k,1,4,NaN,clock,clock,2-10-10,0004_eid_dnn_2-10-10_clock_10_n04548280_7083.png
swag_vit_b16_in1k,1,5,NaN,bottle,bottle,2-10-10,0005_eid_dnn_2-10-10_bottle_10_n02823428_7810.png
swag_vit_b16_in1k,1,6,NaN,bear,dog,128-10-10,0006_eid_dnn_128-10-10_dog_10_n02091244_8368.png
swag_vit_b16_in1k,1,7,NaN,bicycle,bicycle,1-10-10,0007_eid_dnn_1-10-10_bicycle_10_n02835271_2930.png
swag_vit_b16_in1k,1,8,NaN,knife,knife,4-10-10,0008_eid_dnn_4-10-10_knife_10_n03041632_52848.png
swag_vit_b16_in1k,1,9,NaN,bottle,bottle,2-10-10,0009_eid_dnn_2-10-10_bottle_10_n02823428_4097.png
swag_vit_b16_in1k,1,10,NaN,dog,dog,8-10-10,0010_eid_dnn_8-10-10_dog_10_n02105641_10264.png
swag_vit_b16_in1k,1,11,NaN,boat,boat,8-10-10,0011_eid_dnn_8-10-10_boat_10_n03662601_10278.png
swag_vit_b16_in1k,1,12,NaN,boat,truck,32-10-10,0012_eid_dnn_32-10-10_truck_10_n04467665_76958.png
swag_vit_b16_in1k,1,13,NaN,cat,dog,16-10-10,0013_eid_dnn_16-10-10_dog_10_n02088238_12552.png
swag_vit_b16_in1k,1,14,NaN,knife,dog,8-10-10,0014_eid_dnn_8-10-10_dog_10_n02102040_994.png
swag_vit_b16_in1k,1,15,NaN,clock,bear,128-10-10,0015_eid_dnn_128-10-10_bear_10_n02133161_1944.png
swag_vit_b16_in1k,1,16,NaN,clock,car,16-10-10,0016_eid_dnn_16-10-10_car_10_n02814533_43040.png
swag_vit_b16_in1k,1,17,NaN,bear,oven,128-10-10,0017_eid_dnn_128-10-10_oven_10_n04111531_18592.png
swag_vit_b16_in1k,1,18,NaN,clock,chair,16-10-10,0018_eid_dnn_16-10-10_chair_10_n02791124_4294.png
swag_vit_b16_in1k,1,19,NaN,knife,knife,32-10-10,0019_eid_dnn_32-10-10_knife_10_n03041632_2630.png
swag_vit_b16_in1k,1,20,NaN,elephant,elephant,1-10-10,0020_eid_dnn_1-10-10_elephant_10_n02504458_723.png
swag_vit_b16_in1k,1,21,NaN,chair,chair,4-10-10,0021_eid_dnn_4-10-10_chair_10_n03376595_6107.png
swag_vit_b16_in1k,1,22,NaN,knife,clock,32-10-10,0022_eid_dnn_32-10-10_clock_10_n03196217_1337.png
swag_vit_b16_in1k,1,23,NaN,bear,boat,128-10-10,0023_eid_dnn_128-10-10_boat_10_n02951358_9550.png
swag_vit_b16_in1k,1,24,NaN,clock,bird,128-10-10,0024_eid_dnn_128-10-10_bird_10_n01616318_2334.png
swag_vit_b16_in1k,1,25,NaN,bottle,bottle,32-10-10,0025_eid_dnn_32-10-10_bottle_10_n03937543_1658.png
swag_vit_b16_in1k,1,26,NaN,elephant,elephant,2-10-10,0026_eid_dnn_2-10-10_elephant_10_n02504013_6731.png
swag_vit_b16_in1k,1,27,NaN,keyboard,keyboard,4-10-10,0027_eid_dnn_4-10-10_keyboard_10_n04505470_4447.png
swag_vit_b16_in1k,1,28,NaN,airplane,airplane,1-10-10,0028_eid_dnn_1-10-10_airplane_10_n02690373_4839.png
swag_vit_b16_in1k,1,29,NaN,cat,keyboard,64-10-10,0029_eid_dnn_64-10-10_keyboard_10_n04505470_1651.png
swag_vit_b16_in1k,1,30,NaN,knife,keyboard,32-10-10,0030_eid_dnn_32-10-10_keyboard_10_n03085013_20601.png
swag_vit_b16_in1k,1,31,NaN,clock,airplane,64-10-10,0031_eid_dnn_64-10-10_airplane_10_n02690373_2217.png
swag_vit_b16_in1k,1,32,NaN,bicycle,bicycle,4-10-10,0032_eid_dnn_4-10-10_bicycle_10_n03792782_25019.png
swag_vit_b16_in1k,1,33,NaN,cat,cat,8-10-10,0033_eid_dnn_8-10-10_cat_10_n02123597_13890.png
swag_vit_b16_in1k,1,34,NaN,boat,boat,1-10-10,0034_eid_dnn_1-10-10_boat_10_n04612504_214.png
swag_vit_b16_in1k,1,35,NaN,knife,chair,128-10-10,0035_eid_dnn_128-10-10_chair_10_n02791124_2555.png
swag_vit_b16_in1k,1,36,NaN,car,car,4-10-10,0036_eid_dnn_4-10-10_car_10_n04285008_2081.png
swag_vit_b16_in1k,1,37,NaN,bear,dog,32-10-10,0037_eid_dnn_32-10-10_dog_10_n02094114_8202.png
swag_vit_b16_in1k,1,38,NaN,boat,chair,64-10-10,0038_eid_dnn_64-10-10_chair_10_n04099969_4541.png
swag_vit_b16_in1k,1,39,NaN,knife,boat,128-10-10,0039_eid_dnn_128-10-10_boat_10_n04612504_12864.png
swag_vit_b16_in1k,1,40,NaN,airplane,airplane,4-10-10,0040_eid_dnn_4-10-10_airplane_10_n02690373_18460.png
swag_vit_b16_in1k,1,41,NaN,bear,bottle,64-10-10,0041_eid_dnn_64-10-10_bottle_10_n03983396_8982.png
swag_vit_b16_in1k,1,42,NaN,airplane,dog,16-10-10,0042_eid_dnn_16-10-10_dog_10_n02099601_10407.png
swag_vit_b16_in1k,1,43,NaN,truck,airplane,32-10-10,0043_eid_dnn_32-10-10_airplane_10_n02690373_5253.png
swag_vit_b16_in1k,1,44,NaN,elephant,elephant,2-10-10,0044_eid_dnn_2-10-10_elephant_10_n02504013_2832.png
swag_vit_b16_in1k,1,45,NaN,clock,clock,1-10-10,0045_eid_dnn_1-10-10_clock_10_n02708093_8002.png
swag_vit_b16_in1k,1,46,NaN,chair,chair,2-10-10,0046_eid_dnn_2-10-10_chair_10_n03376595_1766.png
swag_vit_b16_in1k,1,47,NaN,truck,truck,2-10-10,0047_eid_dnn_2-10-10_truck_10_n03417042_17616.png
swag_vit_b16_in1k,1,48,NaN,airplane,bear,16-10-10,0048_eid_dnn_16-10-10_bear_10_n02134418_2804.png
swag_vit_b16_in1k,1,49,NaN,knife,car,64-10-10,0049_eid_dnn_64-10-10_car_10_n04285008_12101.png
swag_vit_b16_in1k,1,50,NaN,bear,bear,16-10-10,0050_eid_dnn_16-10-10_bear_10_n02134418_3828.png
swag_vit_b16_in1k,1,51,NaN,bird,bird,2-10-10,0051_eid_dnn_2-10-10_bird_10_n01530575_5747.png
swag_vit_b16_in1k,1,52,NaN,bear,truck,128-10-10,0052_eid_dnn_128-10-10_truck_10_n03796401_3386.png
swag_vit_b16_in1k,1,53,NaN,keyboard,keyboard,16-10-10,0053_eid_dnn_16-10-10_keyboard_10_n04505470_3234.png
swag_vit_b16_in1k,1,54,NaN,truck,truck,1-10-10,0054_eid_dnn_1-10-10_truck_10_n04467665_72639.png
swag_vit_b16_in1k,1,55,NaN,bear,chair,32-10-10,0055_eid_dnn_32-10-10_chair_10_n04429376_27524.png
swag_vit_b16_in1k,1,56,NaN,bear,bottle,64-10-10,0056_eid_dnn_64-10-10_bottle_10_n04557648_11440.png
swag_vit_b16_in1k,1,57,NaN,knife,keyboard,32-10-10,0057_eid_dnn_32-10-10_keyboard_10_n03085013_20216.png
swag_vit_b16_in1k,1,58,NaN,dog,boat,8-10-10,0058_eid_dnn_8-10-10_boat_10_n02951358_34653.png
swag_vit_b16_in1k,1,59,NaN,keyboard,keyboard,2-10-10,0059_eid_dnn_2-10-10_keyboard_10_n03085013_8932.png
swag_vit_b16_in1k,1,60,NaN,cat,cat,1-10-10,0060_eid_dnn_1-10-10_cat_10_n02125311_35338.png
swag_vit_b16_in1k,1,61,NaN,clock,bicycle,16-10-10,0061_eid_dnn_16-10-10_bicycle_10_n03792782_5449.png
swag_vit_b16_in1k,1,62,NaN,bicycle,bicycle,4-10-10,0062_eid_dnn_4-10-10_bicycle_10_n03792782_9432.png
swag_vit_b16_in1k,1,63,NaN,bottle,bottle,1-10-10,0063_eid_dnn_1-10-10_bottle_10_n04591713_4291.png
swag_vit_b16_in1k,1,64,NaN,truck,truck,4-10-10,0064_eid_dnn_4-10-10_truck_10_n04467665_67057.png
swag_vit_b16_in1k,1,65,NaN,keyboard,keyboard,1-10-10,0065_eid_dnn_1-10-10_keyboard_10_n03085013_22790.png
swag_vit_b16_in1k,1,66,NaN,dog,dog,4-10-10,0066_eid_dnn_4-10-10_dog_10_n02086079_2896.png
swag_vit_b16_in1k,1,67,NaN,boat,knife,8-10-10,0067_eid_dnn_8-10-10_knife_10_n03041632_40508.png
swag_vit_b16_in1k,1,68,NaN,boat,boat,1-10-10,0068_eid_dnn_1-10-10_boat_10_n03344393_7942.png
swag_vit_b16_in1k,1,69,NaN,bear,bear,2-10-10,0069_eid_dnn_2-10-10_bear_10_n02134418_4352.png
swag_vit_b16_in1k,1,70,NaN,dog,cat,16-10-10,0070_eid_dnn_16-10-10_cat_10_n02123045_5157.png
swag_vit_b16_in1k,1,71,NaN,airplane,dog,16-10-10,0071_eid_dnn_16-10-10_dog_10_n02109047_14287.png
swag_vit_b16_in1k,1,72,NaN,truck,truck,2-10-10,0072_eid_dnn_2-10-10_truck_10_n03417042_14274.png
swag_vit_b16_in1k,1,73,NaN,airplane,airplane,2-10-10,0073_eid_dnn_2-10-10_airplane_10_n02690373_5885.png
swag_vit_b16_in1k,1,74,NaN,cat,cat,32-10-10,0074_eid_dnn_32-10-10_cat_10_n02123394_571.png
swag_vit_b16_in1k,1,75,NaN,clock,cat,32-10-10,0075_eid_dnn_32-10-10_cat_10_n02123045_10171.png
swag_vit_b16_in1k,1,76,NaN,bottle,bottle,8-10-10,0076_eid_dnn_8-10-10_bottle_10_n04560804_4909.png
swag_vit_b16_in1k,1,77,NaN,keyboard,keyboard,8-10-10,0077_eid_dnn_8-10-10_keyboard_10_n03085013_7971.png
swag_vit_b16_in1k,1,78,NaN,keyboard,keyboard,16-10-10,0078_eid_dnn_16-10-10_keyboard_10_n03085013_21397.png
swag_vit_b16_in1k,1,79,NaN,airplane,elephant,32-10-10,0079_eid_dnn_32-10-10_elephant_10_n02504458_4187.png
swag_vit_b16_in1k,1,80,NaN,elephant,clock,8-10-10,0080_eid_dnn_8-10-10_clock_10_n03196217_6689.png
swag_vit_b16_in1k,1,81,NaN,knife,knife,4-10-10,0081_eid_dnn_4-10-10_knife_10_n03041632_26236.png
swag_vit_b16_in1k,1,82,NaN,clock,car,8-10-10,0082_eid_dnn_8-10-10_car_10_n03100240_1262.png
swag_vit_b16_in1k,1,83,NaN,bear,keyboard,64-10-10,0083_eid_dnn_64-10-10_keyboard_10_n04505470_5059.png
swag_vit_b16_in1k,1,84,NaN,bird,bird,1-10-10,0084_eid_dnn_1-10-10_bird_10_n01537544_26417.png
swag_vit_b16_in1k,1,85,NaN,airplane,bird,32-10-10,0085_eid_dnn_32-10-10_bird_10_n02009912_5714.png
swag_vit_b16_in1k,1,86,NaN,bear,chair,128-10-10,0086_eid_dnn_128-10-10_chair_10_n03376595_5972.png
swag_vit_b16_in1k,1,87,NaN,chair,chair,2-10-10,0087_eid_dnn_2-10-10_chair_10_n04429376_805.png
swag_vit_b16_in1k,1,88,NaN,cat,bicycle,128-10-10,0088_eid_dnn_128-10-10_bicycle_10_n03792782_4083.png
swag_vit_b16_in1k,1,89,NaN,clock,clock,1-10-10,0089_eid_dnn_1-10-10_clock_10_n02708093_798.png
swag_vit_b16_in1k,1,90,NaN,bear,bear,1-10-10,0090_eid_dnn_1-10-10_bear_10_n02133161_1660.png
swag_vit_b16_in1k,1,91,NaN,boat,car,8-10-10,0091_eid_dnn_8-10-10_car_10_n04285008_9464.png
swag_vit_b16_in1k,1,92,NaN,boat,oven,16-10-10,0092_eid_dnn_16-10-10_oven_10_n04111531_3314.png
swag_vit_b16_in1k,1,93,NaN,dog,cat,128-10-10,0093_eid_dnn_128-10-10_cat_10_n02123394_5753.png
swag_vit_b16_in1k,1,94,NaN,boat,boat,2-10-10,0094_eid_dnn_2-10-10_boat_10_n02951358_34042.png
swag_vit_b16_in1k,1,95,NaN,bear,truck,64-10-10,0095_eid_dnn_64-10-10_truck_10_n03417042_7588.png
swag_vit_b16_in1k,1,96,NaN,knife,truck,32-10-10,0096_eid_dnn_32-10-10_truck_10_n03417042_4200.png
swag_vit_b16_in1k,1,97,NaN,airplane,airplane,4-10-10,0097_eid_dnn_4-10-10_airplane_10_n02690373_4335.png
swag_vit_b16_in1k,1,98,NaN,dog,elephant,128-10-10,0098_eid_dnn_128-10-10_elephant_10_n02504458_6823.png
swag_vit_b16_in1k,1,99,NaN,boat,boat,4-10-10,0099_eid_dnn_4-10-10_boat_10_n03344393_4214.png
swag_vit_b16_in1k,1,100,NaN,keyboard,keyboard,4-10-10,0100_eid_dnn_4-10-10_keyboard_10_n03085013_22949.png
swag_vit_b16_in1k,1,101,NaN,airplane,bear,64-10-10,0101_eid_dnn_64-10-10_bear_10_n02132136_31664.png
swag_vit_b16_in1k,1,102,NaN,boat,bottle,8-10-10,0102_eid_dnn_8-10-10_bottle_10_n03983396_1985.png
swag_vit_b16_in1k,1,103,NaN,airplane,airplane,2-10-10,0103_eid_dnn_2-10-10_airplane_10_n02690373_9266.png
swag_vit_b16_in1k,1,104,NaN,cat,bottle,128-10-10,0104_eid_dnn_128-10-10_bottle_10_n02823428_5961.png
swag_vit_b16_in1k,1,105,NaN,bottle,bottle,4-10-10,0105_eid_dnn_4-10-10_bottle_10_n04579145_1856.png
swag_vit_b16_in1k,1,106,NaN,bear,clock,64-10-10,0106_eid_dnn_64-10-10_clock_10_n02708093_7810.png
swag_vit_b16_in1k,1,107,NaN,dog,dog,1-10-10,0107_eid_dnn_1-10-10_dog_10_n02100735_4949.png
swag_vit_b16_in1k,1,108,NaN,clock,chair,32-10-10,0108_eid_dnn_32-10-10_chair_10_n03376595_7275.png
swag_vit_b16_in1k,1,109,NaN,bottle,bottle,2-10-10,0109_eid_dnn_2-10-10_bottle_10_n03983396_16741.png
swag_vit_b16_in1k,1,110,NaN,boat,boat,32-10-10,0110_eid_dnn_32-10-10_boat_10_n04612504_8719.png
swag_vit_b16_in1k,1,111,NaN,chair,chair,1-10-10,0111_eid_dnn_1-10-10_chair_10_n02791124_3570.png
swag_vit_b16_in1k,1,112,NaN,clock,bear,32-10-10,0112_eid_dnn_32-10-10_bear_10_n02132136_9557.png
swag_vit_b16_in1k,1,113,NaN,airplane,bird,64-10-10,0113_eid_dnn_64-10-10_bird_10_n02002556_5730.png
swag_vit_b16_in1k,1,114,NaN,bicycle,oven,4-10-10,0114_eid_dnn_4-10-10_oven_10_n04111531_8959.png
swag_vit_b16_in1k,1,115,NaN,dog,cat,128-10-10,0115_eid_dnn_128-10-10_cat_10_n02123159_8101.png
swag_vit_b16_in1k,1,116,NaN,cat,cat,8-10-10,0116_eid_dnn_8-10-10_cat_10_n02123597_8890.png
swag_vit_b16_in1k,1,117,NaN,elephant,elephant,1-10-10,0117_eid_dnn_1-10-10_elephant_10_n02504458_220.png
swag_vit_b16_in1k,1,118,NaN,bear,bicycle,128-10-10,0118_eid_dnn_128-10-10_bicycle_10_n02835271_2651.png
swag_vit_b16_in1k,1,119,NaN,oven,keyboard,64-10-10,0119_eid_dnn_64-10-10_keyboard_10_n04505470_1581.png
swag_vit_b16_in1k,1,120,NaN,truck,truck,4-10-10,0120_eid_dnn_4-10-10_truck_10_n04467665_1719.png
swag_vit_b16_in1k,1,121,NaN,truck,truck,2-10-10,0121_eid_dnn_2-10-10_truck_10_n04467665_30756.png
swag_vit_b16_in1k,1,122,NaN,knife,oven,64-10-10,0122_eid_dnn_64-10-10_oven_10_n04111531_1818.png
swag_vit_b16_in1k,1,123,NaN,bear,elephant,64-10-10,0123_eid_dnn_64-10-10_elephant_10_n02504013_2974.png
swag_vit_b16_in1k,1,124,NaN,cat,bicycle,128-10-10,0124_eid_dnn_128-10-10_bicycle_10_n03792782_7713.png
swag_vit_b16_in1k,1,125,NaN,clock,clock,16-10-10,0125_eid_dnn_16-10-10_clock_10_n04548280_9700.png
swag_vit_b16_in1k,1,126,NaN,bear,bottle,16-10-10,0126_eid_dnn_16-10-10_bottle_10_n04591713_1174.png
swag_vit_b16_in1k,1,127,NaN,bear,bear,64-10-10,0127_eid_dnn_64-10-10_bear_10_n02134418_1395.png
swag_vit_b16_in1k,1,128,NaN,clock,bottle,128-10-10,0128_eid_dnn_128-10-10_bottle_10_n04591713_36.png
swag_vit_b16_in1k,1,129,NaN,dog,knife,8-10-10,0129_eid_dnn_8-10-10_knife_10_n03041632_21034.png
swag_vit_b16_in1k,1,130,NaN,bicycle,bicycle,1-10-10,0130_eid_dnn_1-10-10_bicycle_10_n03792782_11115.png
swag_vit_b16_in1k,1,131,NaN,boat,truck,16-10-10,0131_eid_dnn_16-10-10_truck_10_n03417042_5381.png
swag_vit_b16_in1k,1,132,NaN,dog,boat,64-10-10,0132_eid_dnn_64-10-10_boat_10_n04612504_15258.png
swag_vit_b16_in1k,1,133,NaN,boat,boat,2-10-10,0133_eid_dnn_2-10-10_boat_10_n03662601_11972.png
swag_vit_b16_in1k,1,134,NaN,bear,dog,64-10-10,0134_eid_dnn_64-10-10_dog_10_n02092002_11459.png
swag_vit_b16_in1k,1,135,NaN,bear,clock,64-10-10,0135_eid_dnn_64-10-10_clock_10_n04548280_6605.png
swag_vit_b16_in1k,1,136,NaN,boat,boat,64-10-10,0136_eid_dnn_64-10-10_boat_10_n03662601_5600.png
swag_vit_b16_in1k,1,137,NaN,airplane,bear,32-10-10,0137_eid_dnn_32-10-10_bear_10_n02134084_8153.png
swag_vit_b16_in1k,1,138,NaN,bear,cat,64-10-10,0138_eid_dnn_64-10-10_cat_10_n02124075_9225.png
swag_vit_b16_in1k,1,139,NaN,bicycle,bicycle,8-10-10,0139_eid_dnn_8-10-10_bicycle_10_n03792782_3591.png
swag_vit_b16_in1k,1,140,NaN,clock,dog,64-10-10,0140_eid_dnn_64-10-10_dog_10_n02107142_31661.png
swag_vit_b16_in1k,1,141,NaN,elephant,elephant,8-10-10,0141_eid_dnn_8-10-10_elephant_10_n02504458_651.png
swag_vit_b16_in1k,1,142,NaN,dog,dog,128-10-10,0142_eid_dnn_128-10-10_dog_10_n02110958_15217.png
swag_vit_b16_in1k,1,143,NaN,chair,oven,4-10-10,0143_eid_dnn_4-10-10_oven_10_n04111531_523.png
swag_vit_b16_in1k,1,144,NaN,car,car,4-10-10,0144_eid_dnn_4-10-10_car_10_n02814533_42884.png
swag_vit_b16_in1k,1,145,NaN,oven,car,64-10-10,0145_eid_dnn_64-10-10_car_10_n04285008_8017.png
swag_vit_b16_in1k,1,146,NaN,truck,car,1-10-10,0146_eid_dnn_1-10-10_car_10_n03100240_16766.png
swag_vit_b16_in1k,1,147,NaN,elephant,elephant,8-10-10,0147_eid_dnn_8-10-10_elephant_10_n02504458_4593.png
swag_vit_b16_in1k,1,148,NaN,bottle,chair,64-10-10,0148_eid_dnn_64-10-10_chair_10_n02791124_1358.png
swag_vit_b16_in1k,1,149,NaN,dog,dog,16-10-10,0149_eid_dnn_16-10-10_dog_10_n02095314_5363.png
swag_vit_b16_in1k,1,150,NaN,clock,clock,8-10-10,0150_eid_dnn_8-10-10_clock_10_n04548280_1413.png
swag_vit_b16_in1k,1,151,NaN,dog,dog,1-10-10,0151_eid_dnn_1-10-10_dog_10_n02105641_10948.png
swag_vit_b16_in1k,1,152,NaN,dog,dog,1-10-10,0152_eid_dnn_1-10-10_dog_10_n02113624_1691.png
swag_vit_b16_in1k,1,153,NaN,car,car,4-10-10,0153_eid_dnn_4-10-10_car_10_n03100240_2235.png
swag_vit_b16_in1k,1,154,NaN,chair,chair,2-10-10,0154_eid_dnn_2-10-10_chair_10_n04099969_56470.png
swag_vit_b16_in1k,1,155,NaN,oven,oven,2-10-10,0155_eid_dnn_2-10-10_oven_10_n04111531_5429.png
swag_vit_b16_in1k,1,156,NaN,bear,keyboard,64-10-10,0156_eid_dnn_64-10-10_keyboard_10_n03085013_19317.png
swag_vit_b16_in1k,1,157,NaN,knife,bird,64-10-10,0157_eid_dnn_64-10-10_bird_10_n01601694_19650.png
swag_vit_b16_in1k,1,158,NaN,knife,clock,128-10-10,0158_eid_dnn_128-10-10_clock_10_n03196217_11199.png
swag_vit_b16_in1k,1,159,NaN,airplane,bottle,32-10-10,0159_eid_dnn_32-10-10_bottle_10_n03937543_2209.png
swag_vit_b16_in1k,1,160,NaN,cat,car,64-10-10,0160_eid_dnn_64-10-10_car_10_n03100240_16939.png
swag_vit_b16_in1k,1,161,NaN,bottle,bottle,8-10-10,0161_eid_dnn_8-10-10_bottle_10_n04591713_2501.png
swag_vit_b16_in1k,1,162,NaN,airplane,airplane,16-10-10,0162_eid_dnn_16-10-10_airplane_10_n02690373_10395.png
swag_vit_b16_in1k,1,163,NaN,knife,oven,8-10-10,0163_eid_dnn_8-10-10_oven_10_n04111531_3286.png
swag_vit_b16_in1k,1,164,NaN,cat,boat,64-10-10,0164_eid_dnn_64-10-10_boat_10_n04273569_13401.png
swag_vit_b16_in1k,1,165,NaN,clock,elephant,64-10-10,0165_eid_dnn_64-10-10_elephant_10_n02504458_12776.png
swag_vit_b16_in1k,1,166,NaN,bird,bird,2-10-10,0166_eid_dnn_2-10-10_bird_10_n01828970_997.png
swag_vit_b16_in1k,1,167,NaN,bear,bear,8-10-10,0167_eid_dnn_8-10-10_bear_10_n02132136_10318.png
swag_vit_b16_in1k,1,168,NaN,oven,oven,32-10-10,0168_eid_dnn_32-10-10_oven_10_n04111531_7883.png
swag_vit_b16_in1k,1,169,NaN,clock,clock,128-10-10,0169_eid_dnn_128-10-10_clock_10_n02708093_725.png
swag_vit_b16_in1k,1,170,NaN,boat,bottle,16-10-10,0170_eid_dnn_16-10-10_bottle_10_n04557648_2052.png
swag_vit_b16_in1k,1,171,NaN,knife,keyboard,32-10-10,0171_eid_dnn_32-10-10_keyboard_10_n04505470_5036.png
swag_vit_b16_in1k,1,172,NaN,elephant,elephant,8-10-10,0172_eid_dnn_8-10-10_elephant_10_n02504458_13352.png
swag_vit_b16_in1k,1,173,NaN,chair,chair,4-10-10,0173_eid_dnn_4-10-10_chair_10_n04429376_30620.png
swag_vit_b16_in1k,1,174,NaN,boat,boat,16-10-10,0174_eid_dnn_16-10-10_boat_10_n03662601_2980.png
swag_vit_b16_in1k,1,175,NaN,boat,boat,8-10-10,0175_eid_dnn_8-10-10_boat_10_n03662601_4734.png
swag_vit_b16_in1k,1,176,NaN,bear,bear,2-10-10,0176_eid_dnn_2-10-10_bear_10_n02134418_4754.png
swag_vit_b16_in1k,1,177,NaN,elephant,elephant,2-10-10,0177_eid_dnn_2-10-10_elephant_10_n02504013_8522.png
swag_vit_b16_in1k,1,178,NaN,oven,bottle,64-10-10,0178_eid_dnn_64-10-10_bottle_10_n03937543_4863.png
swag_vit_b16_in1k,1,179,NaN,boat,car,16-10-10,0179_eid_dnn_16-10-10_car_10_n04285008_10802.png
swag_vit_b16_in1k,1,180,NaN,bear,knife,64-10-10,0180_eid_dnn_64-10-10_knife_10_n03041632_6708.png
swag_vit_b16_in1k,1,181,NaN,dog,dog,1-10-10,0181_eid_dnn_1-10-10_dog_10_n02107142_61109.png
swag_vit_b16_in1k,1,182,NaN,clock,clock,2-10-10,0182_eid_dnn_2-10-10_clock_10_n03196217_8139.png
swag_vit_b16_in1k,1,183,NaN,elephant,elephant,1-10-10,0183_eid_dnn_1-10-10_elephant_10_n02504458_6611.png
swag_vit_b16_in1k,1,184,NaN,boat,truck,64-10-10,0184_eid_dnn_64-10-10_truck_10_n04467665_4401.png
swag_vit_b16_in1k,1,185,NaN,boat,boat,4-10-10,0185_eid_dnn_4-10-10_boat_10_n03344393_732.png
swag_vit_b16_in1k,1,186,NaN,knife,knife,4-10-10,0186_eid_dnn_4-10-10_knife_10_n03041632_41381.png
swag_vit_b16_in1k,1,187,NaN,oven,oven,32-10-10,0187_eid_dnn_32-10-10_oven_10_n04111531_22715.png
swag_vit_b16_in1k,1,188,NaN,dog,cat,16-10-10,0188_eid_dnn_16-10-10_cat_10_n02123045_3568.png
swag_vit_b16_in1k,1,189,NaN,truck,truck,2-10-10,0189_eid_dnn_2-10-10_truck_10_n03796401_18976.png
swag_vit_b16_in1k,1,190,NaN,bear,oven,8-10-10,0190_eid_dnn_8-10-10_oven_10_n04111531_15710.png
swag_vit_b16_in1k,1,191,NaN,bear,elephant,32-10-10,0191_eid_dnn_32-10-10_elephant_10_n02504013_7232.png
swag_vit_b16_in1k,1,192,NaN,bear,clock,64-10-10,0192_eid_dnn_64-10-10_clock_10_n02708093_5126.png
swag_vit_b16_in1k,1,193,NaN,bicycle,cat,32-10-10,0193_eid_dnn_32-10-10_cat_10_n02123159_1598.png
swag_vit_b16_in1k,1,194,NaN,car,car,1-10-10,0194_eid_dnn_1-10-10_car_10_n04285008_1661.png
swag_vit_b16_in1k,1,195,NaN,clock,clock,2-10-10,0195_eid_dnn_2-10-10_clock_10_n02708093_5551.png
swag_vit_b16_in1k,1,196,NaN,knife,airplane,128-10-10,0196_eid_dnn_128-10-10_airplane_10_n02690373_693.png
swag_vit_b16_in1k,1,197,NaN,elephant,elephant,2-10-10,0197_eid_dnn_2-10-10_elephant_10_n02504013_3409.png
swag_vit_b16_in1k,1,198,NaN,dog,dog,64-10-10,0198_eid_dnn_64-10-10_dog_10_n02113712_8182.png
swag_vit_b16_in1k,1,199,NaN,bottle,bottle,1-10-10,0199_eid_dnn_1-10-10_bottle_10_n03983396_8322.png
swag_vit_b16_in1k,1,200,NaN,clock,keyboard,64-10-10,0200_eid_dnn_64-10-10_keyboard_10_n04505470_1040.png
swag_vit_b16_in1k,1,201,NaN,knife,oven,32-10-10,0201_eid_dnn_32-10-10_oven_10_n04111531_11230.png
swag_vit_b16_in1k,1,202,NaN,cat,cat,1-10-10,0202_eid_dnn_1-10-10_cat_10_n02123394_6269.png
swag_vit_b16_in1k,1,203,NaN,elephant,elephant,2-10-10,0203_eid_dnn_2-10-10_elephant_10_n02504013_2075.png
swag_vit_b16_in1k,1,204,NaN,bear,bear,1-10-10,0204_eid_dnn_1-10-10_bear_10_n02133161_3795.png
swag_vit_b16_in1k,1,205,NaN,oven,oven,2-10-10,0205_eid_dnn_2-10-10_oven_10_n04111531_4322.png
swag_vit_b16_in1k,1,206,NaN,bottle,bottle,4-10-10,0206_eid_dnn_4-10-10_bottle_10_n03937543_5799.png
swag_vit_b16_in1k,1,207,NaN,keyboard,keyboard,8-10-10,0207_eid_dnn_8-10-10_keyboard_10_n04505470_4414.png
swag_vit_b16_in1k,1,208,NaN,dog,dog,4-10-10,0208_eid_dnn_4-10-10_dog_10_n02091032_8315.png
swag_vit_b16_in1k,1,209,NaN,knife,knife,2-10-10,0209_eid_dnn_2-10-10_knife_10_n03041632_39952.png
swag_vit_b16_in1k,1,210,NaN,chair,chair,8-10-10,0210_eid_dnn_8-10-10_chair_10_n02791124_634.png
swag_vit_b16_in1k,1,211,NaN,boat,boat,32-10-10,0211_eid_dnn_32-10-10_boat_10_n03344393_3355.png
swag_vit_b16_in1k,1,212,NaN,bear,dog,32-10-10,0212_eid_dnn_32-10-10_dog_10_n02102040_7188.png
swag_vit_b16_in1k,1,213,NaN,chair,chair,2-10-10,0213_eid_dnn_2-10-10_chair_10_n02791124_8711.png
swag_vit_b16_in1k,1,214,NaN,boat,bear,64-10-10,0214_eid_dnn_64-10-10_bear_10_n02132136_6002.png
swag_vit_b16_in1k,1,215,NaN,boat,boat,4-10-10,0215_eid_dnn_4-10-10_boat_10_n02951358_30184.png
swag_vit_b16_in1k,1,216,NaN,bear,bottle,128-10-10,0216_eid_dnn_128-10-10_bottle_10_n02823428_3414.png
swag_vit_b16_in1k,1,217,NaN,airplane,truck,4-10-10,0217_eid_dnn_4-10-10_truck_10_n04467665_13231.png
swag_vit_b16_in1k,1,218,NaN,chair,chair,4-10-10,0218_eid_dnn_4-10-10_chair_10_n04099969_8063.png
swag_vit_b16_in1k,1,219,NaN,clock,bird,4-10-10,0219_eid_dnn_4-10-10_bird_10_n01534433_10234.png
swag_vit_b16_in1k,1,220,NaN,elephant,elephant,4-10-10,0220_eid_dnn_4-10-10_elephant_10_n02504013_12533.png
swag_vit_b16_in1k,1,221,NaN,airplane,knife,16-10-10,0221_eid_dnn_16-10-10_knife_10_n03041632_18995.png
swag_vit_b16_in1k,1,222,NaN,airplane,chair,32-10-10,0222_eid_dnn_32-10-10_chair_10_n04429376_7123.png
swag_vit_b16_in1k,1,223,NaN,bear,clock,64-10-10,0223_eid_dnn_64-10-10_clock_10_n03196217_9065.png
swag_vit_b16_in1k,1,224,NaN,dog,dog,4-10-10,0224_eid_dnn_4-10-10_dog_10_n02086079_4143.png
swag_vit_b16_in1k,1,225,NaN,bear,bear,4-10-10,0225_eid_dnn_4-10-10_bear_10_n02132136_20162.png
swag_vit_b16_in1k,1,226,NaN,bottle,bottle,1-10-10,0226_eid_dnn_1-10-10_bottle_10_n03983396_4165.png
swag_vit_b16_in1k,1,227,NaN,bird,bird,4-10-10,0227_eid_dnn_4-10-10_bird_10_n01824575_4470.png
swag_vit_b16_in1k,1,228,NaN,bear,oven,64-10-10,0228_eid_dnn_64-10-10_oven_10_n04111531_9695.png
swag_vit_b16_in1k,1,229,NaN,bear,bottle,64-10-10,0229_eid_dnn_64-10-10_bottle_10_n02823428_23181.png
swag_vit_b16_in1k,1,230,NaN,bicycle,bicycle,2-10-10,0230_eid_dnn_2-10-10_bicycle_10_n02835271_13674.png
swag_vit_b16_in1k,1,231,NaN,chair,chair,2-10-10,0231_eid_dnn_2-10-10_chair_10_n04429376_55747.png
swag_vit_b16_in1k,1,232,NaN,bear,boat,32-10-10,0232_eid_dnn_32-10-10_boat_10_n02951358_8346.png
swag_vit_b16_in1k,1,233,NaN,bear,elephant,16-10-10,0233_eid_dnn_16-10-10_elephant_10_n02504013_1088.png
swag_vit_b16_in1k,1,234,NaN,chair,car,8-10-10,0234_eid_dnn_8-10-10_car_10_n03100240_11191.png
swag_vit_b16_in1k,1,235,NaN,chair,chair,8-10-10,0235_eid_dnn_8-10-10_chair_10_n04099969_19966.png
swag_vit_b16_in1k,1,236,NaN,cat,bicycle,32-10-10,0236_eid_dnn_32-10-10_bicycle_10_n03792782_15016.png
swag_vit_b16_in1k,1,237,NaN,bear,boat,128-10-10,0237_eid_dnn_128-10-10_boat_10_n02951358_17867.png
swag_vit_b16_in1k,1,238,NaN,cat,cat,2-10-10,0238_eid_dnn_2-10-10_cat_10_n02123045_2364.png
swag_vit_b16_in1k,1,239,NaN,bear,bear,2-10-10,0239_eid_dnn_2-10-10_bear_10_n02132136_9433.png
swag_vit_b16_in1k,1,240,NaN,clock,clock,32-10-10,0240_eid_dnn_32-10-10_clock_10_n03196217_3167.png
swag_vit_b16_in1k,1,241,NaN,knife,clock,32-10-10,0241_eid_dnn_32-10-10_clock_10_n03196217_3129.png
swag_vit_b16_in1k,1,242,NaN,dog,keyboard,128-10-10,0242_eid_dnn_128-10-10_keyboard_10_n03085013_6067.png
swag_vit_b16_in1k,1,243,NaN,keyboard,keyboard,2-10-10,0243_eid_dnn_2-10-10_keyboard_10_n03085013_24648.png
swag_vit_b16_in1k,1,244,NaN,boat,oven,32-10-10,0244_eid_dnn_32-10-10_oven_10_n04111531_6695.png
swag_vit_b16_in1k,1,245,NaN,dog,dog,4-10-10,0245_eid_dnn_4-10-10_dog_10_n02111500_4875.png
swag_vit_b16_in1k,1,246,NaN,airplane,oven,32-10-10,0246_eid_dnn_32-10-10_oven_10_n04111531_13018.png
swag_vit_b16_in1k,1,247,NaN,cat,keyboard,128-10-10,0247_eid_dnn_128-10-10_keyboard_10_n03085013_23030.png
swag_vit_b16_in1k,1,248,NaN,dog,cat,8-10-10,0248_eid_dnn_8-10-10_cat_10_n02123045_8409.png
swag_vit_b16_in1k,1,249,NaN,bicycle,bicycle,4-10-10,0249_eid_dnn_4-10-10_bicycle_10_n03792782_37777.png
swag_vit_b16_in1k,1,250,NaN,boat,airplane,64-10-10,0250_eid_dnn_64-10-10_airplane_10_n02690373_614.png
swag_vit_b16_in1k,1,251,NaN,oven,keyboard,128-10-10,0251_eid_dnn_128-10-10_keyboard_10_n03085013_19775.png
swag_vit_b16_in1k,1,252,NaN,bear,bear,8-10-10,0252_eid_dnn_8-10-10_bear_10_n02133161_1244.png
swag_vit_b16_in1k,1,253,NaN,keyboard,keyboard,2-10-10,0253_eid_dnn_2-10-10_keyboard_10_n04505470_4368.png
swag_vit_b16_in1k,1,254,NaN,oven,oven,2-10-10,0254_eid_dnn_2-10-10_oven_10_n04111531_7728.png
swag_vit_b16_in1k,1,255,NaN,oven,clock,8-10-10,0255_eid_dnn_8-10-10_clock_10_n04548280_1.png
swag_vit_b16_in1k,1,256,NaN,bear,cat,64-10-10,0256_eid_dnn_64-10-10_cat_10_n02123394_3062.png
swag_vit_b16_in1k,1,257,NaN,elephant,elephant,2-10-10,0257_eid_dnn_2-10-10_elephant_10_n02504013_466.png
swag_vit_b16_in1k,1,258,NaN,elephant,elephant,1-10-10,0258_eid_dnn_1-10-10_elephant_10_n02504013_6275.png
swag_vit_b16_in1k,1,259,NaN,bird,bird,4-10-10,0259_eid_dnn_4-10-10_bird_10_n01560419_5466.png
swag_vit_b16_in1k,1,260,NaN,truck,truck,8-10-10,0260_eid_dnn_8-10-10_truck_10_n03796401_5227.png
swag_vit_b16_in1k,1,261,NaN,chair,chair,2-10-10,0261_eid_dnn_2-10-10_chair_10_n04099969_25124.png
swag_vit_b16_in1k,1,262,NaN,boat,elephant,64-10-10,0262_eid_dnn_64-10-10_elephant_10_n02504013_7209.png
swag_vit_b16_in1k,1,263,NaN,cat,cat,1-10-10,0263_eid_dnn_1-10-10_cat_10_n02123597_4756.png
swag_vit_b16_in1k,1,264,NaN,clock,bicycle,16-10-10,0264_eid_dnn_16-10-10_bicycle_10_n02835271_4654.png
swag_vit_b16_in1k,1,265,NaN,keyboard,keyboard,1-10-10,0265_eid_dnn_1-10-10_keyboard_10_n04505470_2389.png
swag_vit_b16_in1k,1,266,NaN,dog,knife,128-10-10,0266_eid_dnn_128-10-10_knife_10_n03041632_379.png
swag_vit_b16_in1k,1,267,NaN,bicycle,clock,8-10-10,0267_eid_dnn_8-10-10_clock_10_n02708093_899.png
swag_vit_b16_in1k,1,268,NaN,bear,truck,128-10-10,0268_eid_dnn_128-10-10_truck_10_n03417042_10154.png
swag_vit_b16_in1k,1,269,NaN,bottle,bottle,2-10-10,0269_eid_dnn_2-10-10_bottle_10_n04579145_3415.png
swag_vit_b16_in1k,1,270,NaN,bear,chair,16-10-10,0270_eid_dnn_16-10-10_chair_10_n02791124_146.png
swag_vit_b16_in1k,1,271,NaN,cat,elephant,128-10-10,0271_eid_dnn_128-10-10_elephant_10_n02504458_2835.png
swag_vit_b16_in1k,1,272,NaN,bicycle,bicycle,1-10-10,0272_eid_dnn_1-10-10_bicycle_10_n03792782_13835.png
swag_vit_b16_in1k,1,273,NaN,knife,bicycle,32-10-10,0273_eid_dnn_32-10-10_bicycle_10_n02835271_12926.png
swag_vit_b16_in1k,1,274,NaN,dog,dog,2-10-10,0274_eid_dnn_2-10-10_dog_10_n02110185_11605.png
swag_vit_b16_in1k,1,275,NaN,bear,elephant,128-10-10,0275_eid_dnn_128-10-10_elephant_10_n02504458_3091.png
swag_vit_b16_in1k,1,276,NaN,bear,chair,128-10-10,0276_eid_dnn_128-10-10_chair_10_n04099969_5233.png
swag_vit_b16_in1k,1,277,NaN,dog,dog,2-10-10,0277_eid_dnn_2-10-10_dog_10_n02097209_7628.png
swag_vit_b16_in1k,1,278,NaN,cat,cat,8-10-10,0278_eid_dnn_8-10-10_cat_10_n02123597_10941.png
swag_vit_b16_in1k,1,279,NaN,oven,clock,16-10-10,0279_eid_dnn_16-10-10_clock_10_n02708093_3006.png
swag_vit_b16_in1k,1,280,NaN,truck,truck,1-10-10,0280_eid_dnn_1-10-10_truck_10_n03796401_26620.png
swag_vit_b16_in1k,1,281,NaN,dog,bear,128-10-10,0281_eid_dnn_128-10-10_bear_10_n02134418_12733.png
swag_vit_b16_in1k,1,282,NaN,knife,knife,2-10-10,0282_eid_dnn_2-10-10_knife_10_n03041632_4806.png
swag_vit_b16_in1k,1,283,NaN,oven,oven,4-10-10,0283_eid_dnn_4-10-10_oven_10_n04111531_17922.png
swag_vit_b16_in1k,1,284,NaN,bottle,bottle,1-10-10,0284_eid_dnn_1-10-10_bottle_10_n04579145_6818.png
swag_vit_b16_in1k,1,285,NaN,keyboard,keyboard,4-10-10,0285_eid_dnn_4-10-10_keyboard_10_n04505470_494.png
swag_vit_b16_in1k,1,286,NaN,cat,cat,8-10-10,0286_eid_dnn_8-10-10_cat_10_n02123045_10834.png
swag_vit_b16_in1k,1,287,NaN,knife,cat,128-10-10,0287_eid_dnn_128-10-10_cat_10_n02123394_176.png
swag_vit_b16_in1k,1,288,NaN,dog,chair,128-10-10,0288_eid_dnn_128-10-10_chair_10_n03376595_2891.png
swag_vit_b16_in1k,1,289,NaN,dog,dog,8-10-10,0289_eid_dnn_8-10-10_dog_10_n02093256_5647.png
swag_vit_b16_in1k,1,290,NaN,bear,knife,64-10-10,0290_eid_dnn_64-10-10_knife_10_n03041632_33326.png
swag_vit_b16_in1k,1,291,NaN,knife,airplane,8-10-10,0291_eid_dnn_8-10-10_airplane_10_n02690373_2856.png
swag_vit_b16_in1k,1,292,NaN,bear,bicycle,128-10-10,0292_eid_dnn_128-10-10_bicycle_10_n03792782_9651.png
swag_vit_b16_in1k,1,293,NaN,bicycle,bicycle,2-10-10,0293_eid_dnn_2-10-10_bicycle_10_n02835271_7438.png
swag_vit_b16_in1k,1,294,NaN,bear,bicycle,128-10-10,0294_eid_dnn_128-10-10_bicycle_10_n02835271_26639.png
swag_vit_b16_in1k,1,295,NaN,keyboard,keyboard,8-10-10,0295_eid_dnn_8-10-10_keyboard_10_n04505470_4458.png
swag_vit_b16_in1k,1,296,NaN,cat,dog,64-10-10,0296_eid_dnn_64-10-10_dog_10_n02106662_24847.png
swag_vit_b16_in1k,1,297,NaN,clock,chair,32-10-10,0297_eid_dnn_32-10-10_chair_10_n03376595_8995.png
swag_vit_b16_in1k,1,298,NaN,bear,bicycle,64-10-10,0298_eid_dnn_64-10-10_bicycle_10_n03792782_6030.png
swag_vit_b16_in1k,1,299,NaN,elephant,elephant,4-10-10,0299_eid_dnn_4-10-10_elephant_10_n02504458_7258.png
swag_vit_b16_in1k,1,300,NaN,bear,boat,128-10-10,0300_eid_dnn_128-10-10_boat_10_n03662601_23903.png
swag_vit_b16_in1k,1,301,NaN,bear,bird,16-10-10,0301_eid_dnn_16-10-10_bird_10_n02002724_578.png
swag_vit_b16_in1k,1,302,NaN,boat,chair,64-10-10,0302_eid_dnn_64-10-10_chair_10_n03376595_2393.png
swag_vit_b16_in1k,1,303,NaN,airplane,boat,16-10-10,0303_eid_dnn_16-10-10_boat_10_n03662601_5118.png
swag_vit_b16_in1k,1,304,NaN,chair,chair,8-10-10,0304_eid_dnn_8-10-10_chair_10_n04429376_21845.png
swag_vit_b16_in1k,1,305,NaN,dog,dog,8-10-10,0305_eid_dnn_8-10-10_dog_10_n02102040_2216.png
swag_vit_b16_in1k,1,306,NaN,boat,airplane,8-10-10,0306_eid_dnn_8-10-10_airplane_10_n02690373_3032.png
swag_vit_b16_in1k,1,307,NaN,dog,dog,8-10-10,0307_eid_dnn_8-10-10_dog_10_n02100735_2228.png
swag_vit_b16_in1k,1,308,NaN,bird,bird,8-10-10,0308_eid_dnn_8-10-10_bird_10_n01532829_13864.png
swag_vit_b16_in1k,1,309,NaN,bear,bird,64-10-10,0309_eid_dnn_64-10-10_bird_10_n01601694_13787.png
swag_vit_b16_in1k,1,310,NaN,boat,bear,64-10-10,0310_eid_dnn_64-10-10_bear_10_n02134084_22150.png
swag_vit_b16_in1k,1,311,NaN,airplane,knife,16-10-10,0311_eid_dnn_16-10-10_knife_10_n03041632_29427.png
swag_vit_b16_in1k,1,312,NaN,chair,chair,4-10-10,0312_eid_dnn_4-10-10_chair_10_n02791124_2804.png
swag_vit_b16_in1k,1,313,NaN,bottle,bottle,4-10-10,0313_eid_dnn_4-10-10_bottle_10_n04591713_5046.png
swag_vit_b16_in1k,1,314,NaN,knife,bicycle,128-10-10,0314_eid_dnn_128-10-10_bicycle_10_n03792782_4210.png
swag_vit_b16_in1k,1,315,NaN,dog,cat,128-10-10,0315_eid_dnn_128-10-10_cat_10_n02123159_1596.png
swag_vit_b16_in1k,1,316,NaN,car,car,2-10-10,0316_eid_dnn_2-10-10_car_10_n03100240_17588.png
swag_vit_b16_in1k,1,317,NaN,cat,keyboard,4-10-10,0317_eid_dnn_4-10-10_keyboard_10_n03085013_23295.png
swag_vit_b16_in1k,1,318,NaN,knife,oven,32-10-10,0318_eid_dnn_32-10-10_oven_10_n04111531_4879.png
swag_vit_b16_in1k,1,319,NaN,oven,keyboard,32-10-10,0319_eid_dnn_32-10-10_keyboard_10_n04505470_4569.png
swag_vit_b16_in1k,1,320,NaN,truck,truck,8-10-10,0320_eid_dnn_8-10-10_truck_10_n04467665_24190.png
swag_vit_b16_in1k,1,321,NaN,cat,cat,4-10-10,0321_eid_dnn_4-10-10_cat_10_n02124075_15405.png
swag_vit_b16_in1k,1,322,NaN,knife,knife,8-10-10,0322_eid_dnn_8-10-10_knife_10_n03041632_24817.png
swag_vit_b16_in1k,1,323,NaN,bear,elephant,64-10-10,0323_eid_dnn_64-10-10_elephant_10_n02504013_5505.png
swag_vit_b16_in1k,1,324,NaN,airplane,airplane,8-10-10,0324_eid_dnn_8-10-10_airplane_10_n02690373_8846.png
swag_vit_b16_in1k,1,325,NaN,airplane,truck,32-10-10,0325_eid_dnn_32-10-10_truck_10_n04467665_50806.png
swag_vit_b16_in1k,1,326,NaN,elephant,elephant,4-10-10,0326_eid_dnn_4-10-10_elephant_10_n02504458_5539.png
swag_vit_b16_in1k,1,327,NaN,boat,boat,1-10-10,0327_eid_dnn_1-10-10_boat_10_n03344393_1178.png
swag_vit_b16_in1k,1,328,NaN,truck,truck,4-10-10,0328_eid_dnn_4-10-10_truck_10_n04467665_10025.png
swag_vit_b16_in1k,1,329,NaN,clock,clock,4-10-10,0329_eid_dnn_4-10-10_clock_10_n02708093_2869.png
swag_vit_b16_in1k,1,330,NaN,boat,bottle,8-10-10,0330_eid_dnn_8-10-10_bottle_10_n03983396_4879.png
swag_vit_b16_in1k,1,331,NaN,knife,keyboard,128-10-10,0331_eid_dnn_128-10-10_keyboard_10_n03085013_10367.png
swag_vit_b16_in1k,1,332,NaN,cat,bird,64-10-10,0332_eid_dnn_64-10-10_bird_10_n01860187_21300.png
swag_vit_b16_in1k,1,333,NaN,airplane,knife,32-10-10,0333_eid_dnn_32-10-10_knife_10_n03041632_5302.png
swag_vit_b16_in1k,1,334,NaN,bear,bear,4-10-10,0334_eid_dnn_4-10-10_bear_10_n02134084_5274.png
swag_vit_b16_in1k,1,335,NaN,knife,knife,4-10-10,0335_eid_dnn_4-10-10_knife_10_n03041632_48816.png
swag_vit_b16_in1k,1,336,NaN,boat,elephant,16-10-10,0336_eid_dnn_16-10-10_elephant_10_n02504013_3295.png
swag_vit_b16_in1k,1,337,NaN,bottle,truck,128-10-10,0337_eid_dnn_128-10-10_truck_10_n03417042_2478.png
swag_vit_b16_in1k,1,338,NaN,boat,oven,32-10-10,0338_eid_dnn_32-10-10_oven_10_n04111531_5350.png
swag_vit_b16_in1k,1,339,NaN,knife,airplane,8-10-10,0339_eid_dnn_8-10-10_airplane_10_n02690373_1663.png
swag_vit_b16_in1k,1,340,NaN,boat,boat,4-10-10,0340_eid_dnn_4-10-10_boat_10_n03344393_1422.png
swag_vit_b16_in1k,1,341,NaN,cat,cat,32-10-10,0341_eid_dnn_32-10-10_cat_10_n02123159_3312.png
swag_vit_b16_in1k,1,342,NaN,bear,chair,64-10-10,0342_eid_dnn_64-10-10_chair_10_n03376595_6171.png
swag_vit_b16_in1k,1,343,NaN,bottle,bottle,8-10-10,0343_eid_dnn_8-10-10_bottle_10_n04591713_1616.png
swag_vit_b16_in1k,1,344,NaN,bear,bear,128-10-10,0344_eid_dnn_128-10-10_bear_10_n02133161_1197.png
swag_vit_b16_in1k,1,345,NaN,truck,truck,4-10-10,0345_eid_dnn_4-10-10_truck_10_n04467665_663.png
swag_vit_b16_in1k,1,346,NaN,bear,bear,4-10-10,0346_eid_dnn_4-10-10_bear_10_n02132136_2771.png
swag_vit_b16_in1k,1,347,NaN,cat,cat,16-10-10,0347_eid_dnn_16-10-10_cat_10_n02123394_12.png
swag_vit_b16_in1k,1,348,NaN,boat,car,8-10-10,0348_eid_dnn_8-10-10_car_10_n04285008_1795.png
swag_vit_b16_in1k,1,349,NaN,boat,boat,4-10-10,0349_eid_dnn_4-10-10_boat_10_n04273569_1023.png
swag_vit_b16_in1k,1,350,NaN,boat,boat,1-10-10,0350_eid_dnn_1-10-10_boat_10_n03662601_21775.png
swag_vit_b16_in1k,1,351,NaN,clock,clock,1-10-10,0351_eid_dnn_1-10-10_clock_10_n03196217_71.png
swag_vit_b16_in1k,1,352,NaN,keyboard,keyboard,4-10-10,0352_eid_dnn_4-10-10_keyboard_10_n04505470_3122.png
swag_vit_b16_in1k,1,353,NaN,clock,dog,32-10-10,0353_eid_dnn_32-10-10_dog_10_n02099849_4640.png
swag_vit_b16_in1k,1,354,NaN,clock,bottle,64-10-10,0354_eid_dnn_64-10-10_bottle_10_n02823428_6418.png
swag_vit_b16_in1k,1,355,NaN,bottle,car,8-10-10,0355_eid_dnn_8-10-10_car_10_n04285008_11704.png
swag_vit_b16_in1k,1,356,NaN,boat,clock,32-10-10,0356_eid_dnn_32-10-10_clock_10_n02708093_3544.png
swag_vit_b16_in1k,1,357,NaN,knife,clock,8-10-10,0357_eid_dnn_8-10-10_clock_10_n04548280_4599.png
swag_vit_b16_in1k,1,358,NaN,clock,car,128-10-10,0358_eid_dnn_128-10-10_car_10_n03100240_6259.png
swag_vit_b16_in1k,1,359,NaN,boat,boat,8-10-10,0359_eid_dnn_8-10-10_boat_10_n04273569_3401.png
swag_vit_b16_in1k,1,360,NaN,knife,truck,64-10-10,0360_eid_dnn_64-10-10_truck_10_n04467665_13898.png
swag_vit_b16_in1k,1,361,NaN,clock,clock,2-10-10,0361_eid_dnn_2-10-10_clock_10_n03196217_1499.png
swag_vit_b16_in1k,1,362,NaN,car,car,4-10-10,0362_eid_dnn_4-10-10_car_10_n03100240_8702.png
swag_vit_b16_in1k,1,363,NaN,bear,bear,4-10-10,0363_eid_dnn_4-10-10_bear_10_n02134418_1770.png
swag_vit_b16_in1k,1,364,NaN,dog,bear,16-10-10,0364_eid_dnn_16-10-10_bear_10_n02132136_32838.png
swag_vit_b16_in1k,1,365,NaN,bicycle,truck,4-10-10,0365_eid_dnn_4-10-10_truck_10_n04467665_68331.png
swag_vit_b16_in1k,1,366,NaN,airplane,airplane,1-10-10,0366_eid_dnn_1-10-10_airplane_10_n02690373_4506.png
swag_vit_b16_in1k,1,367,NaN,car,car,2-10-10,0367_eid_dnn_2-10-10_car_10_n03100240_5308.png
swag_vit_b16_in1k,1,368,NaN,cat,cat,2-10-10,0368_eid_dnn_2-10-10_cat_10_n02124075_15345.png
swag_vit_b16_in1k,1,369,NaN,cat,bicycle,128-10-10,0369_eid_dnn_128-10-10_bicycle_10_n03792782_50972.png
swag_vit_b16_in1k,1,370,NaN,knife,knife,8-10-10,0370_eid_dnn_8-10-10_knife_10_n03041632_19098.png
swag_vit_b16_in1k,1,371,NaN,dog,bottle,128-10-10,0371_eid_dnn_128-10-10_bottle_10_n04560804_15963.png
swag_vit_b16_in1k,1,372,NaN,oven,bottle,8-10-10,0372_eid_dnn_8-10-10_bottle_10_n04557648_7809.png
swag_vit_b16_in1k,1,373,NaN,airplane,airplane,1-10-10,0373_eid_dnn_1-10-10_airplane_10_n02690373_17764.png
swag_vit_b16_in1k,1,374,NaN,clock,elephant,64-10-10,0374_eid_dnn_64-10-10_elephant_10_n02504013_7322.png
swag_vit_b16_in1k,1,375,NaN,bear,bear,2-10-10,0375_eid_dnn_2-10-10_bear_10_n02134084_2959.png
swag_vit_b16_in1k,1,376,NaN,bird,bird,2-10-10,0376_eid_dnn_2-10-10_bird_10_n01622779_6563.png
swag_vit_b16_in1k,1,377,NaN,bear,knife,16-10-10,0377_eid_dnn_16-10-10_knife_10_n03041632_19620.png
swag_vit_b16_in1k,1,378,NaN,bird,bird,4-10-10,0378_eid_dnn_4-10-10_bird_10_n01530575_35977.png
swag_vit_b16_in1k,1,379,NaN,boat,cat,128-10-10,0379_eid_dnn_128-10-10_cat_10_n02123394_1757.png
swag_vit_b16_in1k,1,380,NaN,dog,dog,2-10-10,0380_eid_dnn_2-10-10_dog_10_n02093647_6358.png
swag_vit_b16_in1k,1,381,NaN,boat,boat,1-10-10,0381_eid_dnn_1-10-10_boat_10_n02951358_1470.png
swag_vit_b16_in1k,1,382,NaN,cat,elephant,128-10-10,0382_eid_dnn_128-10-10_elephant_10_n02504458_2026.png
swag_vit_b16_in1k,1,383,NaN,clock,elephant,32-10-10,0383_eid_dnn_32-10-10_elephant_10_n02504458_3730.png
swag_vit_b16_in1k,1,384,NaN,keyboard,keyboard,8-10-10,0384_eid_dnn_8-10-10_keyboard_10_n03085013_20881.png
swag_vit_b16_in1k,1,385,NaN,dog,dog,4-10-10,0385_eid_dnn_4-10-10_dog_10_n02105641_8188.png
swag_vit_b16_in1k,1,386,NaN,clock,clock,32-10-10,0386_eid_dnn_32-10-10_clock_10_n03196217_6320.png
swag_vit_b16_in1k,1,387,NaN,knife,car,32-10-10,0387_eid_dnn_32-10-10_car_10_n04285008_12333.png
swag_vit_b16_in1k,1,388,NaN,knife,knife,2-10-10,0388_eid_dnn_2-10-10_knife_10_n03041632_47743.png
swag_vit_b16_in1k,1,389,NaN,boat,boat,8-10-10,0389_eid_dnn_8-10-10_boat_10_n04612504_8073.png
swag_vit_b16_in1k,1,390,NaN,clock,knife,128-10-10,0390_eid_dnn_128-10-10_knife_10_n03041632_20770.png
swag_vit_b16_in1k,1,391,NaN,knife,car,32-10-10,0391_eid_dnn_32-10-10_car_10_n02814533_28783.png
swag_vit_b16_in1k,1,392,NaN,clock,car,128-10-10,0392_eid_dnn_128-10-10_car_10_n02814533_13533.png
swag_vit_b16_in1k,1,393,NaN,dog,dog,16-10-10,0393_eid_dnn_16-10-10_dog_10_n02104029_8137.png
swag_vit_b16_in1k,1,394,NaN,bicycle,bicycle,4-10-10,0394_eid_dnn_4-10-10_bicycle_10_n02835271_3990.png
swag_vit_b16_in1k,1,395,NaN,bear,bear,4-10-10,0395_eid_dnn_4-10-10_bear_10_n02132136_24311.png
swag_vit_b16_in1k,1,396,NaN,truck,truck,2-10-10,0396_eid_dnn_2-10-10_truck_10_n03796401_6966.png
swag_vit_b16_in1k,1,397,NaN,knife,knife,1-10-10,0397_eid_dnn_1-10-10_knife_10_n03041632_8468.png
swag_vit_b16_in1k,1,398,NaN,dog,elephant,128-10-10,0398_eid_dnn_128-10-10_elephant_10_n02504458_6799.png
swag_vit_b16_in1k,1,399,NaN,keyboard,keyboard,16-10-10,0399_eid_dnn_16-10-10_keyboard_10_n03085013_24402.png
swag_vit_b16_in1k,1,400,NaN,knife,knife,16-10-10,0400_eid_dnn_16-10-10_knife_10_n03041632_25772.png
swag_vit_b16_in1k,1,401,NaN,cat,elephant,32-10-10,0401_eid_dnn_32-10-10_elephant_10_n02504458_5839.png
swag_vit_b16_in1k,1,402,NaN,cat,elephant,64-10-10,0402_eid_dnn_64-10-10_elephant_10_n02504458_5178.png
swag_vit_b16_in1k,1,403,NaN,clock,bicycle,32-10-10,0403_eid_dnn_32-10-10_bicycle_10_n02835271_27014.png
swag_vit_b16_in1k,1,404,NaN,knife,car,128-10-10,0404_eid_dnn_128-10-10_car_10_n04285008_15218.png
swag_vit_b16_in1k,1,405,NaN,bicycle,bicycle,8-10-10,0405_eid_dnn_8-10-10_bicycle_10_n02835271_19955.png
swag_vit_b16_in1k,1,406,NaN,truck,truck,1-10-10,0406_eid_dnn_1-10-10_truck_10_n03796401_874.png
swag_vit_b16_in1k,1,407,NaN,dog,dog,2-10-10,0407_eid_dnn_2-10-10_dog_10_n02108915_6092.png
swag_vit_b16_in1k,1,408,NaN,knife,clock,16-10-10,0408_eid_dnn_16-10-10_clock_10_n04548280_6337.png
swag_vit_b16_in1k,1,409,NaN,elephant,boat,4-10-10,0409_eid_dnn_4-10-10_boat_10_n04273569_1388.png
swag_vit_b16_in1k,1,410,NaN,bear,clock,64-10-10,0410_eid_dnn_64-10-10_clock_10_n02708093_2676.png
swag_vit_b16_in1k,1,411,NaN,dog,dog,64-10-10,0411_eid_dnn_64-10-10_dog_10_n02107683_5424.png
swag_vit_b16_in1k,1,412,NaN,chair,chair,1-10-10,0412_eid_dnn_1-10-10_chair_10_n04099969_29038.png
swag_vit_b16_in1k,1,413,NaN,clock,clock,16-10-10,0413_eid_dnn_16-10-10_clock_10_n04548280_3219.png
swag_vit_b16_in1k,1,414,NaN,knife,clock,32-10-10,0414_eid_dnn_32-10-10_clock_10_n03196217_8282.png
swag_vit_b16_in1k,1,415,NaN,oven,oven,8-10-10,0415_eid_dnn_8-10-10_oven_10_n04111531_22041.png
swag_vit_b16_in1k,1,416,NaN,bear,bear,8-10-10,0416_eid_dnn_8-10-10_bear_10_n02134084_6964.png
swag_vit_b16_in1k,1,417,NaN,cat,bicycle,64-10-10,0417_eid_dnn_64-10-10_bicycle_10_n03792782_11921.png
swag_vit_b16_in1k,1,418,NaN,clock,clock,8-10-10,0418_eid_dnn_8-10-10_clock_10_n04548280_1809.png
swag_vit_b16_in1k,1,419,NaN,bird,bird,4-10-10,0419_eid_dnn_4-10-10_bird_10_n01833805_202.png
swag_vit_b16_in1k,1,420,NaN,knife,keyboard,64-10-10,0420_eid_dnn_64-10-10_keyboard_10_n03085013_7511.png
swag_vit_b16_in1k,1,421,NaN,bird,bird,1-10-10,0421_eid_dnn_1-10-10_bird_10_n02025239_5287.png
swag_vit_b16_in1k,1,422,NaN,dog,boat,64-10-10,0422_eid_dnn_64-10-10_boat_10_n03662601_27960.png
swag_vit_b16_in1k,1,423,NaN,chair,bottle,1-10-10,0423_eid_dnn_1-10-10_bottle_10_n04591713_6855.png
swag_vit_b16_in1k,1,424,NaN,bear,elephant,128-10-10,0424_eid_dnn_128-10-10_elephant_10_n02504013_4424.png
swag_vit_b16_in1k,1,425,NaN,clock,clock,2-10-10,0425_eid_dnn_2-10-10_clock_10_n04548280_3295.png
swag_vit_b16_in1k,1,426,NaN,airplane,airplane,1-10-10,0426_eid_dnn_1-10-10_airplane_10_n02690373_6144.png
swag_vit_b16_in1k,1,427,NaN,airplane,truck,32-10-10,0427_eid_dnn_32-10-10_truck_10_n04467665_70894.png
swag_vit_b16_in1k,1,428,NaN,knife,boat,128-10-10,0428_eid_dnn_128-10-10_boat_10_n02951358_30474.png
swag_vit_b16_in1k,1,429,NaN,bear,bear,4-10-10,0429_eid_dnn_4-10-10_bear_10_n02132136_6434.png
swag_vit_b16_in1k,1,430,NaN,knife,keyboard,32-10-10,0430_eid_dnn_32-10-10_keyboard_10_n04505470_5009.png
swag_vit_b16_in1k,1,431,NaN,keyboard,keyboard,2-10-10,0431_eid_dnn_2-10-10_keyboard_10_n03085013_13005.png
swag_vit_b16_in1k,1,432,NaN,chair,chair,1-10-10,0432_eid_dnn_1-10-10_chair_10_n03376595_6865.png
swag_vit_b16_in1k,1,433,NaN,boat,bicycle,32-10-10,0433_eid_dnn_32-10-10_bicycle_10_n02835271_6122.png
swag_vit_b16_in1k,1,434,NaN,dog,oven,4-10-10,0434_eid_dnn_4-10-10_oven_10_n04111531_11499.png
swag_vit_b16_in1k,1,435,NaN,bird,bird,1-10-10,0435_eid_dnn_1-10-10_bird_10_n02009229_5765.png
swag_vit_b16_in1k,1,436,NaN,boat,bottle,32-10-10,0436_eid_dnn_32-10-10_bottle_10_n04560804_2181.png
swag_vit_b16_in1k,1,437,NaN,bicycle,bicycle,32-10-10,0437_eid_dnn_32-10-10_bicycle_10_n03792782_3774.png
swag_vit_b16_in1k,1,438,NaN,bear,bird,16-10-10,0438_eid_dnn_16-10-10_bird_10_n01614925_1683.png
swag_vit_b16_in1k,1,439,NaN,clock,clock,8-10-10,0439_eid_dnn_8-10-10_clock_10_n02708093_4692.png
swag_vit_b16_in1k,1,440,NaN,dog,dog,4-10-10,0440_eid_dnn_4-10-10_dog_10_n02109961_71298.png
swag_vit_b16_in1k,1,441,NaN,keyboard,keyboard,2-10-10,0441_eid_dnn_2-10-10_keyboard_10_n03085013_23269.png
swag_vit_b16_in1k,1,442,NaN,elephant,elephant,2-10-10,0442_eid_dnn_2-10-10_elephant_10_n02504458_5614.png
swag_vit_b16_in1k,1,443,NaN,truck,car,2-10-10,0443_eid_dnn_2-10-10_car_10_n04285008_4640.png
swag_vit_b16_in1k,1,444,NaN,dog,oven,128-10-10,0444_eid_dnn_128-10-10_oven_10_n04111531_6346.png
swag_vit_b16_in1k,1,445,NaN,chair,chair,2-10-10,0445_eid_dnn_2-10-10_chair_10_n04099969_14851.png
swag_vit_b16_in1k,1,446,NaN,bear,bird,64-10-10,0446_eid_dnn_64-10-10_bird_10_n02051845_534.png
swag_vit_b16_in1k,1,447,NaN,bear,bird,128-10-10,0447_eid_dnn_128-10-10_bird_10_n02056570_9342.png
swag_vit_b16_in1k,1,448,NaN,oven,oven,16-10-10,0448_eid_dnn_16-10-10_oven_10_n04111531_4900.png
swag_vit_b16_in1k,1,449,NaN,bear,boat,32-10-10,0449_eid_dnn_32-10-10_boat_10_n02951358_31973.png
swag_vit_b16_in1k,1,450,NaN,keyboard,keyboard,4-10-10,0450_eid_dnn_4-10-10_keyboard_10_n03085013_19842.png
swag_vit_b16_in1k,1,451,NaN,keyboard,keyboard,8-10-10,0451_eid_dnn_8-10-10_keyboard_10_n03085013_8296.png
swag_vit_b16_in1k,1,452,NaN,boat,car,16-10-10,0452_eid_dnn_16-10-10_car_10_n03100240_3528.png
swag_vit_b16_in1k,1,453,NaN,cat,cat,8-10-10,0453_eid_dnn_8-10-10_cat_10_n02123159_7210.png
swag_vit_b16_in1k,1,454,NaN,knife,knife,16-10-10,0454_eid_dnn_16-10-10_knife_10_n03041632_56172.png
swag_vit_b16_in1k,1,455,NaN,oven,oven,4-10-10,0455_eid_dnn_4-10-10_oven_10_n04111531_2116.png
swag_vit_b16_in1k,1,456,NaN,bicycle,bicycle,8-10-10,0456_eid_dnn_8-10-10_bicycle_10_n02835271_12477.png
swag_vit_b16_in1k,1,457,NaN,knife,knife,2-10-10,0457_eid_dnn_2-10-10_knife_10_n03041632_42472.png
swag_vit_b16_in1k,1,458,NaN,bottle,oven,2-10-10,0458_eid_dnn_2-10-10_oven_10_n04111531_8818.png
swag_vit_b16_in1k,1,459,NaN,truck,truck,2-10-10,0459_eid_dnn_2-10-10_truck_10_n04467665_67115.png
swag_vit_b16_in1k,1,460,NaN,bird,bird,4-10-10,0460_eid_dnn_4-10-10_bird_10_n02011460_3521.png
swag_vit_b16_in1k,1,461,NaN,bear,bear,64-10-10,0461_eid_dnn_64-10-10_bear_10_n02133161_3533.png
swag_vit_b16_in1k,1,462,NaN,bird,bird,8-10-10,0462_eid_dnn_8-10-10_bird_10_n02013706_637.png
swag_vit_b16_in1k,1,463,NaN,cat,bear,64-10-10,0463_eid_dnn_64-10-10_bear_10_n02132136_29636.png
swag_vit_b16_in1k,1,464,NaN,bicycle,bicycle,2-10-10,0464_eid_dnn_2-10-10_bicycle_10_n02835271_634.png
swag_vit_b16_in1k,1,465,NaN,keyboard,keyboard,1-10-10,0465_eid_dnn_1-10-10_keyboard_10_n04505470_4621.png
swag_vit_b16_in1k,1,466,NaN,boat,bear,16-10-10,0466_eid_dnn_16-10-10_bear_10_n02134084_2844.png
swag_vit_b16_in1k,1,467,NaN,bicycle,bicycle,4-10-10,0467_eid_dnn_4-10-10_bicycle_10_n03792782_17088.png
swag_vit_b16_in1k,1,468,NaN,clock,clock,4-10-10,0468_eid_dnn_4-10-10_clock_10_n03196217_8706.png
swag_vit_b16_in1k,1,469,NaN,chair,oven,4-10-10,0469_eid_dnn_4-10-10_oven_10_n04111531_15052.png
swag_vit_b16_in1k,1,470,NaN,airplane,bottle,16-10-10,0470_eid_dnn_16-10-10_bottle_10_n04560804_5769.png
swag_vit_b16_in1k,1,471,NaN,boat,dog,128-10-10,0471_eid_dnn_128-10-10_dog_10_n02110063_14116.png
swag_vit_b16_in1k,1,472,NaN,bicycle,cat,32-10-10,0472_eid_dnn_32-10-10_cat_10_n02124075_3609.png
swag_vit_b16_in1k,1,473,NaN,airplane,airplane,32-10-10,0473_eid_dnn_32-10-10_airplane_10_n02690373_10926.png
swag_vit_b16_in1k,1,474,NaN,airplane,bird,16-10-10,0474_eid_dnn_16-10-10_bird_10_n02033041_7229.png
swag_vit_b16_in1k,1,475,NaN,bird,bird,2-10-10,0475_eid_dnn_2-10-10_bird_10_n02006656_611.png
swag_vit_b16_in1k,1,476,NaN,dog,bear,16-10-10,0476_eid_dnn_16-10-10_bear_10_n02133161_958.png
swag_vit_b16_in1k,1,477,NaN,bird,bird,8-10-10,0477_eid_dnn_8-10-10_bird_10_n01843065_148.png
swag_vit_b16_in1k,1,478,NaN,clock,cat,32-10-10,0478_eid_dnn_32-10-10_cat_10_n02123597_13623.png
swag_vit_b16_in1k,1,479,NaN,bicycle,bicycle,8-10-10,0479_eid_dnn_8-10-10_bicycle_10_n02835271_12957.png
swag_vit_b16_in1k,1,480,NaN,knife,knife,8-10-10,0480_eid_dnn_8-10-10_knife_10_n03041632_96714.png
swag_vit_b16_in1k,1,481,NaN,bear,bear,128-10-10,0481_eid_dnn_128-10-10_bear_10_n02133161_3550.png
swag_vit_b16_in1k,1,482,NaN,airplane,airplane,2-10-10,0482_eid_dnn_2-10-10_airplane_10_n02690373_4471.png
swag_vit_b16_in1k,1,483,NaN,bear,airplane,64-10-10,0483_eid_dnn_64-10-10_airplane_10_n02690373_2026.png
swag_vit_b16_in1k,1,484,NaN,car,car,1-10-10,0484_eid_dnn_1-10-10_car_10_n03100240_18270.png
swag_vit_b16_in1k,1,485,NaN,dog,elephant,128-10-10,0485_eid_dnn_128-10-10_elephant_10_n02504458_5204.png
swag_vit_b16_in1k,1,486,NaN,oven,oven,1-10-10,0486_eid_dnn_1-10-10_oven_10_n04111531_10339.png
swag_vit_b16_in1k,1,487,NaN,elephant,elephant,2-10-10,0487_eid_dnn_2-10-10_elephant_10_n02504458_12705.png
swag_vit_b16_in1k,1,488,NaN,boat,boat,1-10-10,0488_eid_dnn_1-10-10_boat_10_n03344393_9268.png
swag_vit_b16_in1k,1,489,NaN,clock,bicycle,16-10-10,0489_eid_dnn_16-10-10_bicycle_10_n02835271_23173.png
swag_vit_b16_in1k,1,490,NaN,clock,knife,32-10-10,0490_eid_dnn_32-10-10_knife_10_n03041632_43975.png
swag_vit_b16_in1k,1,491,NaN,bear,bicycle,128-10-10,0491_eid_dnn_128-10-10_bicycle_10_n03792782_3299.png
swag_vit_b16_in1k,1,492,NaN,knife,boat,32-10-10,0492_eid_dnn_32-10-10_boat_10_n04273569_5679.png
swag_vit_b16_in1k,1,493,NaN,knife,bird,32-10-10,0493_eid_dnn_32-10-10_bird_10_n02056570_10127.png
swag_vit_b16_in1k,1,494,NaN,airplane,bear,32-10-10,0494_eid_dnn_32-10-10_bear_10_n02133161_7688.png
swag_vit_b16_in1k,1,495,NaN,clock,cat,16-10-10,0495_eid_dnn_16-10-10_cat_10_n02123597_624.png
swag_vit_b16_in1k,1,496,NaN,cat,bird,64-10-10,0496_eid_dnn_64-10-10_bird_10_n01560419_3399.png
swag_vit_b16_in1k,1,497,NaN,airplane,cat,32-10-10,0497_eid_dnn_32-10-10_cat_10_n02123045_12762.png
swag_vit_b16_in1k,1,498,NaN,airplane,car,16-10-10,0498_eid_dnn_16-10-10_car_10_n02814533_7247.png
swag_vit_b16_in1k,1,499,NaN,keyboard,keyboard,4-10-10,0499_eid_dnn_4-10-10_keyboard_10_n03085013_4941.png
swag_vit_b16_in1k,1,500,NaN,truck,truck,4-10-10,0500_eid_dnn_4-10-10_truck_10_n03417042_6420.png
swag_vit_b16_in1k,1,501,NaN,knife,boat,64-10-10,0501_eid_dnn_64-10-10_boat_10_n03662601_2120.png
swag_vit_b16_in1k,1,502,NaN,bear,bear,2-10-10,0502_eid_dnn_2-10-10_bear_10_n02134084_7331.png
swag_vit_b16_in1k,1,503,NaN,bear,bottle,32-10-10,0503_eid_dnn_32-10-10_bottle_10_n02823428_906.png
swag_vit_b16_in1k,1,504,NaN,cat,cat,16-10-10,0504_eid_dnn_16-10-10_cat_10_n02123394_270.png
swag_vit_b16_in1k,1,505,NaN,boat,boat,2-10-10,0505_eid_dnn_2-10-10_boat_10_n02951358_1910.png
swag_vit_b16_in1k,1,506,NaN,knife,knife,4-10-10,0506_eid_dnn_4-10-10_knife_10_n03041632_23678.png
swag_vit_b16_in1k,1,507,NaN,bicycle,car,16-10-10,0507_eid_dnn_16-10-10_car_10_n02814533_31083.png
swag_vit_b16_in1k,1,508,NaN,keyboard,keyboard,1-10-10,0508_eid_dnn_1-10-10_keyboard_10_n04505470_2881.png
swag_vit_b16_in1k,1,509,NaN,dog,cat,8-10-10,0509_eid_dnn_8-10-10_cat_10_n02125311_2923.png
swag_vit_b16_in1k,1,510,NaN,bicycle,bicycle,2-10-10,0510_eid_dnn_2-10-10_bicycle_10_n03792782_2598.png
swag_vit_b16_in1k,1,511,NaN,car,car,2-10-10,0511_eid_dnn_2-10-10_car_10_n03100240_4460.png
swag_vit_b16_in1k,1,512,NaN,cat,knife,4-10-10,0512_eid_dnn_4-10-10_knife_10_n03041632_29920.png
swag_vit_b16_in1k,1,513,NaN,bear,bird,32-10-10,0513_eid_dnn_32-10-10_bird_10_n01796340_3845.png
swag_vit_b16_in1k,1,514,NaN,keyboard,keyboard,8-10-10,0514_eid_dnn_8-10-10_keyboard_10_n03085013_21932.png
swag_vit_b16_in1k,1,515,NaN,bottle,bottle,1-10-10,0515_eid_dnn_1-10-10_bottle_10_n02823428_64.png
swag_vit_b16_in1k,1,516,NaN,chair,chair,8-10-10,0516_eid_dnn_8-10-10_chair_10_n04099969_4374.png
swag_vit_b16_in1k,1,517,NaN,clock,clock,1-10-10,0517_eid_dnn_1-10-10_clock_10_n02708093_8257.png
swag_vit_b16_in1k,1,518,NaN,bear,knife,16-10-10,0518_eid_dnn_16-10-10_knife_10_n03041632_45569.png
swag_vit_b16_in1k,1,519,NaN,bottle,chair,128-10-10,0519_eid_dnn_128-10-10_chair_10_n04099969_1850.png
swag_vit_b16_in1k,1,520,NaN,dog,dog,2-10-10,0520_eid_dnn_2-10-10_dog_10_n02092002_2008.png
swag_vit_b16_in1k,1,521,NaN,boat,bicycle,8-10-10,0521_eid_dnn_8-10-10_bicycle_10_n02835271_8105.png
swag_vit_b16_in1k,1,522,NaN,cat,oven,64-10-10,0522_eid_dnn_64-10-10_oven_10_n04111531_14126.png
swag_vit_b16_in1k,1,523,NaN,elephant,elephant,4-10-10,0523_eid_dnn_4-10-10_elephant_10_n02504013_13766.png
swag_vit_b16_in1k,1,524,NaN,airplane,bicycle,64-10-10,0524_eid_dnn_64-10-10_bicycle_10_n02835271_18361.png
swag_vit_b16_in1k,1,525,NaN,knife,bird,8-10-10,0525_eid_dnn_8-10-10_bird_10_n01582220_4708.png
swag_vit_b16_in1k,1,526,NaN,knife,chair,16-10-10,0526_eid_dnn_16-10-10_chair_10_n04099969_101.png
swag_vit_b16_in1k,1,527,NaN,cat,cat,1-10-10,0527_eid_dnn_1-10-10_cat_10_n02124075_724.png
swag_vit_b16_in1k,1,528,NaN,airplane,bicycle,32-10-10,0528_eid_dnn_32-10-10_bicycle_10_n02835271_43.png
swag_vit_b16_in1k,1,529,NaN,bird,bird,2-10-10,0529_eid_dnn_2-10-10_bird_10_n02017213_5362.png
swag_vit_b16_in1k,1,530,NaN,dog,dog,1-10-10,0530_eid_dnn_1-10-10_dog_10_n02088466_1769.png
swag_vit_b16_in1k,1,531,NaN,bear,bear,1-10-10,0531_eid_dnn_1-10-10_bear_10_n02133161_5653.png
swag_vit_b16_in1k,1,532,NaN,dog,dog,1-10-10,0532_eid_dnn_1-10-10_dog_10_n02098105_4676.png
swag_vit_b16_in1k,1,533,NaN,cat,cat,2-10-10,0533_eid_dnn_2-10-10_cat_10_n02123045_3593.png
swag_vit_b16_in1k,1,534,NaN,bear,bottle,8-10-10,0534_eid_dnn_8-10-10_bottle_10_n04560804_265.png
swag_vit_b16_in1k,1,535,NaN,dog,knife,128-10-10,0535_eid_dnn_128-10-10_knife_10_n03041632_1556.png
swag_vit_b16_in1k,1,536,NaN,chair,chair,4-10-10,0536_eid_dnn_4-10-10_chair_10_n02791124_9595.png
swag_vit_b16_in1k,1,537,NaN,bear,dog,32-10-10,0537_eid_dnn_32-10-10_dog_10_n02107312_2933.png
swag_vit_b16_in1k,1,538,NaN,clock,oven,32-10-10,0538_eid_dnn_32-10-10_oven_10_n04111531_101.png
swag_vit_b16_in1k,1,539,NaN,truck,truck,4-10-10,0539_eid_dnn_4-10-10_truck_10_n03417042_7204.png
swag_vit_b16_in1k,1,540,NaN,bear,bear,64-10-10,0540_eid_dnn_64-10-10_bear_10_n02132136_2120.png
swag_vit_b16_in1k,1,541,NaN,cat,airplane,64-10-10,0541_eid_dnn_64-10-10_airplane_10_n02690373_18412.png
swag_vit_b16_in1k,1,542,NaN,bottle,knife,128-10-10,0542_eid_dnn_128-10-10_knife_10_n03041632_21017.png
swag_vit_b16_in1k,1,543,NaN,dog,elephant,128-10-10,0543_eid_dnn_128-10-10_elephant_10_n02504458_8414.png
swag_vit_b16_in1k,1,544,NaN,bear,bottle,128-10-10,0544_eid_dnn_128-10-10_bottle_10_n04557648_11046.png
swag_vit_b16_in1k,1,545,NaN,dog,clock,64-10-10,0545_eid_dnn_64-10-10_clock_10_n03196217_10578.png
swag_vit_b16_in1k,1,546,NaN,bear,bear,2-10-10,0546_eid_dnn_2-10-10_bear_10_n02134418_3213.png
swag_vit_b16_in1k,1,547,NaN,clock,clock,64-10-10,0547_eid_dnn_64-10-10_clock_10_n03196217_6289.png
swag_vit_b16_in1k,1,548,NaN,bear,dog,32-10-10,0548_eid_dnn_32-10-10_dog_10_n02096294_1498.png
swag_vit_b16_in1k,1,549,NaN,knife,oven,16-10-10,0549_eid_dnn_16-10-10_oven_10_n04111531_519.png
swag_vit_b16_in1k,1,550,NaN,bird,bird,1-10-10,0550_eid_dnn_1-10-10_bird_10_n01531178_14959.png
swag_vit_b16_in1k,1,551,NaN,bear,bear,32-10-10,0551_eid_dnn_32-10-10_bear_10_n02132136_8754.png
swag_vit_b16_in1k,1,552,NaN,car,car,1-10-10,0552_eid_dnn_1-10-10_car_10_n02814533_73067.png
swag_vit_b16_in1k,1,553,NaN,dog,cat,8-10-10,0553_eid_dnn_8-10-10_cat_10_n02124075_15378.png
swag_vit_b16_in1k,1,554,NaN,bear,bird,128-10-10,0554_eid_dnn_128-10-10_bird_10_n01592084_7569.png
swag_vit_b16_in1k,1,555,NaN,cat,dog,128-10-10,0555_eid_dnn_128-10-10_dog_10_n02094114_3395.png
swag_vit_b16_in1k,1,556,NaN,chair,chair,4-10-10,0556_eid_dnn_4-10-10_chair_10_n03376595_1712.png
swag_vit_b16_in1k,1,557,NaN,knife,bear,64-10-10,0557_eid_dnn_64-10-10_bear_10_n02134084_622.png
swag_vit_b16_in1k,1,558,NaN,knife,clock,8-10-10,0558_eid_dnn_8-10-10_clock_10_n03196217_4912.png
swag_vit_b16_in1k,1,559,NaN,bear,car,64-10-10,0559_eid_dnn_64-10-10_car_10_n03100240_18815.png
swag_vit_b16_in1k,1,560,NaN,chair,chair,2-10-10,0560_eid_dnn_2-10-10_chair_10_n04099969_2020.png
swag_vit_b16_in1k,1,561,NaN,bear,bear,1-10-10,0561_eid_dnn_1-10-10_bear_10_n02132136_7647.png
swag_vit_b16_in1k,1,562,NaN,clock,oven,128-10-10,0562_eid_dnn_128-10-10_oven_10_n04111531_2796.png
swag_vit_b16_in1k,1,563,NaN,knife,truck,64-10-10,0563_eid_dnn_64-10-10_truck_10_n03796401_9472.png
swag_vit_b16_in1k,1,564,NaN,chair,chair,4-10-10,0564_eid_dnn_4-10-10_chair_10_n03376595_12433.png
swag_vit_b16_in1k,1,565,NaN,truck,truck,4-10-10,0565_eid_dnn_4-10-10_truck_10_n04467665_31539.png
swag_vit_b16_in1k,1,566,NaN,airplane,airplane,32-10-10,0566_eid_dnn_32-10-10_airplane_10_n02690373_10657.png
swag_vit_b16_in1k,1,567,NaN,boat,truck,16-10-10,0567_eid_dnn_16-10-10_truck_10_n03796401_5963.png
swag_vit_b16_in1k,1,568,NaN,bear,dog,64-10-10,0568_eid_dnn_64-10-10_dog_10_n02096294_2233.png
swag_vit_b16_in1k,1,569,NaN,bear,airplane,128-10-10,0569_eid_dnn_128-10-10_airplane_10_n02690373_4873.png
swag_vit_b16_in1k,1,570,NaN,truck,truck,1-10-10,0570_eid_dnn_1-10-10_truck_10_n04467665_4825.png
swag_vit_b16_in1k,1,571,NaN,chair,chair,16-10-10,0571_eid_dnn_16-10-10_chair_10_n04099969_1704.png
swag_vit_b16_in1k,1,572,NaN,bicycle,bicycle,2-10-10,0572_eid_dnn_2-10-10_bicycle_10_n02835271_1573.png
swag_vit_b16_in1k,1,573,NaN,boat,boat,2-10-10,0573_eid_dnn_2-10-10_boat_10_n04273569_12725.png
swag_vit_b16_in1k,1,574,NaN,bottle,knife,128-10-10,0574_eid_dnn_128-10-10_knife_10_n03041632_11285.png
swag_vit_b16_in1k,1,575,NaN,clock,clock,4-10-10,0575_eid_dnn_4-10-10_clock_10_n03196217_8254.png
swag_vit_b16_in1k,1,576,NaN,clock,knife,16-10-10,0576_eid_dnn_16-10-10_knife_10_n03041632_15099.png
swag_vit_b16_in1k,1,577,NaN,clock,cat,64-10-10,0577_eid_dnn_64-10-10_cat_10_n02125311_30452.png
swag_vit_b16_in1k,1,578,NaN,bottle,bottle,32-10-10,0578_eid_dnn_32-10-10_bottle_10_n04591713_6804.png
swag_vit_b16_in1k,1,579,NaN,bear,dog,64-10-10,0579_eid_dnn_64-10-10_dog_10_n02088364_14369.png
swag_vit_b16_in1k,1,580,NaN,knife,truck,32-10-10,0580_eid_dnn_32-10-10_truck_10_n03796401_16425.png
swag_vit_b16_in1k,1,581,NaN,bear,truck,64-10-10,0581_eid_dnn_64-10-10_truck_10_n03417042_5406.png
swag_vit_b16_in1k,1,582,NaN,knife,knife,1-10-10,0582_eid_dnn_1-10-10_knife_10_n03041632_52929.png
swag_vit_b16_in1k,1,583,NaN,bear,chair,64-10-10,0583_eid_dnn_64-10-10_chair_10_n03376595_4820.png
swag_vit_b16_in1k,1,584,NaN,chair,chair,1-10-10,0584_eid_dnn_1-10-10_chair_10_n03376595_787.png
swag_vit_b16_in1k,1,585,NaN,chair,chair,2-10-10,0585_eid_dnn_2-10-10_chair_10_n03376595_7709.png
swag_vit_b16_in1k,1,586,NaN,bottle,bottle,1-10-10,0586_eid_dnn_1-10-10_bottle_10_n03983396_11006.png
swag_vit_b16_in1k,1,587,NaN,bottle,oven,8-10-10,0587_eid_dnn_8-10-10_oven_10_n04111531_458.png
swag_vit_b16_in1k,1,588,NaN,cat,cat,128-10-10,0588_eid_dnn_128-10-10_cat_10_n02123045_7829.png
swag_vit_b16_in1k,1,589,NaN,bear,bear,1-10-10,0589_eid_dnn_1-10-10_bear_10_n02134418_4685.png
swag_vit_b16_in1k,1,590,NaN,oven,knife,64-10-10,0590_eid_dnn_64-10-10_knife_10_n03041632_1964.png
swag_vit_b16_in1k,1,591,NaN,car,car,4-10-10,0591_eid_dnn_4-10-10_car_10_n03100240_17472.png
swag_vit_b16_in1k,1,592,NaN,bear,dog,16-10-10,0592_eid_dnn_16-10-10_dog_10_n02113023_1980.png
swag_vit_b16_in1k,1,593,NaN,cat,dog,32-10-10,0593_eid_dnn_32-10-10_dog_10_n02100735_6359.png
swag_vit_b16_in1k,1,594,NaN,knife,knife,1-10-10,0594_eid_dnn_1-10-10_knife_10_n03041632_31849.png
swag_vit_b16_in1k,1,595,NaN,bird,bird,8-10-10,0595_eid_dnn_8-10-10_bird_10_n01532829_23378.png
swag_vit_b16_in1k,1,596,NaN,dog,clock,64-10-10,0596_eid_dnn_64-10-10_clock_10_n02708093_5127.png
swag_vit_b16_in1k,1,597,NaN,bear,bear,4-10-10,0597_eid_dnn_4-10-10_bear_10_n02134084_12148.png
swag_vit_b16_in1k,1,598,NaN,elephant,elephant,4-10-10,0598_eid_dnn_4-10-10_elephant_10_n02504458_63.png
swag_vit_b16_in1k,1,599,NaN,dog,dog,2-10-10,0599_eid_dnn_2-10-10_dog_10_n02108551_13160.png
swag_vit_b16_in1k,1,600,NaN,bicycle,bicycle,2-10-10,0600_eid_dnn_2-10-10_bicycle_10_n02835271_3215.png
swag_vit_b16_in1k,1,601,NaN,bicycle,bicycle,16-10-10,0601_eid_dnn_16-10-10_bicycle_10_n03792782_14216.png
swag_vit_b16_in1k,1,602,NaN,bicycle,bicycle,2-10-10,0602_eid_dnn_2-10-10_bicycle_10_n03792782_25352.png
swag_vit_b16_in1k,1,603,NaN,clock,boat,128-10-10,0603_eid_dnn_128-10-10_boat_10_n04273569_1482.png
swag_vit_b16_in1k,1,604,NaN,car,car,2-10-10,0604_eid_dnn_2-10-10_car_10_n02814533_59053.png
swag_vit_b16_in1k,1,605,NaN,knife,airplane,128-10-10,0605_eid_dnn_128-10-10_airplane_10_n02690373_10462.png
swag_vit_b16_in1k,1,606,NaN,bottle,bottle,8-10-10,0606_eid_dnn_8-10-10_bottle_10_n04560804_15379.png
swag_vit_b16_in1k,1,607,NaN,oven,chair,16-10-10,0607_eid_dnn_16-10-10_chair_10_n02791124_1140.png
swag_vit_b16_in1k,1,608,NaN,dog,dog,8-10-10,0608_eid_dnn_8-10-10_dog_10_n02101388_24945.png
swag_vit_b16_in1k,1,609,NaN,dog,cat,64-10-10,0609_eid_dnn_64-10-10_cat_10_n02124075_20957.png
swag_vit_b16_in1k,1,610,NaN,elephant,elephant,1-10-10,0610_eid_dnn_1-10-10_elephant_10_n02504013_8105.png
swag_vit_b16_in1k,1,611,NaN,truck,truck,2-10-10,0611_eid_dnn_2-10-10_truck_10_n03796401_13992.png
swag_vit_b16_in1k,1,612,NaN,dog,bottle,128-10-10,0612_eid_dnn_128-10-10_bottle_10_n04560804_22426.png
swag_vit_b16_in1k,1,613,NaN,cat,cat,1-10-10,0613_eid_dnn_1-10-10_cat_10_n02123159_2100.png
swag_vit_b16_in1k,1,614,NaN,boat,clock,64-10-10,0614_eid_dnn_64-10-10_clock_10_n02708093_6560.png
swag_vit_b16_in1k,1,615,NaN,bird,bird,1-10-10,0615_eid_dnn_1-10-10_bird_10_n01855032_4905.png
swag_vit_b16_in1k,1,616,NaN,clock,clock,2-10-10,0616_eid_dnn_2-10-10_clock_10_n04548280_2616.png
swag_vit_b16_in1k,1,617,NaN,truck,truck,2-10-10,0617_eid_dnn_2-10-10_truck_10_n03417042_3789.png
swag_vit_b16_in1k,1,618,NaN,knife,oven,64-10-10,0618_eid_dnn_64-10-10_oven_10_n04111531_7356.png
swag_vit_b16_in1k,1,619,NaN,cat,cat,4-10-10,0619_eid_dnn_4-10-10_cat_10_n02124075_18687.png
swag_vit_b16_in1k,1,620,NaN,keyboard,keyboard,8-10-10,0620_eid_dnn_8-10-10_keyboard_10_n03085013_17884.png
swag_vit_b16_in1k,1,621,NaN,keyboard,keyboard,2-10-10,0621_eid_dnn_2-10-10_keyboard_10_n03085013_4780.png
swag_vit_b16_in1k,1,622,NaN,dog,cat,16-10-10,0622_eid_dnn_16-10-10_cat_10_n02123045_15476.png
swag_vit_b16_in1k,1,623,NaN,keyboard,keyboard,4-10-10,0623_eid_dnn_4-10-10_keyboard_10_n03085013_6095.png
swag_vit_b16_in1k,1,624,NaN,airplane,airplane,1-10-10,0624_eid_dnn_1-10-10_airplane_10_n02690373_18848.png
swag_vit_b16_in1k,1,625,NaN,clock,bicycle,16-10-10,0625_eid_dnn_16-10-10_bicycle_10_n02835271_18706.png
swag_vit_b16_in1k,1,626,NaN,dog,dog,1-10-10,0626_eid_dnn_1-10-10_dog_10_n02111500_1393.png
swag_vit_b16_in1k,1,627,NaN,airplane,airplane,2-10-10,0627_eid_dnn_2-10-10_airplane_10_n02690373_5748.png
swag_vit_b16_in1k,1,628,NaN,knife,dog,128-10-10,0628_eid_dnn_128-10-10_dog_10_n02100877_7049.png
swag_vit_b16_in1k,1,629,NaN,bear,bear,32-10-10,0629_eid_dnn_32-10-10_bear_10_n02134084_6854.png
swag_vit_b16_in1k,1,630,NaN,oven,bottle,16-10-10,0630_eid_dnn_16-10-10_bottle_10_n03983396_11402.png
swag_vit_b16_in1k,1,631,NaN,knife,cat,64-10-10,0631_eid_dnn_64-10-10_cat_10_n02124075_2813.png
swag_vit_b16_in1k,1,632,NaN,bear,keyboard,32-10-10,0632_eid_dnn_32-10-10_keyboard_10_n03085013_23814.png
swag_vit_b16_in1k,1,633,NaN,cat,cat,2-10-10,0633_eid_dnn_2-10-10_cat_10_n02125311_30349.png
swag_vit_b16_in1k,1,634,NaN,dog,bear,16-10-10,0634_eid_dnn_16-10-10_bear_10_n02133161_1234.png
swag_vit_b16_in1k,1,635,NaN,bear,oven,128-10-10,0635_eid_dnn_128-10-10_oven_10_n04111531_9779.png
swag_vit_b16_in1k,1,636,NaN,bear,car,64-10-10,0636_eid_dnn_64-10-10_car_10_n02814533_19373.png
swag_vit_b16_in1k,1,637,NaN,bird,bird,4-10-10,0637_eid_dnn_4-10-10_bird_10_n02051845_41380.png
swag_vit_b16_in1k,1,638,NaN,knife,cat,16-10-10,0638_eid_dnn_16-10-10_cat_10_n02123159_2455.png
swag_vit_b16_in1k,1,639,NaN,knife,knife,8-10-10,0639_eid_dnn_8-10-10_knife_10_n03041632_23803.png
swag_vit_b16_in1k,1,640,NaN,dog,boat,16-10-10,0640_eid_dnn_16-10-10_boat_10_n02951358_2013.png
swag_vit_b16_in1k,1,641,NaN,clock,bottle,64-10-10,0641_eid_dnn_64-10-10_bottle_10_n04591713_6561.png
swag_vit_b16_in1k,1,642,NaN,knife,elephant,32-10-10,0642_eid_dnn_32-10-10_elephant_10_n02504013_12531.png
swag_vit_b16_in1k,1,643,NaN,boat,boat,64-10-10,0643_eid_dnn_64-10-10_boat_10_n04612504_4719.png
swag_vit_b16_in1k,1,644,NaN,clock,car,32-10-10,0644_eid_dnn_32-10-10_car_10_n02814533_46403.png
swag_vit_b16_in1k,1,645,NaN,airplane,airplane,8-10-10,0645_eid_dnn_8-10-10_airplane_10_n02690373_8304.png
swag_vit_b16_in1k,1,646,NaN,airplane,boat,16-10-10,0646_eid_dnn_16-10-10_boat_10_n03662601_2686.png
swag_vit_b16_in1k,1,647,NaN,dog,dog,2-10-10,0647_eid_dnn_2-10-10_dog_10_n02099849_2787.png
swag_vit_b16_in1k,1,648,NaN,elephant,elephant,1-10-10,0648_eid_dnn_1-10-10_elephant_10_n02504458_7063.png
swag_vit_b16_in1k,1,649,NaN,chair,chair,1-10-10,0649_eid_dnn_1-10-10_chair_10_n03376595_6938.png
swag_vit_b16_in1k,1,650,NaN,boat,chair,8-10-10,0650_eid_dnn_8-10-10_chair_10_n02791124_5191.png
swag_vit_b16_in1k,1,651,NaN,boat,boat,2-10-10,0651_eid_dnn_2-10-10_boat_10_n02951358_2350.png
swag_vit_b16_in1k,1,652,NaN,bear,bear,8-10-10,0652_eid_dnn_8-10-10_bear_10_n02132136_6266.png
swag_vit_b16_in1k,1,653,NaN,bear,chair,32-10-10,0653_eid_dnn_32-10-10_chair_10_n03376595_8964.png
swag_vit_b16_in1k,1,654,NaN,airplane,airplane,2-10-10,0654_eid_dnn_2-10-10_airplane_10_n02690373_4042.png
swag_vit_b16_in1k,1,655,NaN,oven,oven,2-10-10,0655_eid_dnn_2-10-10_oven_10_n04111531_845.png
swag_vit_b16_in1k,1,656,NaN,boat,car,32-10-10,0656_eid_dnn_32-10-10_car_10_n02814533_49630.png
swag_vit_b16_in1k,1,657,NaN,knife,knife,4-10-10,0657_eid_dnn_4-10-10_knife_10_n03041632_40450.png
swag_vit_b16_in1k,1,658,NaN,boat,chair,16-10-10,0658_eid_dnn_16-10-10_chair_10_n04429376_11720.png
swag_vit_b16_in1k,1,659,NaN,clock,knife,4-10-10,0659_eid_dnn_4-10-10_knife_10_n03041632_27929.png
swag_vit_b16_in1k,1,660,NaN,bird,bird,1-10-10,0660_eid_dnn_1-10-10_bird_10_n02018207_10146.png
swag_vit_b16_in1k,1,661,NaN,boat,elephant,32-10-10,0661_eid_dnn_32-10-10_elephant_10_n02504458_2471.png
swag_vit_b16_in1k,1,662,NaN,oven,oven,8-10-10,0662_eid_dnn_8-10-10_oven_10_n04111531_20511.png
swag_vit_b16_in1k,1,663,NaN,airplane,truck,32-10-10,0663_eid_dnn_32-10-10_truck_10_n03417042_3228.png
swag_vit_b16_in1k,1,664,NaN,cat,cat,2-10-10,0664_eid_dnn_2-10-10_cat_10_n02125311_9364.png
swag_vit_b16_in1k,1,665,NaN,car,car,2-10-10,0665_eid_dnn_2-10-10_car_10_n04285008_16701.png
swag_vit_b16_in1k,1,666,NaN,boat,boat,8-10-10,0666_eid_dnn_8-10-10_boat_10_n04273569_2667.png
swag_vit_b16_in1k,1,667,NaN,boat,boat,1-10-10,0667_eid_dnn_1-10-10_boat_10_n03662601_24208.png
swag_vit_b16_in1k,1,668,NaN,truck,truck,8-10-10,0668_eid_dnn_8-10-10_truck_10_n03417042_11037.png
swag_vit_b16_in1k,1,669,NaN,bird,bird,1-10-10,0669_eid_dnn_1-10-10_bird_10_n02002724_19618.png
swag_vit_b16_in1k,1,670,NaN,bear,bear,16-10-10,0670_eid_dnn_16-10-10_bear_10_n02134418_1663.png
swag_vit_b16_in1k,1,671,NaN,dog,chair,128-10-10,0671_eid_dnn_128-10-10_chair_10_n04099969_19484.png
swag_vit_b16_in1k,1,672,NaN,car,car,1-10-10,0672_eid_dnn_1-10-10_car_10_n04285008_2727.png
swag_vit_b16_in1k,1,673,NaN,boat,bicycle,32-10-10,0673_eid_dnn_32-10-10_bicycle_10_n03792782_14935.png
swag_vit_b16_in1k,1,674,NaN,bear,cat,128-10-10,0674_eid_dnn_128-10-10_cat_10_n02124075_8320.png
swag_vit_b16_in1k,1,675,NaN,chair,chair,4-10-10,0675_eid_dnn_4-10-10_chair_10_n04429376_57014.png
swag_vit_b16_in1k,1,676,NaN,oven,oven,1-10-10,0676_eid_dnn_1-10-10_oven_10_n04111531_2385.png
swag_vit_b16_in1k,1,677,NaN,bear,dog,64-10-10,0677_eid_dnn_64-10-10_dog_10_n02113023_10107.png
swag_vit_b16_in1k,1,678,NaN,bear,elephant,16-10-10,0678_eid_dnn_16-10-10_elephant_10_n02504458_4708.png
swag_vit_b16_in1k,1,679,NaN,cat,truck,64-10-10,0679_eid_dnn_64-10-10_truck_10_n04467665_70694.png
swag_vit_b16_in1k,1,680,NaN,bird,bird,1-10-10,0680_eid_dnn_1-10-10_bird_10_n01843065_1179.png
swag_vit_b16_in1k,1,681,NaN,truck,truck,1-10-10,0681_eid_dnn_1-10-10_truck_10_n03417042_11475.png
swag_vit_b16_in1k,1,682,NaN,dog,bicycle,64-10-10,0682_eid_dnn_64-10-10_bicycle_10_n02835271_6137.png
swag_vit_b16_in1k,1,683,NaN,boat,airplane,16-10-10,0683_eid_dnn_16-10-10_airplane_10_n02690373_10001.png
swag_vit_b16_in1k,1,684,NaN,cat,cat,2-10-10,0684_eid_dnn_2-10-10_cat_10_n02124075_17347.png
swag_vit_b16_in1k,1,685,NaN,clock,keyboard,16-10-10,0685_eid_dnn_16-10-10_keyboard_10_n04505470_647.png
swag_vit_b16_in1k,1,686,NaN,knife,bottle,4-10-10,0686_eid_dnn_4-10-10_bottle_10_n03983396_3028.png
swag_vit_b16_in1k,1,687,NaN,car,car,1-10-10,0687_eid_dnn_1-10-10_car_10_n02814533_81090.png
swag_vit_b16_in1k,1,688,NaN,bear,truck,32-10-10,0688_eid_dnn_32-10-10_truck_10_n03417042_18152.png
swag_vit_b16_in1k,1,689,NaN,clock,bird,128-10-10,0689_eid_dnn_128-10-10_bird_10_n02033041_617.png
swag_vit_b16_in1k,1,690,NaN,cat,cat,64-10-10,0690_eid_dnn_64-10-10_cat_10_n02123159_7270.png
swag_vit_b16_in1k,1,691,NaN,knife,bird,64-10-10,0691_eid_dnn_64-10-10_bird_10_n01532829_20405.png
swag_vit_b16_in1k,1,692,NaN,bear,bottle,32-10-10,0692_eid_dnn_32-10-10_bottle_10_n04557648_182.png
swag_vit_b16_in1k,1,693,NaN,bear,car,64-10-10,0693_eid_dnn_64-10-10_car_10_n04285008_11745.png
swag_vit_b16_in1k,1,694,NaN,bear,bear,4-10-10,0694_eid_dnn_4-10-10_bear_10_n02134084_38915.png
swag_vit_b16_in1k,1,695,NaN,keyboard,keyboard,8-10-10,0695_eid_dnn_8-10-10_keyboard_10_n03085013_21066.png
swag_vit_b16_in1k,1,696,NaN,bear,bear,2-10-10,0696_eid_dnn_2-10-10_bear_10_n02133161_6458.png
swag_vit_b16_in1k,1,697,NaN,bear,truck,128-10-10,0697_eid_dnn_128-10-10_truck_10_n04467665_67909.png
swag_vit_b16_in1k,1,698,NaN,car,car,4-10-10,0698_eid_dnn_4-10-10_car_10_n04285008_12691.png
swag_vit_b16_in1k,1,699,NaN,bicycle,truck,8-10-10,0699_eid_dnn_8-10-10_truck_10_n04467665_69882.png
swag_vit_b16_in1k,1,700,NaN,cat,cat,4-10-10,0700_eid_dnn_4-10-10_cat_10_n02123045_1902.png
swag_vit_b16_in1k,1,701,NaN,car,car,4-10-10,0701_eid_dnn_4-10-10_car_10_n03100240_5709.png
swag_vit_b16_in1k,1,702,NaN,dog,bear,8-10-10,0702_eid_dnn_8-10-10_bear_10_n02134084_1938.png
swag_vit_b16_in1k,1,703,NaN,clock,clock,2-10-10,0703_eid_dnn_2-10-10_clock_10_n02708093_6820.png
swag_vit_b16_in1k,1,704,NaN,airplane,airplane,1-10-10,0704_eid_dnn_1-10-10_airplane_10_n02690373_5689.png
swag_vit_b16_in1k,1,705,NaN,boat,elephant,16-10-10,0705_eid_dnn_16-10-10_elephant_10_n02504013_8563.png
swag_vit_b16_in1k,1,706,NaN,knife,bottle,16-10-10,0706_eid_dnn_16-10-10_bottle_10_n03937543_7767.png
swag_vit_b16_in1k,1,707,NaN,cat,keyboard,128-10-10,0707_eid_dnn_128-10-10_keyboard_10_n03085013_6862.png
swag_vit_b16_in1k,1,708,NaN,bottle,bottle,2-10-10,0708_eid_dnn_2-10-10_bottle_10_n03937543_1413.png
swag_vit_b16_in1k,1,709,NaN,clock,truck,8-10-10,0709_eid_dnn_8-10-10_truck_10_n03796401_17201.png
swag_vit_b16_in1k,1,710,NaN,airplane,cat,32-10-10,0710_eid_dnn_32-10-10_cat_10_n02125311_13152.png
swag_vit_b16_in1k,1,711,NaN,boat,truck,8-10-10,0711_eid_dnn_8-10-10_truck_10_n03796401_14203.png
swag_vit_b16_in1k,1,712,NaN,oven,bird,32-10-10,0712_eid_dnn_32-10-10_bird_10_n01537544_3720.png
swag_vit_b16_in1k,1,713,NaN,dog,boat,128-10-10,0713_eid_dnn_128-10-10_boat_10_n02951358_14346.png
swag_vit_b16_in1k,1,714,NaN,bear,airplane,64-10-10,0714_eid_dnn_64-10-10_airplane_10_n02690373_757.png
swag_vit_b16_in1k,1,715,NaN,clock,clock,16-10-10,0715_eid_dnn_16-10-10_clock_10_n04548280_8304.png
swag_vit_b16_in1k,1,716,NaN,cat,knife,32-10-10,0716_eid_dnn_32-10-10_knife_10_n03041632_20697.png
swag_vit_b16_in1k,1,717,NaN,knife,clock,128-10-10,0717_eid_dnn_128-10-10_clock_10_n02708093_7883.png
swag_vit_b16_in1k,1,718,NaN,oven,oven,4-10-10,0718_eid_dnn_4-10-10_oven_10_n04111531_14559.png
swag_vit_b16_in1k,1,719,NaN,cat,oven,64-10-10,0719_eid_dnn_64-10-10_oven_10_n04111531_5906.png
swag_vit_b16_in1k,1,720,NaN,knife,knife,2-10-10,0720_eid_dnn_2-10-10_knife_10_n03041632_4279.png
swag_vit_b16_in1k,1,721,NaN,bear,dog,128-10-10,0721_eid_dnn_128-10-10_dog_10_n02099601_7103.png
swag_vit_b16_in1k,1,722,NaN,bear,oven,64-10-10,0722_eid_dnn_64-10-10_oven_10_n04111531_5351.png
swag_vit_b16_in1k,1,723,NaN,bicycle,bicycle,4-10-10,0723_eid_dnn_4-10-10_bicycle_10_n03792782_7518.png
swag_vit_b16_in1k,1,724,NaN,airplane,bottle,32-10-10,0724_eid_dnn_32-10-10_bottle_10_n03983396_4321.png
swag_vit_b16_in1k,1,725,NaN,cat,cat,1-10-10,0725_eid_dnn_1-10-10_cat_10_n02123394_7782.png
swag_vit_b16_in1k,1,726,NaN,oven,chair,64-10-10,0726_eid_dnn_64-10-10_chair_10_n02791124_3656.png
swag_vit_b16_in1k,1,727,NaN,dog,truck,128-10-10,0727_eid_dnn_128-10-10_truck_10_n04467665_15235.png
swag_vit_b16_in1k,1,728,NaN,bear,clock,128-10-10,0728_eid_dnn_128-10-10_clock_10_n02708093_7054.png
swag_vit_b16_in1k,1,729,NaN,dog,elephant,8-10-10,0729_eid_dnn_8-10-10_elephant_10_n02504013_6737.png
swag_vit_b16_in1k,1,730,NaN,boat,boat,1-10-10,0730_eid_dnn_1-10-10_boat_10_n02951358_3452.png
swag_vit_b16_in1k,1,731,NaN,dog,bird,32-10-10,0731_eid_dnn_32-10-10_bird_10_n01537544_5944.png
swag_vit_b16_in1k,1,732,NaN,bear,car,64-10-10,0732_eid_dnn_64-10-10_car_10_n04285008_3280.png
swag_vit_b16_in1k,1,733,NaN,oven,oven,8-10-10,0733_eid_dnn_8-10-10_oven_10_n04111531_24096.png
swag_vit_b16_in1k,1,734,NaN,oven,oven,16-10-10,0734_eid_dnn_16-10-10_oven_10_n04111531_8181.png
swag_vit_b16_in1k,1,735,NaN,cat,bird,128-10-10,0735_eid_dnn_128-10-10_bird_10_n01833805_8028.png
swag_vit_b16_in1k,1,736,NaN,dog,cat,16-10-10,0736_eid_dnn_16-10-10_cat_10_n02123045_11955.png
swag_vit_b16_in1k,1,737,NaN,airplane,airplane,16-10-10,0737_eid_dnn_16-10-10_airplane_10_n02690373_9423.png
swag_vit_b16_in1k,1,738,NaN,keyboard,knife,16-10-10,0738_eid_dnn_16-10-10_knife_10_n03041632_13478.png
swag_vit_b16_in1k,1,739,NaN,bottle,bottle,2-10-10,0739_eid_dnn_2-10-10_bottle_10_n03983396_795.png
swag_vit_b16_in1k,1,740,NaN,dog,bottle,128-10-10,0740_eid_dnn_128-10-10_bottle_10_n02823428_8079.png
swag_vit_b16_in1k,1,741,NaN,knife,car,16-10-10,0741_eid_dnn_16-10-10_car_10_n03100240_17289.png
swag_vit_b16_in1k,1,742,NaN,bear,bear,4-10-10,0742_eid_dnn_4-10-10_bear_10_n02132136_1646.png
swag_vit_b16_in1k,1,743,NaN,bear,boat,64-10-10,0743_eid_dnn_64-10-10_boat_10_n04273569_30203.png
swag_vit_b16_in1k,1,744,NaN,bear,knife,128-10-10,0744_eid_dnn_128-10-10_knife_10_n03041632_47703.png
swag_vit_b16_in1k,1,745,NaN,airplane,airplane,1-10-10,0745_eid_dnn_1-10-10_airplane_10_n02690373_3928.png
swag_vit_b16_in1k,1,746,NaN,dog,dog,8-10-10,0746_eid_dnn_8-10-10_dog_10_n02093991_4977.png
swag_vit_b16_in1k,1,747,NaN,dog,dog,4-10-10,0747_eid_dnn_4-10-10_dog_10_n02113712_5816.png
swag_vit_b16_in1k,1,748,NaN,car,car,2-10-10,0748_eid_dnn_2-10-10_car_10_n02814533_62992.png
swag_vit_b16_in1k,1,749,NaN,bear,bear,2-10-10,0749_eid_dnn_2-10-10_bear_10_n02134084_4818.png
swag_vit_b16_in1k,1,750,NaN,dog,elephant,128-10-10,0750_eid_dnn_128-10-10_elephant_10_n02504458_5333.png
swag_vit_b16_in1k,1,751,NaN,bottle,bottle,1-10-10,0751_eid_dnn_1-10-10_bottle_10_n04560804_17045.png
swag_vit_b16_in1k,1,752,NaN,oven,oven,1-10-10,0752_eid_dnn_1-10-10_oven_10_n04111531_3126.png
swag_vit_b16_in1k,1,753,NaN,bear,oven,16-10-10,0753_eid_dnn_16-10-10_oven_10_n04111531_13831.png
swag_vit_b16_in1k,1,754,NaN,knife,truck,16-10-10,0754_eid_dnn_16-10-10_truck_10_n03417042_6941.png
swag_vit_b16_in1k,1,755,NaN,bird,bird,16-10-10,0755_eid_dnn_16-10-10_bird_10_n02017213_1619.png
swag_vit_b16_in1k,1,756,NaN,cat,cat,4-10-10,0756_eid_dnn_4-10-10_cat_10_n02123159_273.png
swag_vit_b16_in1k,1,757,NaN,cat,chair,64-10-10,0757_eid_dnn_64-10-10_chair_10_n04429376_11956.png
swag_vit_b16_in1k,1,758,NaN,boat,boat,4-10-10,0758_eid_dnn_4-10-10_boat_10_n03344393_11788.png
swag_vit_b16_in1k,1,759,NaN,clock,oven,16-10-10,0759_eid_dnn_16-10-10_oven_10_n04111531_8852.png
swag_vit_b16_in1k,1,760,NaN,knife,bottle,32-10-10,0760_eid_dnn_32-10-10_bottle_10_n04591713_6024.png
swag_vit_b16_in1k,1,761,NaN,clock,chair,16-10-10,0761_eid_dnn_16-10-10_chair_10_n03376595_5304.png
swag_vit_b16_in1k,1,762,NaN,cat,truck,64-10-10,0762_eid_dnn_64-10-10_truck_10_n03417042_18072.png
swag_vit_b16_in1k,1,763,NaN,knife,car,128-10-10,0763_eid_dnn_128-10-10_car_10_n04285008_8727.png
swag_vit_b16_in1k,1,764,NaN,truck,truck,1-10-10,0764_eid_dnn_1-10-10_truck_10_n03417042_29384.png
swag_vit_b16_in1k,1,765,NaN,elephant,elephant,4-10-10,0765_eid_dnn_4-10-10_elephant_10_n02504013_14440.png
swag_vit_b16_in1k,1,766,NaN,bird,bird,4-10-10,0766_eid_dnn_4-10-10_bird_10_n02007558_16547.png
swag_vit_b16_in1k,1,767,NaN,cat,knife,32-10-10,0767_eid_dnn_32-10-10_knife_10_n03041632_44212.png
swag_vit_b16_in1k,1,768,NaN,elephant,elephant,2-10-10,0768_eid_dnn_2-10-10_elephant_10_n02504458_14308.png
swag_vit_b16_in1k,1,769,NaN,knife,knife,8-10-10,0769_eid_dnn_8-10-10_knife_10_n03041632_31363.png
swag_vit_b16_in1k,1,770,NaN,airplane,airplane,8-10-10,0770_eid_dnn_8-10-10_airplane_10_n02690373_1563.png
swag_vit_b16_in1k,1,771,NaN,bear,bear,128-10-10,0771_eid_dnn_128-10-10_bear_10_n02132136_1624.png
swag_vit_b16_in1k,1,772,NaN,oven,oven,2-10-10,0772_eid_dnn_2-10-10_oven_10_n04111531_13625.png
swag_vit_b16_in1k,1,773,NaN,cat,cat,4-10-10,0773_eid_dnn_4-10-10_cat_10_n02125311_27989.png
swag_vit_b16_in1k,1,774,NaN,dog,knife,64-10-10,0774_eid_dnn_64-10-10_knife_10_n03041632_17091.png
swag_vit_b16_in1k,1,775,NaN,airplane,keyboard,8-10-10,0775_eid_dnn_8-10-10_keyboard_10_n03085013_18785.png
swag_vit_b16_in1k,1,776,NaN,clock,clock,2-10-10,0776_eid_dnn_2-10-10_clock_10_n04548280_3610.png
swag_vit_b16_in1k,1,777,NaN,knife,knife,1-10-10,0777_eid_dnn_1-10-10_knife_10_n03041632_25656.png
swag_vit_b16_in1k,1,778,NaN,clock,clock,4-10-10,0778_eid_dnn_4-10-10_clock_10_n04548280_10183.png
swag_vit_b16_in1k,1,779,NaN,dog,cat,128-10-10,0779_eid_dnn_128-10-10_cat_10_n02123045_991.png
swag_vit_b16_in1k,1,780,NaN,boat,boat,2-10-10,0780_eid_dnn_2-10-10_boat_10_n03344393_12262.png
swag_vit_b16_in1k,1,781,NaN,bear,cat,32-10-10,0781_eid_dnn_32-10-10_cat_10_n02125311_57758.png
swag_vit_b16_in1k,1,782,NaN,dog,dog,2-10-10,0782_eid_dnn_2-10-10_dog_10_n02110806_5427.png
swag_vit_b16_in1k,1,783,NaN,car,car,2-10-10,0783_eid_dnn_2-10-10_car_10_n02814533_9812.png
swag_vit_b16_in1k,1,784,NaN,chair,chair,16-10-10,0784_eid_dnn_16-10-10_chair_10_n04429376_13751.png
swag_vit_b16_in1k,1,785,NaN,knife,keyboard,128-10-10,0785_eid_dnn_128-10-10_keyboard_10_n03085013_3257.png
swag_vit_b16_in1k,1,786,NaN,airplane,airplane,16-10-10,0786_eid_dnn_16-10-10_airplane_10_n02690373_4079.png
swag_vit_b16_in1k,1,787,NaN,knife,keyboard,128-10-10,0787_eid_dnn_128-10-10_keyboard_10_n03085013_24963.png
swag_vit_b16_in1k,1,788,NaN,knife,boat,32-10-10,0788_eid_dnn_32-10-10_boat_10_n03344393_6978.png
swag_vit_b16_in1k,1,789,NaN,dog,truck,64-10-10,0789_eid_dnn_64-10-10_truck_10_n03796401_10276.png
swag_vit_b16_in1k,1,790,NaN,oven,truck,8-10-10,0790_eid_dnn_8-10-10_truck_10_n03417042_19047.png
swag_vit_b16_in1k,1,791,NaN,bear,knife,64-10-10,0791_eid_dnn_64-10-10_knife_10_n03041632_55953.png
swag_vit_b16_in1k,1,792,NaN,bird,bird,4-10-10,0792_eid_dnn_4-10-10_bird_10_n01558993_4801.png
swag_vit_b16_in1k,1,793,NaN,knife,bird,32-10-10,0793_eid_dnn_32-10-10_bird_10_n01824575_12101.png
swag_vit_b16_in1k,1,794,NaN,bear,oven,128-10-10,0794_eid_dnn_128-10-10_oven_10_n04111531_12769.png
swag_vit_b16_in1k,1,795,NaN,boat,bird,16-10-10,0795_eid_dnn_16-10-10_bird_10_n02009229_5090.png
swag_vit_b16_in1k,1,796,NaN,airplane,dog,32-10-10,0796_eid_dnn_32-10-10_dog_10_n02102040_2743.png
swag_vit_b16_in1k,1,797,NaN,clock,clock,4-10-10,0797_eid_dnn_4-10-10_clock_10_n02708093_6673.png
swag_vit_b16_in1k,1,798,NaN,airplane,cat,16-10-10,0798_eid_dnn_16-10-10_cat_10_n02123159_6954.png
swag_vit_b16_in1k,1,799,NaN,clock,chair,32-10-10,0799_eid_dnn_32-10-10_chair_10_n04099969_25327.png
swag_vit_b16_in1k,1,800,NaN,boat,truck,16-10-10,0800_eid_dnn_16-10-10_truck_10_n04467665_11776.png
swag_vit_b16_in1k,1,801,NaN,knife,knife,32-10-10,0801_eid_dnn_32-10-10_knife_10_n03041632_26340.png
swag_vit_b16_in1k,1,802,NaN,bear,oven,32-10-10,0802_eid_dnn_32-10-10_oven_10_n04111531_1362.png
swag_vit_b16_in1k,1,803,NaN,bicycle,bicycle,8-10-10,0803_eid_dnn_8-10-10_bicycle_10_n02835271_419.png
swag_vit_b16_in1k,1,804,NaN,bicycle,bicycle,2-10-10,0804_eid_dnn_2-10-10_bicycle_10_n03792782_11720.png
swag_vit_b16_in1k,1,805,NaN,elephant,elephant,4-10-10,0805_eid_dnn_4-10-10_elephant_10_n02504013_19769.png
swag_vit_b16_in1k,1,806,NaN,dog,keyboard,64-10-10,0806_eid_dnn_64-10-10_keyboard_10_n03085013_19891.png
swag_vit_b16_in1k,1,807,NaN,bear,airplane,64-10-10,0807_eid_dnn_64-10-10_airplane_10_n02690373_1862.png
swag_vit_b16_in1k,1,808,NaN,airplane,bird,16-10-10,0808_eid_dnn_16-10-10_bird_10_n01616318_8488.png
swag_vit_b16_in1k,1,809,NaN,boat,car,32-10-10,0809_eid_dnn_32-10-10_car_10_n03100240_20061.png
swag_vit_b16_in1k,1,810,NaN,chair,chair,4-10-10,0810_eid_dnn_4-10-10_chair_10_n04099969_17866.png
swag_vit_b16_in1k,1,811,NaN,elephant,elephant,8-10-10,0811_eid_dnn_8-10-10_elephant_10_n02504458_6931.png
swag_vit_b16_in1k,1,812,NaN,bear,bear,16-10-10,0812_eid_dnn_16-10-10_bear_10_n02134418_2714.png
swag_vit_b16_in1k,1,813,NaN,dog,dog,32-10-10,0813_eid_dnn_32-10-10_dog_10_n02111277_21812.png
swag_vit_b16_in1k,1,814,NaN,dog,dog,16-10-10,0814_eid_dnn_16-10-10_dog_10_n02086646_7544.png
swag_vit_b16_in1k,1,815,NaN,boat,boat,16-10-10,0815_eid_dnn_16-10-10_boat_10_n02951358_33918.png
swag_vit_b16_in1k,1,816,NaN,bear,oven,16-10-10,0816_eid_dnn_16-10-10_oven_10_n04111531_7130.png
swag_vit_b16_in1k,1,817,NaN,clock,clock,32-10-10,0817_eid_dnn_32-10-10_clock_10_n04548280_5937.png
swag_vit_b16_in1k,1,818,NaN,airplane,bird,32-10-10,0818_eid_dnn_32-10-10_bird_10_n01819313_1422.png
swag_vit_b16_in1k,1,819,NaN,elephant,elephant,4-10-10,0819_eid_dnn_4-10-10_elephant_10_n02504458_7342.png
swag_vit_b16_in1k,1,820,NaN,bear,knife,128-10-10,0820_eid_dnn_128-10-10_knife_10_n03041632_7982.png
swag_vit_b16_in1k,1,821,NaN,airplane,airplane,8-10-10,0821_eid_dnn_8-10-10_airplane_10_n02690373_4586.png
swag_vit_b16_in1k,1,822,NaN,clock,clock,16-10-10,0822_eid_dnn_16-10-10_clock_10_n02708093_4255.png
swag_vit_b16_in1k,1,823,NaN,dog,oven,128-10-10,0823_eid_dnn_128-10-10_oven_10_n04111531_3191.png
swag_vit_b16_in1k,1,824,NaN,airplane,airplane,1-10-10,0824_eid_dnn_1-10-10_airplane_10_n02690373_5465.png
swag_vit_b16_in1k,1,825,NaN,boat,chair,64-10-10,0825_eid_dnn_64-10-10_chair_10_n02791124_373.png
swag_vit_b16_in1k,1,826,NaN,boat,boat,32-10-10,0826_eid_dnn_32-10-10_boat_10_n03662601_1158.png
swag_vit_b16_in1k,1,827,NaN,bear,elephant,64-10-10,0827_eid_dnn_64-10-10_elephant_10_n02504013_978.png
swag_vit_b16_in1k,1,828,NaN,oven,chair,32-10-10,0828_eid_dnn_32-10-10_chair_10_n02791124_6492.png
swag_vit_b16_in1k,1,829,NaN,car,car,1-10-10,0829_eid_dnn_1-10-10_car_10_n03100240_9892.png
swag_vit_b16_in1k,1,830,NaN,airplane,airplane,4-10-10,0830_eid_dnn_4-10-10_airplane_10_n02690373_1489.png
swag_vit_b16_in1k,1,831,NaN,bottle,dog,128-10-10,0831_eid_dnn_128-10-10_dog_10_n02090622_7102.png
swag_vit_b16_in1k,1,832,NaN,boat,boat,2-10-10,0832_eid_dnn_2-10-10_boat_10_n04273569_72.png
swag_vit_b16_in1k,1,833,NaN,bicycle,bicycle,2-10-10,0833_eid_dnn_2-10-10_bicycle_10_n02835271_2625.png
swag_vit_b16_in1k,1,834,NaN,bear,cat,64-10-10,0834_eid_dnn_64-10-10_cat_10_n02123159_15664.png
swag_vit_b16_in1k,1,835,NaN,clock,clock,1-10-10,0835_eid_dnn_1-10-10_clock_10_n04548280_4562.png
swag_vit_b16_in1k,1,836,NaN,bottle,bottle,2-10-10,0836_eid_dnn_2-10-10_bottle_10_n04591713_6905.png
swag_vit_b16_in1k,1,837,NaN,airplane,airplane,4-10-10,0837_eid_dnn_4-10-10_airplane_10_n02690373_166.png
swag_vit_b16_in1k,1,838,NaN,oven,oven,2-10-10,0838_eid_dnn_2-10-10_oven_10_n04111531_3193.png
swag_vit_b16_in1k,1,839,NaN,elephant,elephant,16-10-10,0839_eid_dnn_16-10-10_elephant_10_n02504458_5274.png
swag_vit_b16_in1k,1,840,NaN,airplane,keyboard,64-10-10,0840_eid_dnn_64-10-10_keyboard_10_n04505470_5131.png
swag_vit_b16_in1k,1,841,NaN,airplane,airplane,2-10-10,0841_eid_dnn_2-10-10_airplane_10_n02690373_19074.png
swag_vit_b16_in1k,1,842,NaN,dog,bottle,64-10-10,0842_eid_dnn_64-10-10_bottle_10_n03983396_16257.png
swag_vit_b16_in1k,1,843,NaN,bear,bear,32-10-10,0843_eid_dnn_32-10-10_bear_10_n02134418_3470.png
swag_vit_b16_in1k,1,844,NaN,bear,bear,8-10-10,0844_eid_dnn_8-10-10_bear_10_n02132136_3196.png
swag_vit_b16_in1k,1,845,NaN,dog,bear,128-10-10,0845_eid_dnn_128-10-10_bear_10_n02133161_10184.png
swag_vit_b16_in1k,1,846,NaN,dog,truck,128-10-10,0846_eid_dnn_128-10-10_truck_10_n03417042_3351.png
swag_vit_b16_in1k,1,847,NaN,bear,bird,128-10-10,0847_eid_dnn_128-10-10_bird_10_n02013706_6676.png
swag_vit_b16_in1k,1,848,NaN,cat,airplane,128-10-10,0848_eid_dnn_128-10-10_airplane_10_n02690373_9946.png
swag_vit_b16_in1k,1,849,NaN,knife,car,32-10-10,0849_eid_dnn_32-10-10_car_10_n04285008_8838.png
swag_vit_b16_in1k,1,850,NaN,knife,car,128-10-10,0850_eid_dnn_128-10-10_car_10_n02814533_40350.png
swag_vit_b16_in1k,1,851,NaN,cat,cat,1-10-10,0851_eid_dnn_1-10-10_cat_10_n02123159_12734.png
swag_vit_b16_in1k,1,852,NaN,airplane,airplane,2-10-10,0852_eid_dnn_2-10-10_airplane_10_n02690373_17063.png
swag_vit_b16_in1k,1,853,NaN,bottle,bottle,4-10-10,0853_eid_dnn_4-10-10_bottle_10_n04560804_31443.png
swag_vit_b16_in1k,1,854,NaN,keyboard,keyboard,2-10-10,0854_eid_dnn_2-10-10_keyboard_10_n03085013_22713.png
swag_vit_b16_in1k,1,855,NaN,truck,truck,1-10-10,0855_eid_dnn_1-10-10_truck_10_n04467665_21969.png
swag_vit_b16_in1k,1,856,NaN,bear,bear,16-10-10,0856_eid_dnn_16-10-10_bear_10_n02134084_712.png
swag_vit_b16_in1k,1,857,NaN,bear,oven,128-10-10,0857_eid_dnn_128-10-10_oven_10_n04111531_15635.png
swag_vit_b16_in1k,1,858,NaN,dog,keyboard,128-10-10,0858_eid_dnn_128-10-10_keyboard_10_n03085013_5568.png
swag_vit_b16_in1k,1,859,NaN,knife,chair,128-10-10,0859_eid_dnn_128-10-10_chair_10_n02791124_1059.png
swag_vit_b16_in1k,1,860,NaN,airplane,airplane,4-10-10,0860_eid_dnn_4-10-10_airplane_10_n02690373_4866.png
swag_vit_b16_in1k,1,861,NaN,cat,dog,128-10-10,0861_eid_dnn_128-10-10_dog_10_n02086910_13835.png
swag_vit_b16_in1k,1,862,NaN,knife,knife,1-10-10,0862_eid_dnn_1-10-10_knife_10_n03041632_9488.png
swag_vit_b16_in1k,1,863,NaN,airplane,airplane,2-10-10,0863_eid_dnn_2-10-10_airplane_10_n02690373_9170.png
swag_vit_b16_in1k,1,864,NaN,boat,boat,8-10-10,0864_eid_dnn_8-10-10_boat_10_n03662601_12323.png
swag_vit_b16_in1k,1,865,NaN,bear,boat,128-10-10,0865_eid_dnn_128-10-10_boat_10_n02951358_3188.png
swag_vit_b16_in1k,1,866,NaN,clock,cat,64-10-10,0866_eid_dnn_64-10-10_cat_10_n02123159_4051.png
swag_vit_b16_in1k,1,867,NaN,bottle,airplane,64-10-10,0867_eid_dnn_64-10-10_airplane_10_n02690373_10931.png
swag_vit_b16_in1k,1,868,NaN,bicycle,clock,16-10-10,0868_eid_dnn_16-10-10_clock_10_n04548280_6989.png
swag_vit_b16_in1k,1,869,NaN,bear,car,64-10-10,0869_eid_dnn_64-10-10_car_10_n02814533_52045.png
swag_vit_b16_in1k,1,870,NaN,chair,chair,1-10-10,0870_eid_dnn_1-10-10_chair_10_n04099969_5524.png
swag_vit_b16_in1k,1,871,NaN,bear,clock,128-10-10,0871_eid_dnn_128-10-10_clock_10_n04548280_8162.png
swag_vit_b16_in1k,1,872,NaN,bear,bear,1-10-10,0872_eid_dnn_1-10-10_bear_10_n02132136_7796.png
swag_vit_b16_in1k,1,873,NaN,car,car,4-10-10,0873_eid_dnn_4-10-10_car_10_n04285008_10442.png
swag_vit_b16_in1k,1,874,NaN,bottle,bottle,16-10-10,0874_eid_dnn_16-10-10_bottle_10_n04579145_5777.png
swag_vit_b16_in1k,1,875,NaN,bicycle,bicycle,1-10-10,0875_eid_dnn_1-10-10_bicycle_10_n03792782_13324.png
swag_vit_b16_in1k,1,876,NaN,bird,bird,1-10-10,0876_eid_dnn_1-10-10_bird_10_n01860187_18561.png
swag_vit_b16_in1k,1,877,NaN,airplane,airplane,1-10-10,0877_eid_dnn_1-10-10_airplane_10_n02690373_13324.png
swag_vit_b16_in1k,1,878,NaN,knife,knife,1-10-10,0878_eid_dnn_1-10-10_knife_10_n03041632_89391.png
swag_vit_b16_in1k,1,879,NaN,bear,car,16-10-10,0879_eid_dnn_16-10-10_car_10_n02814533_69750.png
swag_vit_b16_in1k,1,880,NaN,car,car,8-10-10,0880_eid_dnn_8-10-10_car_10_n04285008_12589.png
swag_vit_b16_in1k,1,881,NaN,chair,knife,1-10-10,0881_eid_dnn_1-10-10_knife_10_n03041632_98864.png
swag_vit_b16_in1k,1,882,NaN,cat,cat,4-10-10,0882_eid_dnn_4-10-10_cat_10_n02123159_491.png
swag_vit_b16_in1k,1,883,NaN,bottle,bottle,4-10-10,0883_eid_dnn_4-10-10_bottle_10_n02823428_4172.png
swag_vit_b16_in1k,1,884,NaN,dog,elephant,16-10-10,0884_eid_dnn_16-10-10_elephant_10_n02504013_17391.png
swag_vit_b16_in1k,1,885,NaN,clock,cat,32-10-10,0885_eid_dnn_32-10-10_cat_10_n02125311_14156.png
swag_vit_b16_in1k,1,886,NaN,knife,bicycle,8-10-10,0886_eid_dnn_8-10-10_bicycle_10_n03792782_17430.png
swag_vit_b16_in1k,1,887,NaN,oven,oven,1-10-10,0887_eid_dnn_1-10-10_oven_10_n04111531_6172.png
swag_vit_b16_in1k,1,888,NaN,chair,chair,1-10-10,0888_eid_dnn_1-10-10_chair_10_n04099969_24378.png
swag_vit_b16_in1k,1,889,NaN,boat,boat,4-10-10,0889_eid_dnn_4-10-10_boat_10_n03662601_10589.png
swag_vit_b16_in1k,1,890,NaN,airplane,truck,16-10-10,0890_eid_dnn_16-10-10_truck_10_n03417042_10117.png
swag_vit_b16_in1k,1,891,NaN,airplane,clock,64-10-10,0891_eid_dnn_64-10-10_clock_10_n03196217_8072.png
swag_vit_b16_in1k,1,892,NaN,oven,bottle,64-10-10,0892_eid_dnn_64-10-10_bottle_10_n04560804_2776.png
swag_vit_b16_in1k,1,893,NaN,dog,dog,2-10-10,0893_eid_dnn_2-10-10_dog_10_n02102177_7637.png
swag_vit_b16_in1k,1,894,NaN,knife,knife,2-10-10,0894_eid_dnn_2-10-10_knife_10_n03041632_7064.png
swag_vit_b16_in1k,1,895,NaN,boat,boat,2-10-10,0895_eid_dnn_2-10-10_boat_10_n02951358_29724.png
swag_vit_b16_in1k,1,896,NaN,oven,oven,1-10-10,0896_eid_dnn_1-10-10_oven_10_n04111531_10436.png
swag_vit_b16_in1k,1,897,NaN,dog,elephant,32-10-10,0897_eid_dnn_32-10-10_elephant_10_n02504458_11618.png
swag_vit_b16_in1k,1,898,NaN,cat,dog,8-10-10,0898_eid_dnn_8-10-10_dog_10_n02086079_15773.png
swag_vit_b16_in1k,1,899,NaN,bicycle,airplane,32-10-10,0899_eid_dnn_32-10-10_airplane_10_n02690373_6536.png
swag_vit_b16_in1k,1,900,NaN,clock,truck,32-10-10,0900_eid_dnn_32-10-10_truck_10_n03796401_1213.png
swag_vit_b16_in1k,1,901,NaN,knife,knife,8-10-10,0901_eid_dnn_8-10-10_knife_10_n03041632_49363.png
swag_vit_b16_in1k,1,902,NaN,boat,airplane,32-10-10,0902_eid_dnn_32-10-10_airplane_10_n02690373_6831.png
swag_vit_b16_in1k,1,903,NaN,bear,bear,2-10-10,0903_eid_dnn_2-10-10_bear_10_n02134418_551.png
swag_vit_b16_in1k,1,904,NaN,clock,knife,32-10-10,0904_eid_dnn_32-10-10_knife_10_n03041632_93026.png
swag_vit_b16_in1k,1,905,NaN,knife,chair,32-10-10,0905_eid_dnn_32-10-10_chair_10_n04099969_18744.png
swag_vit_b16_in1k,1,906,NaN,clock,oven,128-10-10,0906_eid_dnn_128-10-10_oven_10_n04111531_520.png
swag_vit_b16_in1k,1,907,NaN,boat,chair,64-10-10,0907_eid_dnn_64-10-10_chair_10_n02791124_5845.png
swag_vit_b16_in1k,1,908,NaN,boat,elephant,16-10-10,0908_eid_dnn_16-10-10_elephant_10_n02504458_361.png
swag_vit_b16_in1k,1,909,NaN,knife,knife,4-10-10,0909_eid_dnn_4-10-10_knife_10_n03041632_35365.png
swag_vit_b16_in1k,1,910,NaN,bicycle,bicycle,4-10-10,0910_eid_dnn_4-10-10_bicycle_10_n03792782_15627.png
swag_vit_b16_in1k,1,911,NaN,bear,dog,64-10-10,0911_eid_dnn_64-10-10_dog_10_n02109525_46113.png
swag_vit_b16_in1k,1,912,NaN,knife,clock,128-10-10,0912_eid_dnn_128-10-10_clock_10_n04548280_8841.png
swag_vit_b16_in1k,1,913,NaN,knife,bottle,8-10-10,0913_eid_dnn_8-10-10_bottle_10_n03937543_4763.png
swag_vit_b16_in1k,1,914,NaN,oven,oven,8-10-10,0914_eid_dnn_8-10-10_oven_10_n04111531_3159.png
swag_vit_b16_in1k,1,915,NaN,dog,dog,8-10-10,0915_eid_dnn_8-10-10_dog_10_n02097474_15157.png
swag_vit_b16_in1k,1,916,NaN,boat,boat,16-10-10,0916_eid_dnn_16-10-10_boat_10_n04273569_31564.png
swag_vit_b16_in1k,1,917,NaN,bear,cat,128-10-10,0917_eid_dnn_128-10-10_cat_10_n02124075_10566.png
swag_vit_b16_in1k,1,918,NaN,cat,cat,4-10-10,0918_eid_dnn_4-10-10_cat_10_n02123597_2030.png
swag_vit_b16_in1k,1,919,NaN,bear,dog,32-10-10,0919_eid_dnn_32-10-10_dog_10_n02088466_9891.png
swag_vit_b16_in1k,1,920,NaN,dog,dog,8-10-10,0920_eid_dnn_8-10-10_dog_10_n02086646_6773.png
swag_vit_b16_in1k,1,921,NaN,knife,clock,32-10-10,0921_eid_dnn_32-10-10_clock_10_n03196217_3951.png
swag_vit_b16_in1k,1,922,NaN,elephant,elephant,1-10-10,0922_eid_dnn_1-10-10_elephant_10_n02504013_21311.png
swag_vit_b16_in1k,1,923,NaN,dog,dog,1-10-10,0923_eid_dnn_1-10-10_dog_10_n02086240_1567.png
swag_vit_b16_in1k,1,924,NaN,bear,bird,64-10-10,0924_eid_dnn_64-10-10_bird_10_n01860187_15592.png
swag_vit_b16_in1k,1,925,NaN,bear,truck,128-10-10,0925_eid_dnn_128-10-10_truck_10_n04467665_4165.png
swag_vit_b16_in1k,1,926,NaN,dog,dog,1-10-10,0926_eid_dnn_1-10-10_dog_10_n02095570_11450.png
swag_vit_b16_in1k,1,927,NaN,boat,truck,16-10-10,0927_eid_dnn_16-10-10_truck_10_n03417042_26971.png
swag_vit_b16_in1k,1,928,NaN,bear,bear,1-10-10,0928_eid_dnn_1-10-10_bear_10_n02133161_2970.png
swag_vit_b16_in1k,1,929,NaN,boat,boat,2-10-10,0929_eid_dnn_2-10-10_boat_10_n03344393_2254.png
swag_vit_b16_in1k,1,930,NaN,airplane,airplane,32-10-10,0930_eid_dnn_32-10-10_airplane_10_n02690373_7908.png
swag_vit_b16_in1k,1,931,NaN,bear,keyboard,128-10-10,0931_eid_dnn_128-10-10_keyboard_10_n03085013_19882.png
swag_vit_b16_in1k,1,932,NaN,clock,clock,1-10-10,0932_eid_dnn_1-10-10_clock_10_n04548280_748.png
swag_vit_b16_in1k,1,933,NaN,bear,car,64-10-10,0933_eid_dnn_64-10-10_car_10_n04285008_6102.png
swag_vit_b16_in1k,1,934,NaN,cat,chair,128-10-10,0934_eid_dnn_128-10-10_chair_10_n02791124_3241.png
swag_vit_b16_in1k,1,935,NaN,clock,clock,1-10-10,0935_eid_dnn_1-10-10_clock_10_n02708093_3996.png
swag_vit_b16_in1k,1,936,NaN,bear,bird,128-10-10,0936_eid_dnn_128-10-10_bird_10_n01843065_5080.png
swag_vit_b16_in1k,1,937,NaN,bird,bird,2-10-10,0937_eid_dnn_2-10-10_bird_10_n02027492_10281.png
swag_vit_b16_in1k,1,938,NaN,keyboard,keyboard,2-10-10,0938_eid_dnn_2-10-10_keyboard_10_n03085013_23552.png
swag_vit_b16_in1k,1,939,NaN,chair,chair,8-10-10,0939_eid_dnn_8-10-10_chair_10_n02791124_5319.png
swag_vit_b16_in1k,1,940,NaN,knife,knife,2-10-10,0940_eid_dnn_2-10-10_knife_10_n03041632_927.png
swag_vit_b16_in1k,1,941,NaN,dog,bird,16-10-10,0941_eid_dnn_16-10-10_bird_10_n02018207_16716.png
swag_vit_b16_in1k,1,942,NaN,airplane,bird,32-10-10,0942_eid_dnn_32-10-10_bird_10_n01622779_66.png
swag_vit_b16_in1k,1,943,NaN,knife,bicycle,64-10-10,0943_eid_dnn_64-10-10_bicycle_10_n03792782_9004.png
swag_vit_b16_in1k,1,944,NaN,bicycle,bicycle,4-10-10,0944_eid_dnn_4-10-10_bicycle_10_n03792782_4207.png
swag_vit_b16_in1k,1,945,NaN,boat,oven,64-10-10,0945_eid_dnn_64-10-10_oven_10_n04111531_5038.png
swag_vit_b16_in1k,1,946,NaN,bicycle,bicycle,2-10-10,0946_eid_dnn_2-10-10_bicycle_10_n02835271_15038.png
swag_vit_b16_in1k,1,947,NaN,clock,clock,1-10-10,0947_eid_dnn_1-10-10_clock_10_n02708093_57.png
swag_vit_b16_in1k,1,948,NaN,bird,bird,2-10-10,0948_eid_dnn_2-10-10_bird_10_n02009912_20610.png
swag_vit_b16_in1k,1,949,NaN,bird,bird,8-10-10,0949_eid_dnn_8-10-10_bird_10_n02002724_1484.png
swag_vit_b16_in1k,1,950,NaN,bear,car,32-10-10,0950_eid_dnn_32-10-10_car_10_n02814533_42059.png
swag_vit_b16_in1k,1,951,NaN,elephant,elephant,2-10-10,0951_eid_dnn_2-10-10_elephant_10_n02504013_10390.png
swag_vit_b16_in1k,1,952,NaN,bear,bear,16-10-10,0952_eid_dnn_16-10-10_bear_10_n02133161_7080.png
swag_vit_b16_in1k,1,953,NaN,keyboard,keyboard,8-10-10,0953_eid_dnn_8-10-10_keyboard_10_n04505470_4616.png
swag_vit_b16_in1k,1,954,NaN,clock,bicycle,32-10-10,0954_eid_dnn_32-10-10_bicycle_10_n02835271_19834.png
swag_vit_b16_in1k,1,955,NaN,cat,bottle,32-10-10,0955_eid_dnn_32-10-10_bottle_10_n04591713_7561.png
swag_vit_b16_in1k,1,956,NaN,knife,keyboard,32-10-10,0956_eid_dnn_32-10-10_keyboard_10_n04505470_5173.png
swag_vit_b16_in1k,1,957,NaN,car,car,1-10-10,0957_eid_dnn_1-10-10_car_10_n02814533_13977.png
swag_vit_b16_in1k,1,958,NaN,knife,knife,2-10-10,0958_eid_dnn_2-10-10_knife_10_n03041632_37949.png
swag_vit_b16_in1k,1,959,NaN,bear,bird,128-10-10,0959_eid_dnn_128-10-10_bird_10_n01582220_359.png
swag_vit_b16_in1k,1,960,NaN,truck,truck,8-10-10,0960_eid_dnn_8-10-10_truck_10_n03796401_24341.png
swag_vit_b16_in1k,1,961,NaN,keyboard,bottle,16-10-10,0961_eid_dnn_16-10-10_bottle_10_n02823428_4282.png
swag_vit_b16_in1k,1,962,NaN,knife,airplane,128-10-10,0962_eid_dnn_128-10-10_airplane_10_n02690373_9963.png
swag_vit_b16_in1k,1,963,NaN,elephant,elephant,1-10-10,0963_eid_dnn_1-10-10_elephant_10_n02504013_130.png
swag_vit_b16_in1k,1,964,NaN,knife,keyboard,64-10-10,0964_eid_dnn_64-10-10_keyboard_10_n03085013_20218.png
swag_vit_b16_in1k,1,965,NaN,boat,bear,8-10-10,0965_eid_dnn_8-10-10_bear_10_n02132136_2203.png
swag_vit_b16_in1k,1,966,NaN,keyboard,keyboard,1-10-10,0966_eid_dnn_1-10-10_keyboard_10_n04505470_4668.png
swag_vit_b16_in1k,1,967,NaN,knife,knife,1-10-10,0967_eid_dnn_1-10-10_knife_10_n03041632_16172.png
swag_vit_b16_in1k,1,968,NaN,keyboard,keyboard,16-10-10,0968_eid_dnn_16-10-10_keyboard_10_n04505470_1067.png
swag_vit_b16_in1k,1,969,NaN,dog,dog,32-10-10,0969_eid_dnn_32-10-10_dog_10_n02107908_2313.png
swag_vit_b16_in1k,1,970,NaN,dog,bear,128-10-10,0970_eid_dnn_128-10-10_bear_10_n02132136_3873.png
swag_vit_b16_in1k,1,971,NaN,boat,boat,1-10-10,0971_eid_dnn_1-10-10_boat_10_n03344393_6103.png
swag_vit_b16_in1k,1,972,NaN,dog,chair,128-10-10,0972_eid_dnn_128-10-10_chair_10_n02791124_15934.png
swag_vit_b16_in1k,1,973,NaN,dog,boat,128-10-10,0973_eid_dnn_128-10-10_boat_10_n03662601_2438.png
swag_vit_b16_in1k,1,974,NaN,dog,cat,16-10-10,0974_eid_dnn_16-10-10_cat_10_n02123597_14771.png
swag_vit_b16_in1k,1,975,NaN,airplane,knife,16-10-10,0975_eid_dnn_16-10-10_knife_10_n03041632_37513.png
swag_vit_b16_in1k,1,976,NaN,clock,bicycle,64-10-10,0976_eid_dnn_64-10-10_bicycle_10_n02835271_15617.png
swag_vit_b16_in1k,1,977,NaN,dog,dog,4-10-10,0977_eid_dnn_4-10-10_dog_10_n02102973_13.png
swag_vit_b16_in1k,1,978,NaN,boat,boat,64-10-10,0978_eid_dnn_64-10-10_boat_10_n03344393_4012.png
swag_vit_b16_in1k,1,979,NaN,bottle,clock,16-10-10,0979_eid_dnn_16-10-10_clock_10_n02708093_3365.png
swag_vit_b16_in1k,1,980,NaN,truck,truck,2-10-10,0980_eid_dnn_2-10-10_truck_10_n04467665_20700.png
swag_vit_b16_in1k,1,981,NaN,knife,oven,4-10-10,0981_eid_dnn_4-10-10_oven_10_n04111531_3076.png
swag_vit_b16_in1k,1,982,NaN,car,car,8-10-10,0982_eid_dnn_8-10-10_car_10_n02814533_39807.png
swag_vit_b16_in1k,1,983,NaN,boat,truck,64-10-10,0983_eid_dnn_64-10-10_truck_10_n04467665_66624.png
swag_vit_b16_in1k,1,984,NaN,knife,truck,16-10-10,0984_eid_dnn_16-10-10_truck_10_n04467665_30504.png
swag_vit_b16_in1k,1,985,NaN,car,car,2-10-10,0985_eid_dnn_2-10-10_car_10_n03100240_7066.png
swag_vit_b16_in1k,1,986,NaN,bear,oven,128-10-10,0986_eid_dnn_128-10-10_oven_10_n04111531_9304.png
swag_vit_b16_in1k,1,987,NaN,boat,airplane,64-10-10,0987_eid_dnn_64-10-10_airplane_10_n02690373_4845.png
swag_vit_b16_in1k,1,988,NaN,boat,boat,4-10-10,0988_eid_dnn_4-10-10_boat_10_n03662601_81.png
swag_vit_b16_in1k,1,989,NaN,boat,elephant,64-10-10,0989_eid_dnn_64-10-10_elephant_10_n02504458_1985.png
swag_vit_b16_in1k,1,990,NaN,cat,cat,2-10-10,0990_eid_dnn_2-10-10_cat_10_n02124075_5953.png
swag_vit_b16_in1k,1,991,NaN,bird,bird,2-10-10,0991_eid_dnn_2-10-10_bird_10_n02009912_18125.png
swag_vit_b16_in1k,1,992,NaN,knife,clock,16-10-10,0992_eid_dnn_16-10-10_clock_10_n04548280_3541.png
swag_vit_b16_in1k,1,993,NaN,clock,clock,4-10-10,0993_eid_dnn_4-10-10_clock_10_n04548280_2778.png
swag_vit_b16_in1k,1,994,NaN,clock,clock,4-10-10,0994_eid_dnn_4-10-10_clock_10_n04548280_4275.png
swag_vit_b16_in1k,1,995,NaN,bear,knife,32-10-10,0995_eid_dnn_32-10-10_knife_10_n03041632_3717.png
swag_vit_b16_in1k,1,996,NaN,bottle,clock,8-10-10,0996_eid_dnn_8-10-10_clock_10_n03196217_6831.png
swag_vit_b16_in1k,1,997,NaN,oven,oven,2-10-10,0997_eid_dnn_2-10-10_oven_10_n04111531_5218.png
swag_vit_b16_in1k,1,998,NaN,truck,truck,8-10-10,0998_eid_dnn_8-10-10_truck_10_n03796401_1150.png
swag_vit_b16_in1k,1,999,NaN,knife,oven,8-10-10,0999_eid_dnn_8-10-10_oven_10_n04111531_4809.png
swag_vit_b16_in1k,1,1000,NaN,airplane,airplane,16-10-10,1000_eid_dnn_16-10-10_airplane_10_n02690373_3100.png
swag_vit_b16_in1k,1,1001,NaN,bear,bird,8-10-10,1001_eid_dnn_8-10-10_bird_10_n01514859_1421.png
swag_vit_b16_in1k,1,1002,NaN,airplane,boat,16-10-10,1002_eid_dnn_16-10-10_boat_10_n04273569_17671.png
swag_vit_b16_in1k,1,1003,NaN,dog,dog,2-10-10,1003_eid_dnn_2-10-10_dog_10_n02085936_2225.png
swag_vit_b16_in1k,1,1004,NaN,bear,elephant,32-10-10,1004_eid_dnn_32-10-10_elephant_10_n02504458_5641.png
swag_vit_b16_in1k,1,1005,NaN,clock,car,64-10-10,1005_eid_dnn_64-10-10_car_10_n03100240_3267.png
