subj,Session,trial,rt,object_response,category,condition,imagename
subject-01,1,1,0.828052043914795,oven,oven,1-10-10,0001_eid_s01_1-10-10_oven_10_n04111531_17072.png
subject-01,1,2,0.925548076629639,boat,airplane,16-10-10,0002_eid_s01_16-10-10_airplane_10_n02690373_4183.png
subject-01,1,3,0.775381088256836,car,car,8-10-10,0003_eid_s01_8-10-10_car_10_n03100240_1137.png
subject-01,1,4,0.519556999206543,clock,clock,2-10-10,0004_eid_s01_2-10-10_clock_10_n04548280_7083.png
subject-01,1,5,0.72134804725647,bottle,bottle,2-10-10,0005_eid_s01_2-10-10_bottle_10_n02823428_7810.png
subject-01,1,6,1.26470518112183,boat,dog,128-10-10,0006_eid_s01_128-10-10_dog_10_n02091244_8368.png
subject-01,1,7,0.738478899002075,bicycle,bicycle,1-10-10,0007_eid_s01_1-10-10_bicycle_10_n02835271_2930.png
subject-01,1,8,0.642343997955322,oven,knife,4-10-10,0008_eid_s01_4-10-10_knife_10_n03041632_52848.png
subject-01,1,9,0.56015682220459,bottle,bottle,2-10-10,0009_eid_s01_2-10-10_bottle_10_n02823428_4097.png
subject-01,1,10,1.02044796943665,dog,dog,8-10-10,0010_eid_s01_8-10-10_dog_10_n02105641_10264.png
subject-01,1,11,1.3359100818634,car,boat,8-10-10,0011_eid_s01_8-10-10_boat_10_n03662601_10278.png
subject-01,1,12,1.07602500915527,bear,truck,32-10-10,0012_eid_s01_32-10-10_truck_10_n04467665_76958.png
subject-01,1,13,0.869771003723145,cat,dog,16-10-10,0013_eid_s01_16-10-10_dog_10_n02088238_12552.png
subject-01,1,14,0.923352003097534,boat,dog,8-10-10,0014_eid_s01_8-10-10_dog_10_n02102040_994.png
subject-01,1,15,0.902994871139526,cat,bear,128-10-10,0015_eid_s01_128-10-10_bear_10_n02133161_1944.png
subject-01,1,16,0.736793041229248,car,car,16-10-10,0016_eid_s01_16-10-10_car_10_n02814533_43040.png
subject-01,1,17,1.20865201950073,oven,oven,128-10-10,0017_eid_s01_128-10-10_oven_10_n04111531_18592.png
subject-01,1,18,1.37067413330078,airplane,chair,16-10-10,0018_eid_s01_16-10-10_chair_10_n02791124_4294.png
subject-01,1,19,0.914475917816162,oven,knife,32-10-10,0019_eid_s01_32-10-10_knife_10_n03041632_2630.png
subject-01,1,20,0.792237043380737,elephant,elephant,1-10-10,0020_eid_s01_1-10-10_elephant_10_n02504458_723.png
subject-01,1,21,1.18988704681396,keyboard,chair,4-10-10,0021_eid_s01_4-10-10_chair_10_n03376595_6107.png
subject-01,1,22,0.825675010681152,cat,clock,32-10-10,0022_eid_s01_32-10-10_clock_10_n03196217_1337.png
subject-01,1,23,1.10373997688293,bottle,boat,128-10-10,0023_eid_s01_128-10-10_boat_10_n02951358_9550.png
subject-01,1,24,1.27160501480103,bird,bird,128-10-10,0024_eid_s01_128-10-10_bird_10_n01616318_2334.png
subject-01,1,25,1.08963108062744,clock,bottle,32-10-10,0025_eid_s01_32-10-10_bottle_10_n03937543_1658.png
subject-01,1,26,1.08706307411194,elephant,elephant,2-10-10,0026_eid_s01_2-10-10_elephant_10_n02504013_6731.png
subject-01,1,27,0.772952795028687,keyboard,keyboard,4-10-10,0027_eid_s01_4-10-10_keyboard_10_n04505470_4447.png
subject-01,1,28,0.928697824478149,airplane,airplane,1-10-10,0028_eid_s01_1-10-10_airplane_10_n02690373_4839.png
subject-01,1,29,1.39457392692566,clock,keyboard,64-10-10,0029_eid_s01_64-10-10_keyboard_10_n04505470_1651.png
subject-01,1,30,1.14040589332581,boat,keyboard,32-10-10,0030_eid_s01_32-10-10_keyboard_10_n03085013_20601.png
subject-01,1,31,NaN,na,airplane,64-10-10,0031_eid_s01_64-10-10_airplane_10_n02690373_2217.png
subject-01,1,32,0.658030033111572,oven,bicycle,4-10-10,0032_eid_s01_4-10-10_bicycle_10_n03792782_25019.png
subject-01,1,33,0.473824977874756,cat,cat,8-10-10,0033_eid_s01_8-10-10_cat_10_n02123597_13890.png
subject-01,1,34,1.14561295509338,boat,boat,1-10-10,0034_eid_s01_1-10-10_boat_10_n04612504_214.png
subject-01,1,35,1.48520302772522,cat,chair,128-10-10,0035_eid_s01_128-10-10_chair_10_n02791124_2555.png
subject-01,1,36,0.659149885177612,car,car,4-10-10,0036_eid_s01_4-10-10_car_10_n04285008_2081.png
subject-01,1,37,0.998796939849854,bicycle,dog,32-10-10,0037_eid_s01_32-10-10_dog_10_n02094114_8202.png
subject-01,1,38,1.09865593910217,boat,chair,64-10-10,0038_eid_s01_64-10-10_chair_10_n04099969_4541.png
subject-01,1,39,0.866456985473633,chair,boat,128-10-10,0039_eid_s01_128-10-10_boat_10_n04612504_12864.png
subject-01,1,40,0.874287128448486,airplane,airplane,4-10-10,0040_eid_s01_4-10-10_airplane_10_n02690373_18460.png
subject-01,1,41,1.17604207992554,cat,bottle,64-10-10,0041_eid_s01_64-10-10_bottle_10_n03983396_8982.png
subject-01,1,42,0.940145969390869,boat,dog,16-10-10,0042_eid_s01_16-10-10_dog_10_n02099601_10407.png
subject-01,1,43,0.739727020263672,boat,airplane,32-10-10,0043_eid_s01_32-10-10_airplane_10_n02690373_5253.png
subject-01,1,44,0.869636058807373,elephant,elephant,2-10-10,0044_eid_s01_2-10-10_elephant_10_n02504013_2832.png
subject-01,1,45,0.513876914978027,clock,clock,1-10-10,0045_eid_s01_1-10-10_clock_10_n02708093_8002.png
subject-01,1,46,0.657395124435425,chair,chair,2-10-10,0046_eid_s01_2-10-10_chair_10_n03376595_1766.png
subject-01,1,47,0.989163160324097,truck,truck,2-10-10,0047_eid_s01_2-10-10_truck_10_n03417042_17616.png
subject-01,1,48,1.24484205245972,car,bear,16-10-10,0048_eid_s01_16-10-10_bear_10_n02134418_2804.png
subject-01,1,49,1.46058297157288,dog,car,64-10-10,0049_eid_s01_64-10-10_car_10_n04285008_12101.png
subject-01,1,50,0.800395965576172,bear,bear,16-10-10,0050_eid_s01_16-10-10_bear_10_n02134418_3828.png
subject-01,1,51,0.734286785125732,bird,bird,2-10-10,0051_eid_s01_2-10-10_bird_10_n01530575_5747.png
subject-01,1,52,1.00006914138794,cat,truck,128-10-10,0052_eid_s01_128-10-10_truck_10_n03796401_3386.png
subject-01,1,53,1.13001894950867,keyboard,keyboard,16-10-10,0053_eid_s01_16-10-10_keyboard_10_n04505470_3234.png
subject-01,1,54,0.776087999343872,truck,truck,1-10-10,0054_eid_s01_1-10-10_truck_10_n04467665_72639.png
subject-01,1,55,1.1074481010437,bear,chair,32-10-10,0055_eid_s01_32-10-10_chair_10_n04429376_27524.png
subject-01,1,56,0.795408010482788,boat,bottle,64-10-10,0056_eid_s01_64-10-10_bottle_10_n04557648_11440.png
subject-01,1,57,1.40327095985413,oven,keyboard,32-10-10,0057_eid_s01_32-10-10_keyboard_10_n03085013_20216.png
subject-01,1,58,0.665127992630005,boat,boat,8-10-10,0058_eid_s01_8-10-10_boat_10_n02951358_34653.png
subject-01,1,59,0.669102907180786,keyboard,keyboard,2-10-10,0059_eid_s01_2-10-10_keyboard_10_n03085013_8932.png
subject-01,1,60,1.21475315093994,chair,cat,1-10-10,0060_eid_s01_1-10-10_cat_10_n02125311_35338.png
subject-01,1,61,1.05440711975098,bird,bicycle,16-10-10,0061_eid_s01_16-10-10_bicycle_10_n03792782_5449.png
subject-01,1,62,0.816334962844849,bicycle,bicycle,4-10-10,0062_eid_s01_4-10-10_bicycle_10_n03792782_9432.png
subject-01,1,63,1.21808791160583,car,bottle,1-10-10,0063_eid_s01_1-10-10_bottle_10_n04591713_4291.png
subject-01,1,64,0.755951166152954,truck,truck,4-10-10,0064_eid_s01_4-10-10_truck_10_n04467665_67057.png
subject-01,1,65,0.987732172012329,bird,keyboard,1-10-10,0065_eid_s01_1-10-10_keyboard_10_n03085013_22790.png
subject-01,1,66,0.881647109985352,dog,dog,4-10-10,0066_eid_s01_4-10-10_dog_10_n02086079_2896.png
subject-01,1,67,0.831305980682373,boat,knife,8-10-10,0067_eid_s01_8-10-10_knife_10_n03041632_40508.png
subject-01,1,68,1.18108701705933,car,boat,1-10-10,0068_eid_s01_1-10-10_boat_10_n03344393_7942.png
subject-01,1,69,0.809026956558228,bear,bear,2-10-10,0069_eid_s01_2-10-10_bear_10_n02134418_4352.png
subject-01,1,70,0.930731058120728,dog,cat,16-10-10,0070_eid_s01_16-10-10_cat_10_n02123045_5157.png
subject-01,1,71,1.18455910682678,dog,dog,16-10-10,0071_eid_s01_16-10-10_dog_10_n02109047_14287.png
subject-01,1,72,0.922544956207275,truck,truck,2-10-10,0072_eid_s01_2-10-10_truck_10_n03417042_14274.png
subject-01,1,73,0.934284925460815,airplane,airplane,2-10-10,0073_eid_s01_2-10-10_airplane_10_n02690373_5885.png
subject-01,1,74,0.970005989074707,cat,cat,32-10-10,0074_eid_s01_32-10-10_cat_10_n02123394_571.png
subject-01,1,75,1.13007283210754,cat,cat,32-10-10,0075_eid_s01_32-10-10_cat_10_n02123045_10171.png
subject-01,1,76,0.679734945297241,bottle,bottle,8-10-10,0076_eid_s01_8-10-10_bottle_10_n04560804_4909.png
subject-01,1,77,0.667834043502808,keyboard,keyboard,8-10-10,0077_eid_s01_8-10-10_keyboard_10_n03085013_7971.png
subject-01,1,78,0.655058145523071,keyboard,keyboard,16-10-10,0078_eid_s01_16-10-10_keyboard_10_n03085013_21397.png
subject-01,1,79,1.09133815765381,boat,elephant,32-10-10,0079_eid_s01_32-10-10_elephant_10_n02504458_4187.png
subject-01,1,80,0.672982931137085,cat,clock,8-10-10,0080_eid_s01_8-10-10_clock_10_n03196217_6689.png
subject-01,1,81,0.742294073104858,knife,knife,4-10-10,0081_eid_s01_4-10-10_knife_10_n03041632_26236.png
subject-01,1,82,0.518115043640137,car,car,8-10-10,0082_eid_s01_8-10-10_car_10_n03100240_1262.png
subject-01,1,83,0.724296092987061,clock,keyboard,64-10-10,0083_eid_s01_64-10-10_keyboard_10_n04505470_5059.png
subject-01,1,84,1.11187410354614,bird,bird,1-10-10,0084_eid_s01_1-10-10_bird_10_n01537544_26417.png
subject-01,1,85,1.50014495849609,oven,bird,32-10-10,0085_eid_s01_32-10-10_bird_10_n02009912_5714.png
subject-01,1,86,0.947460889816284,bottle,chair,128-10-10,0086_eid_s01_128-10-10_chair_10_n03376595_5972.png
subject-01,1,87,0.747545957565308,clock,chair,2-10-10,0087_eid_s01_2-10-10_chair_10_n04429376_805.png
subject-01,1,88,NaN,na,bicycle,128-10-10,0088_eid_s01_128-10-10_bicycle_10_n03792782_4083.png
subject-01,1,89,0.629324197769165,clock,clock,1-10-10,0089_eid_s01_1-10-10_clock_10_n02708093_798.png
subject-01,1,90,0.823009967803955,bear,bear,1-10-10,0090_eid_s01_1-10-10_bear_10_n02133161_1660.png
subject-01,1,91,0.834322929382324,car,car,8-10-10,0091_eid_s01_8-10-10_car_10_n04285008_9464.png
subject-01,1,92,0.884393930435181,chair,oven,16-10-10,0092_eid_s01_16-10-10_oven_10_n04111531_3314.png
subject-01,1,93,1.0841121673584,knife,cat,128-10-10,0093_eid_s01_128-10-10_cat_10_n02123394_5753.png
subject-01,1,94,0.680179834365845,boat,boat,2-10-10,0094_eid_s01_2-10-10_boat_10_n02951358_34042.png
subject-01,1,95,0.709867000579834,boat,truck,64-10-10,0095_eid_s01_64-10-10_truck_10_n03417042_7588.png
subject-01,1,96,0.955595016479492,bird,truck,32-10-10,0096_eid_s01_32-10-10_truck_10_n03417042_4200.png
subject-01,1,97,0.835479974746704,airplane,airplane,4-10-10,0097_eid_s01_4-10-10_airplane_10_n02690373_4335.png
subject-01,1,98,0.855570077896118,car,elephant,128-10-10,0098_eid_s01_128-10-10_elephant_10_n02504458_6823.png
subject-01,1,99,0.602923154830933,boat,boat,4-10-10,0099_eid_s01_4-10-10_boat_10_n03344393_4214.png
subject-01,1,100,0.575103044509888,keyboard,keyboard,4-10-10,0100_eid_s01_4-10-10_keyboard_10_n03085013_22949.png
subject-01,1,101,0.826666116714478,chair,bear,64-10-10,0101_eid_s01_64-10-10_bear_10_n02132136_31664.png
subject-01,1,102,0.86435604095459,bottle,bottle,8-10-10,0102_eid_s01_8-10-10_bottle_10_n03983396_1985.png
subject-01,1,103,0.730192899703979,airplane,airplane,2-10-10,0103_eid_s01_2-10-10_airplane_10_n02690373_9266.png
subject-01,1,104,0.796041011810303,elephant,bottle,128-10-10,0104_eid_s01_128-10-10_bottle_10_n02823428_5961.png
subject-01,1,105,0.791881084442139,bottle,bottle,4-10-10,0105_eid_s01_4-10-10_bottle_10_n04579145_1856.png
subject-01,1,106,1.017826795578,car,clock,64-10-10,0106_eid_s01_64-10-10_clock_10_n02708093_7810.png
subject-01,1,107,0.715456008911133,dog,dog,1-10-10,0107_eid_s01_1-10-10_dog_10_n02100735_4949.png
subject-01,1,108,0.821612119674683,bear,chair,32-10-10,0108_eid_s01_32-10-10_chair_10_n03376595_7275.png
subject-01,1,109,0.606955051422119,bottle,bottle,2-10-10,0109_eid_s01_2-10-10_bottle_10_n03983396_16741.png
subject-01,1,110,0.707011938095093,boat,boat,32-10-10,0110_eid_s01_32-10-10_boat_10_n04612504_8719.png
subject-01,1,111,1.3626880645752,chair,chair,1-10-10,0111_eid_s01_1-10-10_chair_10_n02791124_3570.png
subject-01,1,112,0.890607833862305,elephant,bear,32-10-10,0112_eid_s01_32-10-10_bear_10_n02132136_9557.png
subject-01,1,113,0.722338199615479,bicycle,bird,64-10-10,0113_eid_s01_64-10-10_bird_10_n02002556_5730.png
subject-01,1,114,1.02623581886292,bicycle,oven,4-10-10,0114_eid_s01_4-10-10_oven_10_n04111531_8959.png
subject-01,1,115,0.889865159988403,car,cat,128-10-10,0115_eid_s01_128-10-10_cat_10_n02123159_8101.png
subject-01,1,116,0.655789136886597,cat,cat,8-10-10,0116_eid_s01_8-10-10_cat_10_n02123597_8890.png
subject-01,1,117,0.793623208999634,elephant,elephant,1-10-10,0117_eid_s01_1-10-10_elephant_10_n02504458_220.png
subject-01,1,118,0.811702013015747,boat,bicycle,128-10-10,0118_eid_s01_128-10-10_bicycle_10_n02835271_2651.png
subject-01,1,119,1.04150581359863,car,keyboard,64-10-10,0119_eid_s01_64-10-10_keyboard_10_n04505470_1581.png
subject-01,1,120,0.70906400680542,truck,truck,4-10-10,0120_eid_s01_4-10-10_truck_10_n04467665_1719.png
subject-01,1,121,0.669098854064941,truck,truck,2-10-10,0121_eid_s01_2-10-10_truck_10_n04467665_30756.png
subject-01,1,122,0.876966953277588,airplane,oven,64-10-10,0122_eid_s01_64-10-10_oven_10_n04111531_1818.png
subject-01,1,123,0.896359920501709,elephant,elephant,64-10-10,0123_eid_s01_64-10-10_elephant_10_n02504013_2974.png
subject-01,1,124,0.790277004241943,oven,bicycle,128-10-10,0124_eid_s01_128-10-10_bicycle_10_n03792782_7713.png
subject-01,1,125,0.792073011398315,clock,clock,16-10-10,0125_eid_s01_16-10-10_clock_10_n04548280_9700.png
subject-01,1,126,0.720026969909668,bottle,bottle,16-10-10,0126_eid_s01_16-10-10_bottle_10_n04591713_1174.png
subject-01,1,127,0.897893190383911,chair,bear,64-10-10,0127_eid_s01_64-10-10_bear_10_n02134418_1395.png
subject-01,1,128,1.02161717414856,oven,bottle,128-10-10,0128_eid_s01_128-10-10_bottle_10_n04591713_36.png
subject-01,1,129,0.817462921142578,cat,knife,8-10-10,0129_eid_s01_8-10-10_knife_10_n03041632_21034.png
subject-01,1,130,0.673210859298706,bicycle,bicycle,1-10-10,0130_eid_s01_1-10-10_bicycle_10_n03792782_11115.png
subject-01,1,131,0.714810132980347,car,truck,16-10-10,0131_eid_s01_16-10-10_truck_10_n03417042_5381.png
subject-01,1,132,1.04685807228088,airplane,boat,64-10-10,0132_eid_s01_64-10-10_boat_10_n04612504_15258.png
subject-01,1,133,0.910473108291626,boat,boat,2-10-10,0133_eid_s01_2-10-10_boat_10_n03662601_11972.png
subject-01,1,134,1.03026795387268,bicycle,dog,64-10-10,0134_eid_s01_64-10-10_dog_10_n02092002_11459.png
subject-01,1,135,0.814174890518188,knife,clock,64-10-10,0135_eid_s01_64-10-10_clock_10_n04548280_6605.png
subject-01,1,136,0.834196805953979,boat,boat,64-10-10,0136_eid_s01_64-10-10_boat_10_n03662601_5600.png
subject-01,1,137,0.987905025482178,car,bear,32-10-10,0137_eid_s01_32-10-10_bear_10_n02134084_8153.png
subject-01,1,138,0.889622211456299,chair,cat,64-10-10,0138_eid_s01_64-10-10_cat_10_n02124075_9225.png
subject-01,1,139,0.689804792404175,bicycle,bicycle,8-10-10,0139_eid_s01_8-10-10_bicycle_10_n03792782_3591.png
subject-01,1,140,0.79540491104126,car,dog,64-10-10,0140_eid_s01_64-10-10_dog_10_n02107142_31661.png
subject-01,1,141,0.697145938873291,elephant,elephant,8-10-10,0141_eid_s01_8-10-10_elephant_10_n02504458_651.png
subject-01,1,142,0.874939918518066,airplane,dog,128-10-10,0142_eid_s01_128-10-10_dog_10_n02110958_15217.png
subject-01,1,143,0.97678804397583,keyboard,oven,4-10-10,0143_eid_s01_4-10-10_oven_10_n04111531_523.png
subject-01,1,144,0.576834917068481,car,car,4-10-10,0144_eid_s01_4-10-10_car_10_n02814533_42884.png
subject-01,1,145,0.838704109191895,bird,car,64-10-10,0145_eid_s01_64-10-10_car_10_n04285008_8017.png
subject-01,1,146,0.76447582244873,car,car,1-10-10,0146_eid_s01_1-10-10_car_10_n03100240_16766.png
subject-01,1,147,0.745828151702881,elephant,elephant,8-10-10,0147_eid_s01_8-10-10_elephant_10_n02504458_4593.png
subject-01,1,148,0.961798906326294,bird,chair,64-10-10,0148_eid_s01_64-10-10_chair_10_n02791124_1358.png
subject-01,1,149,0.863641023635864,dog,dog,16-10-10,0149_eid_s01_16-10-10_dog_10_n02095314_5363.png
subject-01,1,150,0.671494960784912,clock,clock,8-10-10,0150_eid_s01_8-10-10_clock_10_n04548280_1413.png
subject-01,1,151,0.745173931121826,dog,dog,1-10-10,0151_eid_s01_1-10-10_dog_10_n02105641_10948.png
subject-01,1,152,0.751358032226562,dog,dog,1-10-10,0152_eid_s01_1-10-10_dog_10_n02113624_1691.png
subject-01,1,153,0.623127937316895,car,car,4-10-10,0153_eid_s01_4-10-10_car_10_n03100240_2235.png
subject-01,1,154,1.32261800765991,bottle,chair,2-10-10,0154_eid_s01_2-10-10_chair_10_n04099969_56470.png
subject-01,1,155,1.03437304496765,oven,oven,2-10-10,0155_eid_s01_2-10-10_oven_10_n04111531_5429.png
subject-01,1,156,0.764369010925293,chair,keyboard,64-10-10,0156_eid_s01_64-10-10_keyboard_10_n03085013_19317.png
subject-01,1,157,0.940083980560303,bird,bird,64-10-10,0157_eid_s01_64-10-10_bird_10_n01601694_19650.png
subject-01,1,158,0.936152935028076,airplane,clock,128-10-10,0158_eid_s01_128-10-10_clock_10_n03196217_11199.png
subject-01,1,159,0.857720136642456,bicycle,bottle,32-10-10,0159_eid_s01_32-10-10_bottle_10_n03937543_2209.png
subject-01,1,160,1.04154205322266,truck,car,64-10-10,0160_eid_s01_64-10-10_car_10_n03100240_16939.png
subject-01,1,161,0.786520004272461,bottle,bottle,8-10-10,0161_eid_s01_8-10-10_bottle_10_n04591713_2501.png
subject-01,1,162,0.604345083236694,airplane,airplane,16-10-10,0162_eid_s01_16-10-10_airplane_10_n02690373_10395.png
subject-01,1,163,0.98390007019043,keyboard,oven,8-10-10,0163_eid_s01_8-10-10_oven_10_n04111531_3286.png
subject-01,1,164,0.699475049972534,cat,boat,64-10-10,0164_eid_s01_64-10-10_boat_10_n04273569_13401.png
subject-01,1,165,0.639289855957031,elephant,elephant,64-10-10,0165_eid_s01_64-10-10_elephant_10_n02504458_12776.png
subject-01,1,166,0.699115991592407,bird,bird,2-10-10,0166_eid_s01_2-10-10_bird_10_n01828970_997.png
subject-01,1,167,0.703192949295044,dog,bear,8-10-10,0167_eid_s01_8-10-10_bear_10_n02132136_10318.png
subject-01,1,168,0.910807847976685,bear,oven,32-10-10,0168_eid_s01_32-10-10_oven_10_n04111531_7883.png
subject-01,1,169,0.636577844619751,boat,clock,128-10-10,0169_eid_s01_128-10-10_clock_10_n02708093_725.png
subject-01,1,170,1.00869607925415,airplane,bottle,16-10-10,0170_eid_s01_16-10-10_bottle_10_n04557648_2052.png
subject-01,1,171,0.988246917724609,elephant,keyboard,32-10-10,0171_eid_s01_32-10-10_keyboard_10_n04505470_5036.png
subject-01,1,172,0.774029016494751,elephant,elephant,8-10-10,0172_eid_s01_8-10-10_elephant_10_n02504458_13352.png
subject-01,1,173,0.889981031417847,chair,chair,4-10-10,0173_eid_s01_4-10-10_chair_10_n04429376_30620.png
subject-01,1,174,1.17378091812134,airplane,boat,16-10-10,0174_eid_s01_16-10-10_boat_10_n03662601_2980.png
subject-01,1,175,0.707643032073975,boat,boat,8-10-10,0175_eid_s01_8-10-10_boat_10_n03662601_4734.png
subject-01,1,176,0.837337970733643,cat,bear,2-10-10,0176_eid_s01_2-10-10_bear_10_n02134418_4754.png
subject-01,1,177,0.875182151794434,elephant,elephant,2-10-10,0177_eid_s01_2-10-10_elephant_10_n02504013_8522.png
subject-01,1,178,0.821087121963501,bear,bottle,64-10-10,0178_eid_s01_64-10-10_bottle_10_n03937543_4863.png
subject-01,1,179,1.4508421421051,truck,car,16-10-10,0179_eid_s01_16-10-10_car_10_n04285008_10802.png
subject-01,1,180,1.12508988380432,bicycle,knife,64-10-10,0180_eid_s01_64-10-10_knife_10_n03041632_6708.png
subject-01,1,181,0.972612142562866,dog,dog,1-10-10,0181_eid_s01_1-10-10_dog_10_n02107142_61109.png
subject-01,1,182,0.704191923141479,clock,clock,2-10-10,0182_eid_s01_2-10-10_clock_10_n03196217_8139.png
subject-01,1,183,0.629978895187378,elephant,elephant,1-10-10,0183_eid_s01_1-10-10_elephant_10_n02504458_6611.png
subject-01,1,184,0.789853096008301,boat,truck,64-10-10,0184_eid_s01_64-10-10_truck_10_n04467665_4401.png
subject-01,1,185,0.787573099136353,boat,boat,4-10-10,0185_eid_s01_4-10-10_boat_10_n03344393_732.png
subject-01,1,186,0.73546314239502,knife,knife,4-10-10,0186_eid_s01_4-10-10_knife_10_n03041632_41381.png
subject-01,1,187,1.07523393630981,dog,oven,32-10-10,0187_eid_s01_32-10-10_oven_10_n04111531_22715.png
subject-01,1,188,0.657014131546021,cat,cat,16-10-10,0188_eid_s01_16-10-10_cat_10_n02123045_3568.png
subject-01,1,189,0.858876943588257,truck,truck,2-10-10,0189_eid_s01_2-10-10_truck_10_n03796401_18976.png
subject-01,1,190,1.09074592590332,car,oven,8-10-10,0190_eid_s01_8-10-10_oven_10_n04111531_15710.png
subject-01,1,191,0.814478874206543,boat,elephant,32-10-10,0191_eid_s01_32-10-10_elephant_10_n02504013_7232.png
subject-01,1,192,0.646176099777222,oven,clock,64-10-10,0192_eid_s01_64-10-10_clock_10_n02708093_5126.png
subject-01,1,193,1.20804309844971,bicycle,cat,32-10-10,0193_eid_s01_32-10-10_cat_10_n02123159_1598.png
subject-01,1,194,0.656158924102783,car,car,1-10-10,0194_eid_s01_1-10-10_car_10_n04285008_1661.png
subject-01,1,195,0.67579984664917,clock,clock,2-10-10,0195_eid_s01_2-10-10_clock_10_n02708093_5551.png
subject-01,1,196,0.875379085540771,chair,airplane,128-10-10,0196_eid_s01_128-10-10_airplane_10_n02690373_693.png
subject-01,1,197,0.693403959274292,elephant,elephant,2-10-10,0197_eid_s01_2-10-10_elephant_10_n02504013_3409.png
subject-01,1,198,0.853233098983765,bird,dog,64-10-10,0198_eid_s01_64-10-10_dog_10_n02113712_8182.png
subject-01,1,199,0.685045957565308,bottle,bottle,1-10-10,0199_eid_s01_1-10-10_bottle_10_n03983396_8322.png
subject-01,1,200,0.994920015335083,bottle,keyboard,64-10-10,0200_eid_s01_64-10-10_keyboard_10_n04505470_1040.png
subject-01,1,201,1.10655784606934,bird,oven,32-10-10,0201_eid_s01_32-10-10_oven_10_n04111531_11230.png
subject-01,1,202,0.524711847305298,cat,cat,1-10-10,0202_eid_s01_1-10-10_cat_10_n02123394_6269.png
subject-01,1,203,0.82643723487854,elephant,elephant,2-10-10,0203_eid_s01_2-10-10_elephant_10_n02504013_2075.png
subject-01,1,204,1.33217787742615,elephant,bear,1-10-10,0204_eid_s01_1-10-10_bear_10_n02133161_3795.png
subject-01,1,205,1.16811513900757,bear,oven,2-10-10,0205_eid_s01_2-10-10_oven_10_n04111531_4322.png
subject-01,1,206,0.633823156356812,bottle,bottle,4-10-10,0206_eid_s01_4-10-10_bottle_10_n03937543_5799.png
subject-01,1,207,0.817444086074829,keyboard,keyboard,8-10-10,0207_eid_s01_8-10-10_keyboard_10_n04505470_4414.png
subject-01,1,208,0.757343053817749,dog,dog,4-10-10,0208_eid_s01_4-10-10_dog_10_n02091032_8315.png
subject-01,1,209,0.863006114959717,knife,knife,2-10-10,0209_eid_s01_2-10-10_knife_10_n03041632_39952.png
subject-01,1,210,0.748892068862915,chair,chair,8-10-10,0210_eid_s01_8-10-10_chair_10_n02791124_634.png
subject-01,1,211,0.910861968994141,boat,boat,32-10-10,0211_eid_s01_32-10-10_boat_10_n03344393_3355.png
subject-01,1,212,1.1447741985321,clock,dog,32-10-10,0212_eid_s01_32-10-10_dog_10_n02102040_7188.png
subject-01,1,213,0.962264060974121,chair,chair,2-10-10,0213_eid_s01_2-10-10_chair_10_n02791124_8711.png
subject-01,1,214,1.13426303863525,car,bear,64-10-10,0214_eid_s01_64-10-10_bear_10_n02132136_6002.png
subject-01,1,215,0.678045034408569,boat,boat,4-10-10,0215_eid_s01_4-10-10_boat_10_n02951358_30184.png
subject-01,1,216,0.885705947875977,bear,bottle,128-10-10,0216_eid_s01_128-10-10_bottle_10_n02823428_3414.png
subject-01,1,217,0.7518150806427,truck,truck,4-10-10,0217_eid_s01_4-10-10_truck_10_n04467665_13231.png
subject-01,1,218,0.789707899093628,chair,chair,4-10-10,0218_eid_s01_4-10-10_chair_10_n04099969_8063.png
subject-01,1,219,0.739268064498901,bird,bird,4-10-10,0219_eid_s01_4-10-10_bird_10_n01534433_10234.png
subject-01,1,220,0.766978979110718,elephant,elephant,4-10-10,0220_eid_s01_4-10-10_elephant_10_n02504013_12533.png
subject-01,1,221,0.724914789199829,boat,knife,16-10-10,0221_eid_s01_16-10-10_knife_10_n03041632_18995.png
subject-01,1,222,1.02670407295227,truck,chair,32-10-10,0222_eid_s01_32-10-10_chair_10_n04429376_7123.png
subject-01,1,223,1.25855803489685,cat,clock,64-10-10,0223_eid_s01_64-10-10_clock_10_n03196217_9065.png
subject-01,1,224,1.05865406990051,dog,dog,4-10-10,0224_eid_s01_4-10-10_dog_10_n02086079_4143.png
subject-01,1,225,0.734143972396851,elephant,bear,4-10-10,0225_eid_s01_4-10-10_bear_10_n02132136_20162.png
subject-01,1,226,0.937953948974609,bottle,bottle,1-10-10,0226_eid_s01_1-10-10_bottle_10_n03983396_4165.png
subject-01,1,227,0.951887130737305,bird,bird,4-10-10,0227_eid_s01_4-10-10_bird_10_n01824575_4470.png
subject-01,1,228,0.847543001174927,cat,oven,64-10-10,0228_eid_s01_64-10-10_oven_10_n04111531_9695.png
subject-01,1,229,0.85564112663269,bear,bottle,64-10-10,0229_eid_s01_64-10-10_bottle_10_n02823428_23181.png
subject-01,1,230,0.791237115859985,bicycle,bicycle,2-10-10,0230_eid_s01_2-10-10_bicycle_10_n02835271_13674.png
subject-01,1,231,1.2091178894043,clock,chair,2-10-10,0231_eid_s01_2-10-10_chair_10_n04429376_55747.png
subject-01,1,232,NaN,na,boat,32-10-10,0232_eid_s01_32-10-10_boat_10_n02951358_8346.png
subject-01,1,233,1.03661799430847,keyboard,elephant,16-10-10,0233_eid_s01_16-10-10_elephant_10_n02504013_1088.png
subject-01,1,234,0.576802968978882,car,car,8-10-10,0234_eid_s01_8-10-10_car_10_n03100240_11191.png
subject-01,1,235,0.768281936645508,chair,chair,8-10-10,0235_eid_s01_8-10-10_chair_10_n04099969_19966.png
subject-01,1,236,0.975971937179565,elephant,bicycle,32-10-10,0236_eid_s01_32-10-10_bicycle_10_n03792782_15016.png
subject-01,1,237,0.979804992675781,boat,boat,128-10-10,0237_eid_s01_128-10-10_boat_10_n02951358_17867.png
subject-01,1,238,0.535699129104614,cat,cat,2-10-10,0238_eid_s01_2-10-10_cat_10_n02123045_2364.png
subject-01,1,239,1.0354311466217,bear,bear,2-10-10,0239_eid_s01_2-10-10_bear_10_n02132136_9433.png
subject-01,1,240,1.10959506034851,car,clock,32-10-10,0240_eid_s01_32-10-10_clock_10_n03196217_3167.png
subject-01,1,241,0.745024919509888,keyboard,clock,32-10-10,0241_eid_s01_32-10-10_clock_10_n03196217_3129.png
subject-01,1,242,1.24102306365967,chair,keyboard,128-10-10,0242_eid_s01_128-10-10_keyboard_10_n03085013_6067.png
subject-01,1,243,0.974881887435913,keyboard,keyboard,2-10-10,0243_eid_s01_2-10-10_keyboard_10_n03085013_24648.png
subject-01,1,244,1.05867409706116,airplane,oven,32-10-10,0244_eid_s01_32-10-10_oven_10_n04111531_6695.png
subject-01,1,245,0.924631834030151,dog,dog,4-10-10,0245_eid_s01_4-10-10_dog_10_n02111500_4875.png
subject-01,1,246,1.01226902008057,boat,oven,32-10-10,0246_eid_s01_32-10-10_oven_10_n04111531_13018.png
subject-01,1,247,1.28217720985413,bird,keyboard,128-10-10,0247_eid_s01_128-10-10_keyboard_10_n03085013_23030.png
subject-01,1,248,1.13396406173706,dog,cat,8-10-10,0248_eid_s01_8-10-10_cat_10_n02123045_8409.png
subject-01,1,249,0.595607995986938,bicycle,bicycle,4-10-10,0249_eid_s01_4-10-10_bicycle_10_n03792782_37777.png
subject-01,1,250,1.0476541519165,car,airplane,64-10-10,0250_eid_s01_64-10-10_airplane_10_n02690373_614.png
subject-01,1,251,0.861320018768311,chair,keyboard,128-10-10,0251_eid_s01_128-10-10_keyboard_10_n03085013_19775.png
subject-01,1,252,0.565083026885986,bear,bear,8-10-10,0252_eid_s01_8-10-10_bear_10_n02133161_1244.png
subject-01,1,253,0.598956108093262,keyboard,keyboard,2-10-10,0253_eid_s01_2-10-10_keyboard_10_n04505470_4368.png
subject-01,1,254,0.782777070999146,oven,oven,2-10-10,0254_eid_s01_2-10-10_oven_10_n04111531_7728.png
subject-01,1,255,1.20070314407349,keyboard,clock,8-10-10,0255_eid_s01_8-10-10_clock_10_n04548280_1.png
subject-01,1,256,0.758424997329712,bird,cat,64-10-10,0256_eid_s01_64-10-10_cat_10_n02123394_3062.png
subject-01,1,257,0.81809401512146,elephant,elephant,2-10-10,0257_eid_s01_2-10-10_elephant_10_n02504013_466.png
subject-01,1,258,0.775908946990967,elephant,elephant,1-10-10,0258_eid_s01_1-10-10_elephant_10_n02504013_6275.png
subject-01,1,259,0.795782804489136,bird,bird,4-10-10,0259_eid_s01_4-10-10_bird_10_n01560419_5466.png
subject-01,1,260,0.995888948440552,truck,truck,8-10-10,0260_eid_s01_8-10-10_truck_10_n03796401_5227.png
subject-01,1,261,0.769526958465576,chair,chair,2-10-10,0261_eid_s01_2-10-10_chair_10_n04099969_25124.png
subject-01,1,262,0.975310087203979,boat,elephant,64-10-10,0262_eid_s01_64-10-10_elephant_10_n02504013_7209.png
subject-01,1,263,1.03289985656738,bird,cat,1-10-10,0263_eid_s01_1-10-10_cat_10_n02123597_4756.png
subject-01,1,264,1.16286587715149,cat,bicycle,16-10-10,0264_eid_s01_16-10-10_bicycle_10_n02835271_4654.png
subject-01,1,265,0.642570018768311,keyboard,keyboard,1-10-10,0265_eid_s01_1-10-10_keyboard_10_n04505470_2389.png
subject-01,1,266,0.706284999847412,clock,knife,128-10-10,0266_eid_s01_128-10-10_knife_10_n03041632_379.png
subject-01,1,267,1.11618208885193,oven,clock,8-10-10,0267_eid_s01_8-10-10_clock_10_n02708093_899.png
subject-01,1,268,1.01211404800415,cat,truck,128-10-10,0268_eid_s01_128-10-10_truck_10_n03417042_10154.png
subject-01,1,269,0.782022953033447,bottle,bottle,2-10-10,0269_eid_s01_2-10-10_bottle_10_n04579145_3415.png
subject-01,1,270,0.847641944885254,bear,chair,16-10-10,0270_eid_s01_16-10-10_chair_10_n02791124_146.png
subject-01,1,271,1.04147601127625,clock,elephant,128-10-10,0271_eid_s01_128-10-10_elephant_10_n02504458_2835.png
subject-01,1,272,0.935308933258057,bicycle,bicycle,1-10-10,0272_eid_s01_1-10-10_bicycle_10_n03792782_13835.png
subject-01,1,273,1.33722114562988,elephant,bicycle,32-10-10,0273_eid_s01_32-10-10_bicycle_10_n02835271_12926.png
subject-01,1,274,0.895339012145996,dog,dog,2-10-10,0274_eid_s01_2-10-10_dog_10_n02110185_11605.png
subject-01,1,275,0.862823009490967,airplane,elephant,128-10-10,0275_eid_s01_128-10-10_elephant_10_n02504458_3091.png
subject-01,1,276,0.678953886032104,oven,chair,128-10-10,0276_eid_s01_128-10-10_chair_10_n04099969_5233.png
subject-01,1,277,0.776445150375366,dog,dog,2-10-10,0277_eid_s01_2-10-10_dog_10_n02097209_7628.png
subject-01,1,278,0.648267030715942,bear,cat,8-10-10,0278_eid_s01_8-10-10_cat_10_n02123597_10941.png
subject-01,1,279,0.778426170349121,clock,clock,16-10-10,0279_eid_s01_16-10-10_clock_10_n02708093_3006.png
subject-01,1,280,0.967839002609253,truck,truck,1-10-10,0280_eid_s01_1-10-10_truck_10_n03796401_26620.png
subject-01,1,281,1.38759589195251,keyboard,bear,128-10-10,0281_eid_s01_128-10-10_bear_10_n02134418_12733.png
subject-01,1,282,0.837571859359741,knife,knife,2-10-10,0282_eid_s01_2-10-10_knife_10_n03041632_4806.png
subject-01,1,283,0.951349973678589,keyboard,oven,4-10-10,0283_eid_s01_4-10-10_oven_10_n04111531_17922.png
subject-01,1,284,0.867071151733398,bottle,bottle,1-10-10,0284_eid_s01_1-10-10_bottle_10_n04579145_6818.png
subject-01,1,285,0.950824022293091,keyboard,keyboard,4-10-10,0285_eid_s01_4-10-10_keyboard_10_n04505470_494.png
subject-01,1,286,0.935015916824341,bottle,cat,8-10-10,0286_eid_s01_8-10-10_cat_10_n02123045_10834.png
subject-01,1,287,1.18253302574158,clock,cat,128-10-10,0287_eid_s01_128-10-10_cat_10_n02123394_176.png
subject-01,1,288,0.85027289390564,oven,chair,128-10-10,0288_eid_s01_128-10-10_chair_10_n03376595_2891.png
subject-01,1,289,0.776098012924194,dog,dog,8-10-10,0289_eid_s01_8-10-10_dog_10_n02093256_5647.png
subject-01,1,290,1.09986186027527,bicycle,knife,64-10-10,0290_eid_s01_64-10-10_knife_10_n03041632_33326.png
subject-01,1,291,0.954124927520752,boat,airplane,8-10-10,0291_eid_s01_8-10-10_airplane_10_n02690373_2856.png
subject-01,1,292,1.08575916290283,airplane,bicycle,128-10-10,0292_eid_s01_128-10-10_bicycle_10_n03792782_9651.png
subject-01,1,293,0.94138503074646,bicycle,bicycle,2-10-10,0293_eid_s01_2-10-10_bicycle_10_n02835271_7438.png
subject-01,1,294,1.06130909919739,airplane,bicycle,128-10-10,0294_eid_s01_128-10-10_bicycle_10_n02835271_26639.png
subject-01,1,295,0.893095016479492,keyboard,keyboard,8-10-10,0295_eid_s01_8-10-10_keyboard_10_n04505470_4458.png
subject-01,1,296,0.953119993209839,dog,dog,64-10-10,0296_eid_s01_64-10-10_dog_10_n02106662_24847.png
subject-01,1,297,0.840620994567871,bear,chair,32-10-10,0297_eid_s01_32-10-10_chair_10_n03376595_8995.png
subject-01,1,298,NaN,na,bicycle,64-10-10,0298_eid_s01_64-10-10_bicycle_10_n03792782_6030.png
subject-01,1,299,1.02466177940369,bear,elephant,4-10-10,0299_eid_s01_4-10-10_elephant_10_n02504458_7258.png
subject-01,1,300,0.840179920196533,car,boat,128-10-10,0300_eid_s01_128-10-10_boat_10_n03662601_23903.png
subject-01,1,301,1.18777799606323,elephant,bird,16-10-10,0301_eid_s01_16-10-10_bird_10_n02002724_578.png
subject-01,1,302,1.089919090271,oven,chair,64-10-10,0302_eid_s01_64-10-10_chair_10_n03376595_2393.png
subject-01,1,303,0.663516044616699,boat,boat,16-10-10,0303_eid_s01_16-10-10_boat_10_n03662601_5118.png
subject-01,1,304,1.05122208595276,clock,chair,8-10-10,0304_eid_s01_8-10-10_chair_10_n04429376_21845.png
subject-01,1,305,1.18721914291382,bird,dog,8-10-10,0305_eid_s01_8-10-10_dog_10_n02102040_2216.png
subject-01,1,306,0.791076898574829,airplane,airplane,8-10-10,0306_eid_s01_8-10-10_airplane_10_n02690373_3032.png
subject-01,1,307,0.781042098999023,dog,dog,8-10-10,0307_eid_s01_8-10-10_dog_10_n02100735_2228.png
subject-01,1,308,0.640625,bird,bird,8-10-10,0308_eid_s01_8-10-10_bird_10_n01532829_13864.png
subject-01,1,309,0.926362037658691,boat,bird,64-10-10,0309_eid_s01_64-10-10_bird_10_n01601694_13787.png
subject-01,1,310,1.03821086883545,bear,bear,64-10-10,0310_eid_s01_64-10-10_bear_10_n02134084_22150.png
subject-01,1,311,1.24416089057922,bear,knife,16-10-10,0311_eid_s01_16-10-10_knife_10_n03041632_29427.png
subject-01,1,312,0.889810085296631,chair,chair,4-10-10,0312_eid_s01_4-10-10_chair_10_n02791124_2804.png
subject-01,1,313,0.770008087158203,bottle,bottle,4-10-10,0313_eid_s01_4-10-10_bottle_10_n04591713_5046.png
subject-01,1,314,1.35202813148499,airplane,bicycle,128-10-10,0314_eid_s01_128-10-10_bicycle_10_n03792782_4210.png
subject-01,1,315,0.975647211074829,clock,cat,128-10-10,0315_eid_s01_128-10-10_cat_10_n02123159_1596.png
subject-01,1,316,0.815112113952637,car,car,2-10-10,0316_eid_s01_2-10-10_car_10_n03100240_17588.png
subject-01,1,317,0.663171052932739,cat,keyboard,4-10-10,0317_eid_s01_4-10-10_keyboard_10_n03085013_23295.png
subject-01,1,318,1.1028048992157,knife,oven,32-10-10,0318_eid_s01_32-10-10_oven_10_n04111531_4879.png
subject-01,1,319,0.968684911727905,car,keyboard,32-10-10,0319_eid_s01_32-10-10_keyboard_10_n04505470_4569.png
subject-01,1,320,1.41859698295593,boat,truck,8-10-10,0320_eid_s01_8-10-10_truck_10_n04467665_24190.png
subject-01,1,321,0.750504970550537,cat,cat,4-10-10,0321_eid_s01_4-10-10_cat_10_n02124075_15405.png
subject-01,1,322,1.18217587471008,dog,knife,8-10-10,0322_eid_s01_8-10-10_knife_10_n03041632_24817.png
subject-01,1,323,1.19609594345093,elephant,elephant,64-10-10,0323_eid_s01_64-10-10_elephant_10_n02504013_5505.png
subject-01,1,324,0.757983207702637,boat,airplane,8-10-10,0324_eid_s01_8-10-10_airplane_10_n02690373_8846.png
subject-01,1,325,1.05797219276428,boat,truck,32-10-10,0325_eid_s01_32-10-10_truck_10_n04467665_50806.png
subject-01,1,326,0.727558135986328,elephant,elephant,4-10-10,0326_eid_s01_4-10-10_elephant_10_n02504458_5539.png
subject-01,1,327,0.873445987701416,boat,boat,1-10-10,0327_eid_s01_1-10-10_boat_10_n03344393_1178.png
subject-01,1,328,0.795590877532959,truck,truck,4-10-10,0328_eid_s01_4-10-10_truck_10_n04467665_10025.png
subject-01,1,329,0.537026882171631,clock,clock,4-10-10,0329_eid_s01_4-10-10_clock_10_n02708093_2869.png
subject-01,1,330,0.908667802810669,oven,bottle,8-10-10,0330_eid_s01_8-10-10_bottle_10_n03983396_4879.png
subject-01,1,331,1.03276991844177,airplane,keyboard,128-10-10,0331_eid_s01_128-10-10_keyboard_10_n03085013_10367.png
subject-01,1,332,0.908858060836792,car,bird,64-10-10,0332_eid_s01_64-10-10_bird_10_n01860187_21300.png
subject-01,1,333,1.09434199333191,truck,knife,32-10-10,0333_eid_s01_32-10-10_knife_10_n03041632_5302.png
subject-01,1,334,0.77810001373291,bear,bear,4-10-10,0334_eid_s01_4-10-10_bear_10_n02134084_5274.png
subject-01,1,335,0.900009155273438,knife,knife,4-10-10,0335_eid_s01_4-10-10_knife_10_n03041632_48816.png
subject-01,1,336,0.999923944473267,elephant,elephant,16-10-10,0336_eid_s01_16-10-10_elephant_10_n02504013_3295.png
subject-01,1,337,1.19987010955811,dog,truck,128-10-10,0337_eid_s01_128-10-10_truck_10_n03417042_2478.png
subject-01,1,338,0.975409984588623,keyboard,oven,32-10-10,0338_eid_s01_32-10-10_oven_10_n04111531_5350.png
subject-01,1,339,0.895408868789673,airplane,airplane,8-10-10,0339_eid_s01_8-10-10_airplane_10_n02690373_1663.png
subject-01,1,340,0.618854999542236,boat,boat,4-10-10,0340_eid_s01_4-10-10_boat_10_n03344393_1422.png
subject-01,1,341,1.18081712722778,dog,cat,32-10-10,0341_eid_s01_32-10-10_cat_10_n02123159_3312.png
subject-01,1,342,0.910556077957153,cat,chair,64-10-10,0342_eid_s01_64-10-10_chair_10_n03376595_6171.png
subject-01,1,343,0.768484830856323,bottle,bottle,8-10-10,0343_eid_s01_8-10-10_bottle_10_n04591713_1616.png
subject-01,1,344,0.878237009048462,chair,bear,128-10-10,0344_eid_s01_128-10-10_bear_10_n02133161_1197.png
subject-01,1,345,0.820417165756226,truck,truck,4-10-10,0345_eid_s01_4-10-10_truck_10_n04467665_663.png
subject-01,1,346,0.715842962265015,bear,bear,4-10-10,0346_eid_s01_4-10-10_bear_10_n02132136_2771.png
subject-01,1,347,1.21367502212524,cat,cat,16-10-10,0347_eid_s01_16-10-10_cat_10_n02123394_12.png
subject-01,1,348,0.843459844589233,car,car,8-10-10,0348_eid_s01_8-10-10_car_10_n04285008_1795.png
subject-01,1,349,0.643311023712158,boat,boat,4-10-10,0349_eid_s01_4-10-10_boat_10_n04273569_1023.png
subject-01,1,350,0.947160959243774,boat,boat,1-10-10,0350_eid_s01_1-10-10_boat_10_n03662601_21775.png
subject-01,1,351,1.32096314430237,keyboard,clock,1-10-10,0351_eid_s01_1-10-10_clock_10_n03196217_71.png
subject-01,1,352,0.784805059432983,keyboard,keyboard,4-10-10,0352_eid_s01_4-10-10_keyboard_10_n04505470_3122.png
subject-01,1,353,1.13647699356079,clock,dog,32-10-10,0353_eid_s01_32-10-10_dog_10_n02099849_4640.png
subject-01,1,354,1.10421800613403,dog,bottle,64-10-10,0354_eid_s01_64-10-10_bottle_10_n02823428_6418.png
subject-01,1,355,0.772286891937256,car,car,8-10-10,0355_eid_s01_8-10-10_car_10_n04285008_11704.png
subject-01,1,356,0.887850046157837,boat,clock,32-10-10,0356_eid_s01_32-10-10_clock_10_n02708093_3544.png
subject-01,1,357,1.22816705703735,keyboard,clock,8-10-10,0357_eid_s01_8-10-10_clock_10_n04548280_4599.png
subject-01,1,358,1.0754919052124,elephant,car,128-10-10,0358_eid_s01_128-10-10_car_10_n03100240_6259.png
subject-01,1,359,0.633496999740601,boat,boat,8-10-10,0359_eid_s01_8-10-10_boat_10_n04273569_3401.png
subject-01,1,360,0.951695919036865,knife,truck,64-10-10,0360_eid_s01_64-10-10_truck_10_n04467665_13898.png
subject-01,1,361,0.739109992980957,clock,clock,2-10-10,0361_eid_s01_2-10-10_clock_10_n03196217_1499.png
subject-01,1,362,0.642812967300415,car,car,4-10-10,0362_eid_s01_4-10-10_car_10_n03100240_8702.png
subject-01,1,363,1.08670401573181,bear,bear,4-10-10,0363_eid_s01_4-10-10_bear_10_n02134418_1770.png
subject-01,1,364,1.30245494842529,bear,bear,16-10-10,0364_eid_s01_16-10-10_bear_10_n02132136_32838.png
subject-01,1,365,1.08030295372009,car,truck,4-10-10,0365_eid_s01_4-10-10_truck_10_n04467665_68331.png
subject-01,1,366,0.678027868270874,airplane,airplane,1-10-10,0366_eid_s01_1-10-10_airplane_10_n02690373_4506.png
subject-01,1,367,0.822072982788086,car,car,2-10-10,0367_eid_s01_2-10-10_car_10_n03100240_5308.png
subject-01,1,368,1.1238260269165,bear,cat,2-10-10,0368_eid_s01_2-10-10_cat_10_n02124075_15345.png
subject-01,1,369,0.956013202667236,oven,bicycle,128-10-10,0369_eid_s01_128-10-10_bicycle_10_n03792782_50972.png
subject-01,1,370,0.891284942626953,chair,knife,8-10-10,0370_eid_s01_8-10-10_knife_10_n03041632_19098.png
subject-01,1,371,0.983115911483765,bottle,bottle,128-10-10,0371_eid_s01_128-10-10_bottle_10_n04560804_15963.png
subject-01,1,372,0.790831089019775,bottle,bottle,8-10-10,0372_eid_s01_8-10-10_bottle_10_n04557648_7809.png
subject-01,1,373,0.932858943939209,airplane,airplane,1-10-10,0373_eid_s01_1-10-10_airplane_10_n02690373_17764.png
subject-01,1,374,0.926701784133911,cat,elephant,64-10-10,0374_eid_s01_64-10-10_elephant_10_n02504013_7322.png
subject-01,1,375,1.12234807014465,bear,bear,2-10-10,0375_eid_s01_2-10-10_bear_10_n02134084_2959.png
subject-01,1,376,0.760334968566895,bird,bird,2-10-10,0376_eid_s01_2-10-10_bird_10_n01622779_6563.png
subject-01,1,377,0.711879968643188,airplane,knife,16-10-10,0377_eid_s01_16-10-10_knife_10_n03041632_19620.png
subject-01,1,378,0.586251020431519,bird,bird,4-10-10,0378_eid_s01_4-10-10_bird_10_n01530575_35977.png
subject-01,1,379,1.23967409133911,knife,cat,128-10-10,0379_eid_s01_128-10-10_cat_10_n02123394_1757.png
subject-01,1,380,1.28134107589722,dog,dog,2-10-10,0380_eid_s01_2-10-10_dog_10_n02093647_6358.png
subject-01,1,381,0.999309062957764,boat,boat,1-10-10,0381_eid_s01_1-10-10_boat_10_n02951358_1470.png
subject-01,1,382,0.949030876159668,bear,elephant,128-10-10,0382_eid_s01_128-10-10_elephant_10_n02504458_2026.png
subject-01,1,383,0.984864950180054,cat,elephant,32-10-10,0383_eid_s01_32-10-10_elephant_10_n02504458_3730.png
subject-01,1,384,0.858630895614624,keyboard,keyboard,8-10-10,0384_eid_s01_8-10-10_keyboard_10_n03085013_20881.png
subject-01,1,385,0.760469198226929,dog,dog,4-10-10,0385_eid_s01_4-10-10_dog_10_n02105641_8188.png
subject-01,1,386,0.94865608215332,elephant,clock,32-10-10,0386_eid_s01_32-10-10_clock_10_n03196217_6320.png
subject-01,1,387,1.00013494491577,car,car,32-10-10,0387_eid_s01_32-10-10_car_10_n04285008_12333.png
subject-01,1,388,1.09006094932556,knife,knife,2-10-10,0388_eid_s01_2-10-10_knife_10_n03041632_47743.png
subject-01,1,389,0.64186692237854,boat,boat,8-10-10,0389_eid_s01_8-10-10_boat_10_n04612504_8073.png
subject-01,1,390,0.70153284072876,oven,knife,128-10-10,0390_eid_s01_128-10-10_knife_10_n03041632_20770.png
subject-01,1,391,0.849292993545532,oven,car,32-10-10,0391_eid_s01_32-10-10_car_10_n02814533_28783.png
subject-01,1,392,0.805230855941772,bottle,car,128-10-10,0392_eid_s01_128-10-10_car_10_n02814533_13533.png
subject-01,1,393,0.887002944946289,dog,dog,16-10-10,0393_eid_s01_16-10-10_dog_10_n02104029_8137.png
subject-01,1,394,0.586884021759033,bicycle,bicycle,4-10-10,0394_eid_s01_4-10-10_bicycle_10_n02835271_3990.png
subject-01,1,395,0.684749126434326,boat,bear,4-10-10,0395_eid_s01_4-10-10_bear_10_n02132136_24311.png
subject-01,1,396,0.776411056518555,truck,truck,2-10-10,0396_eid_s01_2-10-10_truck_10_n03796401_6966.png
subject-01,1,397,1.06251382827759,knife,knife,1-10-10,0397_eid_s01_1-10-10_knife_10_n03041632_8468.png
subject-01,1,398,1.22198891639709,airplane,elephant,128-10-10,0398_eid_s01_128-10-10_elephant_10_n02504458_6799.png
subject-01,1,399,0.83784008026123,keyboard,keyboard,16-10-10,0399_eid_s01_16-10-10_keyboard_10_n03085013_24402.png
subject-01,1,400,1.10186004638672,oven,knife,16-10-10,0400_eid_s01_16-10-10_knife_10_n03041632_25772.png
subject-01,1,401,0.811007976531982,cat,elephant,32-10-10,0401_eid_s01_32-10-10_elephant_10_n02504458_5839.png
subject-01,1,402,1.16910004615784,cat,elephant,64-10-10,0402_eid_s01_64-10-10_elephant_10_n02504458_5178.png
subject-01,1,403,0.694796085357666,dog,bicycle,32-10-10,0403_eid_s01_32-10-10_bicycle_10_n02835271_27014.png
subject-01,1,404,0.856554985046387,keyboard,car,128-10-10,0404_eid_s01_128-10-10_car_10_n04285008_15218.png
subject-01,1,405,0.726434946060181,bicycle,bicycle,8-10-10,0405_eid_s01_8-10-10_bicycle_10_n02835271_19955.png
subject-01,1,406,0.778152942657471,truck,truck,1-10-10,0406_eid_s01_1-10-10_truck_10_n03796401_874.png
subject-01,1,407,0.830058097839355,dog,dog,2-10-10,0407_eid_s01_2-10-10_dog_10_n02108915_6092.png
subject-01,1,408,0.882021903991699,bird,clock,16-10-10,0408_eid_s01_16-10-10_clock_10_n04548280_6337.png
subject-01,1,409,0.645635843276978,boat,boat,4-10-10,0409_eid_s01_4-10-10_boat_10_n04273569_1388.png
subject-01,1,410,0.907455921173096,bicycle,clock,64-10-10,0410_eid_s01_64-10-10_clock_10_n02708093_2676.png
subject-01,1,411,1.37528204917908,dog,dog,64-10-10,0411_eid_s01_64-10-10_dog_10_n02107683_5424.png
subject-01,1,412,0.587019920349121,chair,chair,1-10-10,0412_eid_s01_1-10-10_chair_10_n04099969_29038.png
subject-01,1,413,0.536782026290894,clock,clock,16-10-10,0413_eid_s01_16-10-10_clock_10_n04548280_3219.png
subject-01,1,414,0.714631080627441,bottle,clock,32-10-10,0414_eid_s01_32-10-10_clock_10_n03196217_8282.png
subject-01,1,415,0.828532934188843,keyboard,oven,8-10-10,0415_eid_s01_8-10-10_oven_10_n04111531_22041.png
subject-01,1,416,1.04017090797424,bear,bear,8-10-10,0416_eid_s01_8-10-10_bear_10_n02134084_6964.png
subject-01,1,417,0.920228004455566,oven,bicycle,64-10-10,0417_eid_s01_64-10-10_bicycle_10_n03792782_11921.png
subject-01,1,418,0.795928955078125,clock,clock,8-10-10,0418_eid_s01_8-10-10_clock_10_n04548280_1809.png
subject-01,1,419,0.854094982147217,bird,bird,4-10-10,0419_eid_s01_4-10-10_bird_10_n01833805_202.png
subject-01,1,420,1.25762510299683,clock,keyboard,64-10-10,0420_eid_s01_64-10-10_keyboard_10_n03085013_7511.png
subject-01,1,421,0.707361936569214,bird,bird,1-10-10,0421_eid_s01_1-10-10_bird_10_n02025239_5287.png
subject-01,1,422,0.791218042373657,cat,boat,64-10-10,0422_eid_s01_64-10-10_boat_10_n03662601_27960.png
subject-01,1,423,0.943100929260254,oven,bottle,1-10-10,0423_eid_s01_1-10-10_bottle_10_n04591713_6855.png
subject-01,1,424,0.980863094329834,bicycle,elephant,128-10-10,0424_eid_s01_128-10-10_elephant_10_n02504013_4424.png
subject-01,1,425,1.04080700874329,keyboard,clock,2-10-10,0425_eid_s01_2-10-10_clock_10_n04548280_3295.png
subject-01,1,426,0.904423952102661,airplane,airplane,1-10-10,0426_eid_s01_1-10-10_airplane_10_n02690373_6144.png
subject-01,1,427,0.982238054275513,bear,truck,32-10-10,0427_eid_s01_32-10-10_truck_10_n04467665_70894.png
subject-01,1,428,1.00192403793335,elephant,boat,128-10-10,0428_eid_s01_128-10-10_boat_10_n02951358_30474.png
subject-01,1,429,0.592116117477417,bear,bear,4-10-10,0429_eid_s01_4-10-10_bear_10_n02132136_6434.png
subject-01,1,430,0.901708126068115,keyboard,keyboard,32-10-10,0430_eid_s01_32-10-10_keyboard_10_n04505470_5009.png
subject-01,1,431,0.571604013442993,oven,keyboard,2-10-10,0431_eid_s01_2-10-10_keyboard_10_n03085013_13005.png
subject-01,1,432,0.717787981033325,chair,chair,1-10-10,0432_eid_s01_1-10-10_chair_10_n03376595_6865.png
subject-01,1,433,1.18120002746582,bear,bicycle,32-10-10,0433_eid_s01_32-10-10_bicycle_10_n02835271_6122.png
subject-01,1,434,0.645089149475098,bear,oven,4-10-10,0434_eid_s01_4-10-10_oven_10_n04111531_11499.png
subject-01,1,435,0.77687406539917,bird,bird,1-10-10,0435_eid_s01_1-10-10_bird_10_n02009229_5765.png
subject-01,1,436,1.07854604721069,elephant,bottle,32-10-10,0436_eid_s01_32-10-10_bottle_10_n04560804_2181.png
subject-01,1,437,1.09841895103455,car,bicycle,32-10-10,0437_eid_s01_32-10-10_bicycle_10_n03792782_3774.png
subject-01,1,438,0.954521894454956,bird,bird,16-10-10,0438_eid_s01_16-10-10_bird_10_n01614925_1683.png
subject-01,1,439,0.560150146484375,clock,clock,8-10-10,0439_eid_s01_8-10-10_clock_10_n02708093_4692.png
subject-01,1,440,0.644234180450439,dog,dog,4-10-10,0440_eid_s01_4-10-10_dog_10_n02109961_71298.png
subject-01,1,441,0.743544816970825,keyboard,keyboard,2-10-10,0441_eid_s01_2-10-10_keyboard_10_n03085013_23269.png
subject-01,1,442,1.03128600120544,elephant,elephant,2-10-10,0442_eid_s01_2-10-10_elephant_10_n02504458_5614.png
subject-01,1,443,1.24150204658508,truck,car,2-10-10,0443_eid_s01_2-10-10_car_10_n04285008_4640.png
subject-01,1,444,1.10291695594788,knife,oven,128-10-10,0444_eid_s01_128-10-10_oven_10_n04111531_6346.png
subject-01,1,445,0.726720809936523,chair,chair,2-10-10,0445_eid_s01_2-10-10_chair_10_n04099969_14851.png
subject-01,1,446,1.13861012458801,airplane,bird,64-10-10,0446_eid_s01_64-10-10_bird_10_n02051845_534.png
subject-01,1,447,1.0564398765564,car,bird,128-10-10,0447_eid_s01_128-10-10_bird_10_n02056570_9342.png
subject-01,1,448,1.22639012336731,oven,oven,16-10-10,0448_eid_s01_16-10-10_oven_10_n04111531_4900.png
subject-01,1,449,0.880483865737915,boat,boat,32-10-10,0449_eid_s01_32-10-10_boat_10_n02951358_31973.png
subject-01,1,450,1.07791805267334,knife,keyboard,4-10-10,0450_eid_s01_4-10-10_keyboard_10_n03085013_19842.png
subject-01,1,451,0.901815891265869,keyboard,keyboard,8-10-10,0451_eid_s01_8-10-10_keyboard_10_n03085013_8296.png
subject-01,1,452,0.877434015274048,car,car,16-10-10,0452_eid_s01_16-10-10_car_10_n03100240_3528.png
subject-01,1,453,0.865338087081909,dog,cat,8-10-10,0453_eid_s01_8-10-10_cat_10_n02123159_7210.png
subject-01,1,454,0.813134908676147,knife,knife,16-10-10,0454_eid_s01_16-10-10_knife_10_n03041632_56172.png
subject-01,1,455,0.925081014633179,oven,oven,4-10-10,0455_eid_s01_4-10-10_oven_10_n04111531_2116.png
subject-01,1,456,0.86883807182312,bicycle,bicycle,8-10-10,0456_eid_s01_8-10-10_bicycle_10_n02835271_12477.png
subject-01,1,457,0.890604972839355,knife,knife,2-10-10,0457_eid_s01_2-10-10_knife_10_n03041632_42472.png
subject-01,1,458,0.730776071548462,oven,oven,2-10-10,0458_eid_s01_2-10-10_oven_10_n04111531_8818.png
subject-01,1,459,0.80617094039917,airplane,truck,2-10-10,0459_eid_s01_2-10-10_truck_10_n04467665_67115.png
subject-01,1,460,0.564134836196899,bird,bird,4-10-10,0460_eid_s01_4-10-10_bird_10_n02011460_3521.png
subject-01,1,461,1.1079089641571,elephant,bear,64-10-10,0461_eid_s01_64-10-10_bear_10_n02133161_3533.png
subject-01,1,462,0.745758056640625,bird,bird,8-10-10,0462_eid_s01_8-10-10_bird_10_n02013706_637.png
subject-01,1,463,0.95361590385437,bear,bear,64-10-10,0463_eid_s01_64-10-10_bear_10_n02132136_29636.png
subject-01,1,464,0.831678867340088,bicycle,bicycle,2-10-10,0464_eid_s01_2-10-10_bicycle_10_n02835271_634.png
subject-01,1,465,1.36717414855957,keyboard,keyboard,1-10-10,0465_eid_s01_1-10-10_keyboard_10_n04505470_4621.png
subject-01,1,466,0.878870010375977,boat,bear,16-10-10,0466_eid_s01_16-10-10_bear_10_n02134084_2844.png
subject-01,1,467,0.852734088897705,bicycle,bicycle,4-10-10,0467_eid_s01_4-10-10_bicycle_10_n03792782_17088.png
subject-01,1,468,0.732508897781372,clock,clock,4-10-10,0468_eid_s01_4-10-10_clock_10_n03196217_8706.png
subject-01,1,469,0.798283100128174,keyboard,oven,4-10-10,0469_eid_s01_4-10-10_oven_10_n04111531_15052.png
subject-01,1,470,1.10038018226624,chair,bottle,16-10-10,0470_eid_s01_16-10-10_bottle_10_n04560804_5769.png
subject-01,1,471,0.970101118087769,cat,dog,128-10-10,0471_eid_s01_128-10-10_dog_10_n02110063_14116.png
subject-01,1,472,0.947756052017212,bird,cat,32-10-10,0472_eid_s01_32-10-10_cat_10_n02124075_3609.png
subject-01,1,473,0.865610122680664,bird,airplane,32-10-10,0473_eid_s01_32-10-10_airplane_10_n02690373_10926.png
subject-01,1,474,1.24579000473022,cat,bird,16-10-10,0474_eid_s01_16-10-10_bird_10_n02033041_7229.png
subject-01,1,475,0.961210966110229,bird,bird,2-10-10,0475_eid_s01_2-10-10_bird_10_n02006656_611.png
subject-01,1,476,1.09109497070312,airplane,bear,16-10-10,0476_eid_s01_16-10-10_bear_10_n02133161_958.png
subject-01,1,477,0.587029933929443,bird,bird,8-10-10,0477_eid_s01_8-10-10_bird_10_n01843065_148.png
subject-01,1,478,0.898725986480713,boat,cat,32-10-10,0478_eid_s01_32-10-10_cat_10_n02123597_13623.png
subject-01,1,479,0.692501068115234,bicycle,bicycle,8-10-10,0479_eid_s01_8-10-10_bicycle_10_n02835271_12957.png
subject-01,1,480,0.700218200683594,keyboard,knife,8-10-10,0480_eid_s01_8-10-10_knife_10_n03041632_96714.png
subject-01,1,481,1.02503108978271,oven,bear,128-10-10,0481_eid_s01_128-10-10_bear_10_n02133161_3550.png
subject-01,1,482,0.777011156082153,airplane,airplane,2-10-10,0482_eid_s01_2-10-10_airplane_10_n02690373_4471.png
subject-01,1,483,0.758703947067261,airplane,airplane,64-10-10,0483_eid_s01_64-10-10_airplane_10_n02690373_2026.png
subject-01,1,484,0.50461483001709,car,car,1-10-10,0484_eid_s01_1-10-10_car_10_n03100240_18270.png
subject-01,1,485,0.87825608253479,bottle,elephant,128-10-10,0485_eid_s01_128-10-10_elephant_10_n02504458_5204.png
subject-01,1,486,0.632139921188354,oven,oven,1-10-10,0486_eid_s01_1-10-10_oven_10_n04111531_10339.png
subject-01,1,487,0.706022024154663,elephant,elephant,2-10-10,0487_eid_s01_2-10-10_elephant_10_n02504458_12705.png
subject-01,1,488,0.878031969070435,bird,boat,1-10-10,0488_eid_s01_1-10-10_boat_10_n03344393_9268.png
subject-01,1,489,0.943526029586792,airplane,bicycle,16-10-10,0489_eid_s01_16-10-10_bicycle_10_n02835271_23173.png
subject-01,1,490,1.02931904792786,bird,knife,32-10-10,0490_eid_s01_32-10-10_knife_10_n03041632_43975.png
subject-01,1,491,0.649534940719604,cat,bicycle,128-10-10,0491_eid_s01_128-10-10_bicycle_10_n03792782_3299.png
subject-01,1,492,0.817039966583252,airplane,boat,32-10-10,0492_eid_s01_32-10-10_boat_10_n04273569_5679.png
subject-01,1,493,1.00076389312744,car,bird,32-10-10,0493_eid_s01_32-10-10_bird_10_n02056570_10127.png
subject-01,1,494,1.07694292068481,cat,bear,32-10-10,0494_eid_s01_32-10-10_bear_10_n02133161_7688.png
subject-01,1,495,1.03251600265503,cat,cat,16-10-10,0495_eid_s01_16-10-10_cat_10_n02123597_624.png
subject-01,1,496,1.10024094581604,oven,bird,64-10-10,0496_eid_s01_64-10-10_bird_10_n01560419_3399.png
subject-01,1,497,0.892187118530273,chair,cat,32-10-10,0497_eid_s01_32-10-10_cat_10_n02123045_12762.png
subject-01,1,498,0.619819164276123,car,car,16-10-10,0498_eid_s01_16-10-10_car_10_n02814533_7247.png
subject-01,1,499,0.62561297416687,keyboard,keyboard,4-10-10,0499_eid_s01_4-10-10_keyboard_10_n03085013_4941.png
subject-01,1,500,0.767491102218628,truck,truck,4-10-10,0500_eid_s01_4-10-10_truck_10_n03417042_6420.png
subject-01,1,501,0.815701961517334,oven,boat,64-10-10,0501_eid_s01_64-10-10_boat_10_n03662601_2120.png
subject-01,1,502,0.803339958190918,bear,bear,2-10-10,0502_eid_s01_2-10-10_bear_10_n02134084_7331.png
subject-01,1,503,0.745007991790771,cat,bottle,32-10-10,0503_eid_s01_32-10-10_bottle_10_n02823428_906.png
subject-01,1,504,0.786778926849365,cat,cat,16-10-10,0504_eid_s01_16-10-10_cat_10_n02123394_270.png
subject-01,1,505,1.14446806907654,boat,boat,2-10-10,0505_eid_s01_2-10-10_boat_10_n02951358_1910.png
subject-01,1,506,1.11840295791626,oven,knife,4-10-10,0506_eid_s01_4-10-10_knife_10_n03041632_23678.png
subject-01,1,507,0.744282007217407,car,car,16-10-10,0507_eid_s01_16-10-10_car_10_n02814533_31083.png
subject-01,1,508,0.593954801559448,keyboard,keyboard,1-10-10,0508_eid_s01_1-10-10_keyboard_10_n04505470_2881.png
subject-01,1,509,0.80000376701355,dog,cat,8-10-10,0509_eid_s01_8-10-10_cat_10_n02125311_2923.png
subject-01,1,510,0.641669988632202,bicycle,bicycle,2-10-10,0510_eid_s01_2-10-10_bicycle_10_n03792782_2598.png
subject-01,1,511,0.897578954696655,car,car,2-10-10,0511_eid_s01_2-10-10_car_10_n03100240_4460.png
subject-01,1,512,1.4412579536438,cat,knife,4-10-10,0512_eid_s01_4-10-10_knife_10_n03041632_29920.png
subject-01,1,513,1.1234028339386,bicycle,bird,32-10-10,0513_eid_s01_32-10-10_bird_10_n01796340_3845.png
subject-01,1,514,0.657027006149292,keyboard,keyboard,8-10-10,0514_eid_s01_8-10-10_keyboard_10_n03085013_21932.png
subject-01,1,515,0.788810014724731,bottle,bottle,1-10-10,0515_eid_s01_1-10-10_bottle_10_n02823428_64.png
subject-01,1,516,0.616661071777344,chair,chair,8-10-10,0516_eid_s01_8-10-10_chair_10_n04099969_4374.png
subject-01,1,517,0.728301048278809,clock,clock,1-10-10,0517_eid_s01_1-10-10_clock_10_n02708093_8257.png
subject-01,1,518,1.06211018562317,airplane,knife,16-10-10,0518_eid_s01_16-10-10_knife_10_n03041632_45569.png
subject-01,1,519,1.0359411239624,car,chair,128-10-10,0519_eid_s01_128-10-10_chair_10_n04099969_1850.png
subject-01,1,520,0.722219944000244,dog,dog,2-10-10,0520_eid_s01_2-10-10_dog_10_n02092002_2008.png
subject-01,1,521,0.647732973098755,bicycle,bicycle,8-10-10,0521_eid_s01_8-10-10_bicycle_10_n02835271_8105.png
subject-01,1,522,1.20770001411438,bear,oven,64-10-10,0522_eid_s01_64-10-10_oven_10_n04111531_14126.png
subject-01,1,523,1.21922206878662,bird,elephant,4-10-10,0523_eid_s01_4-10-10_elephant_10_n02504013_13766.png
subject-01,1,524,1.33314299583435,airplane,bicycle,64-10-10,0524_eid_s01_64-10-10_bicycle_10_n02835271_18361.png
subject-01,1,525,1.30691194534302,cat,bird,8-10-10,0525_eid_s01_8-10-10_bird_10_n01582220_4708.png
subject-01,1,526,0.904595851898193,chair,chair,16-10-10,0526_eid_s01_16-10-10_chair_10_n04099969_101.png
subject-01,1,527,0.766439914703369,cat,cat,1-10-10,0527_eid_s01_1-10-10_cat_10_n02124075_724.png
subject-01,1,528,1.03617691993713,car,bicycle,32-10-10,0528_eid_s01_32-10-10_bicycle_10_n02835271_43.png
subject-01,1,529,0.940232992172241,bird,bird,2-10-10,0529_eid_s01_2-10-10_bird_10_n02017213_5362.png
subject-01,1,530,1.25789213180542,cat,dog,1-10-10,0530_eid_s01_1-10-10_dog_10_n02088466_1769.png
subject-01,1,531,0.963747024536133,bear,bear,1-10-10,0531_eid_s01_1-10-10_bear_10_n02133161_5653.png
subject-01,1,532,0.999418020248413,bear,dog,1-10-10,0532_eid_s01_1-10-10_dog_10_n02098105_4676.png
subject-01,1,533,0.68569803237915,cat,cat,2-10-10,0533_eid_s01_2-10-10_cat_10_n02123045_3593.png
subject-01,1,534,0.789115905761719,bottle,bottle,8-10-10,0534_eid_s01_8-10-10_bottle_10_n04560804_265.png
subject-01,1,535,1.36295199394226,airplane,knife,128-10-10,0535_eid_s01_128-10-10_knife_10_n03041632_1556.png
subject-01,1,536,0.694723844528198,chair,chair,4-10-10,0536_eid_s01_4-10-10_chair_10_n02791124_9595.png
subject-01,1,537,0.962692022323608,truck,dog,32-10-10,0537_eid_s01_32-10-10_dog_10_n02107312_2933.png
subject-01,1,538,1.07642292976379,knife,oven,32-10-10,0538_eid_s01_32-10-10_oven_10_n04111531_101.png
subject-01,1,539,1.17229890823364,truck,truck,4-10-10,0539_eid_s01_4-10-10_truck_10_n03417042_7204.png
subject-01,1,540,1.04410696029663,bear,bear,64-10-10,0540_eid_s01_64-10-10_bear_10_n02132136_2120.png
subject-01,1,541,0.835896968841553,bear,airplane,64-10-10,0541_eid_s01_64-10-10_airplane_10_n02690373_18412.png
subject-01,1,542,1.1677770614624,clock,knife,128-10-10,0542_eid_s01_128-10-10_knife_10_n03041632_21017.png
subject-01,1,543,0.96953296661377,bicycle,elephant,128-10-10,0543_eid_s01_128-10-10_elephant_10_n02504458_8414.png
subject-01,1,544,1.04338002204895,airplane,bottle,128-10-10,0544_eid_s01_128-10-10_bottle_10_n04557648_11046.png
subject-01,1,545,0.914983987808228,car,clock,64-10-10,0545_eid_s01_64-10-10_clock_10_n03196217_10578.png
subject-01,1,546,1.10711717605591,clock,bear,2-10-10,0546_eid_s01_2-10-10_bear_10_n02134418_3213.png
subject-01,1,547,0.712855100631714,bird,clock,64-10-10,0547_eid_s01_64-10-10_clock_10_n03196217_6289.png
subject-01,1,548,0.810600996017456,keyboard,dog,32-10-10,0548_eid_s01_32-10-10_dog_10_n02096294_1498.png
subject-01,1,549,NaN,na,oven,16-10-10,0549_eid_s01_16-10-10_oven_10_n04111531_519.png
subject-01,1,550,0.616383790969849,bird,bird,1-10-10,0550_eid_s01_1-10-10_bird_10_n01531178_14959.png
subject-01,1,551,1.08598709106445,keyboard,bear,32-10-10,0551_eid_s01_32-10-10_bear_10_n02132136_8754.png
subject-01,1,552,0.981723070144653,car,car,1-10-10,0552_eid_s01_1-10-10_car_10_n02814533_73067.png
subject-01,1,553,0.783595085144043,cat,cat,8-10-10,0553_eid_s01_8-10-10_cat_10_n02124075_15378.png
subject-01,1,554,1.2312319278717,clock,bird,128-10-10,0554_eid_s01_128-10-10_bird_10_n01592084_7569.png
subject-01,1,555,0.961261987686157,bear,dog,128-10-10,0555_eid_s01_128-10-10_dog_10_n02094114_3395.png
subject-01,1,556,1.08502578735352,car,chair,4-10-10,0556_eid_s01_4-10-10_chair_10_n03376595_1712.png
subject-01,1,557,0.884830951690674,airplane,bear,64-10-10,0557_eid_s01_64-10-10_bear_10_n02134084_622.png
subject-01,1,558,1.50007891654968,clock,clock,8-10-10,0558_eid_s01_8-10-10_clock_10_n03196217_4912.png
subject-01,1,559,0.842849969863892,boat,car,64-10-10,0559_eid_s01_64-10-10_car_10_n03100240_18815.png
subject-01,1,560,0.644422054290771,chair,chair,2-10-10,0560_eid_s01_2-10-10_chair_10_n04099969_2020.png
subject-01,1,561,0.71251392364502,bear,bear,1-10-10,0561_eid_s01_1-10-10_bear_10_n02132136_7647.png
subject-01,1,562,1.16230297088623,cat,oven,128-10-10,0562_eid_s01_128-10-10_oven_10_n04111531_2796.png
subject-01,1,563,1.25619196891785,airplane,truck,64-10-10,0563_eid_s01_64-10-10_truck_10_n03796401_9472.png
subject-01,1,564,0.870233058929443,chair,chair,4-10-10,0564_eid_s01_4-10-10_chair_10_n03376595_12433.png
subject-01,1,565,0.701634168624878,truck,truck,4-10-10,0565_eid_s01_4-10-10_truck_10_n04467665_31539.png
subject-01,1,566,0.759959936141968,airplane,airplane,32-10-10,0566_eid_s01_32-10-10_airplane_10_n02690373_10657.png
subject-01,1,567,0.91932487487793,truck,truck,16-10-10,0567_eid_s01_16-10-10_truck_10_n03796401_5963.png
subject-01,1,568,1.26927804946899,chair,dog,64-10-10,0568_eid_s01_64-10-10_dog_10_n02096294_2233.png
subject-01,1,569,1.12912392616272,clock,airplane,128-10-10,0569_eid_s01_128-10-10_airplane_10_n02690373_4873.png
subject-01,1,570,0.860800981521606,truck,truck,1-10-10,0570_eid_s01_1-10-10_truck_10_n04467665_4825.png
subject-01,1,571,0.731024026870728,chair,chair,16-10-10,0571_eid_s01_16-10-10_chair_10_n04099969_1704.png
subject-01,1,572,0.70641303062439,bicycle,bicycle,2-10-10,0572_eid_s01_2-10-10_bicycle_10_n02835271_1573.png
subject-01,1,573,1.47636103630066,boat,boat,2-10-10,0573_eid_s01_2-10-10_boat_10_n04273569_12725.png
subject-01,1,574,1.1861789226532,cat,knife,128-10-10,0574_eid_s01_128-10-10_knife_10_n03041632_11285.png
subject-01,1,575,0.627976894378662,clock,clock,4-10-10,0575_eid_s01_4-10-10_clock_10_n03196217_8254.png
subject-01,1,576,0.994050025939941,car,knife,16-10-10,0576_eid_s01_16-10-10_knife_10_n03041632_15099.png
subject-01,1,577,1.00564098358154,keyboard,cat,64-10-10,0577_eid_s01_64-10-10_cat_10_n02125311_30452.png
subject-01,1,578,1.05331707000732,bottle,bottle,32-10-10,0578_eid_s01_32-10-10_bottle_10_n04591713_6804.png
subject-01,1,579,1.3572678565979,bird,dog,64-10-10,0579_eid_s01_64-10-10_dog_10_n02088364_14369.png
subject-01,1,580,1.23931789398193,chair,truck,32-10-10,0580_eid_s01_32-10-10_truck_10_n03796401_16425.png
subject-01,1,581,1.28677201271057,airplane,truck,64-10-10,0581_eid_s01_64-10-10_truck_10_n03417042_5406.png
subject-01,1,582,1.50010395050049,chair,knife,1-10-10,0582_eid_s01_1-10-10_knife_10_n03041632_52929.png
subject-01,1,583,1.13872909545898,car,chair,64-10-10,0583_eid_s01_64-10-10_chair_10_n03376595_4820.png
subject-01,1,584,0.666257858276367,chair,chair,1-10-10,0584_eid_s01_1-10-10_chair_10_n03376595_787.png
subject-01,1,585,0.712078809738159,chair,chair,2-10-10,0585_eid_s01_2-10-10_chair_10_n03376595_7709.png
subject-01,1,586,0.903743028640747,bottle,bottle,1-10-10,0586_eid_s01_1-10-10_bottle_10_n03983396_11006.png
subject-01,1,587,0.891613960266113,oven,oven,8-10-10,0587_eid_s01_8-10-10_oven_10_n04111531_458.png
subject-01,1,588,0.967392206192017,airplane,cat,128-10-10,0588_eid_s01_128-10-10_cat_10_n02123045_7829.png
subject-01,1,589,0.717148065567017,bear,bear,1-10-10,0589_eid_s01_1-10-10_bear_10_n02134418_4685.png
subject-01,1,590,1.36108589172363,chair,knife,64-10-10,0590_eid_s01_64-10-10_knife_10_n03041632_1964.png
subject-01,1,591,0.591392040252686,car,car,4-10-10,0591_eid_s01_4-10-10_car_10_n03100240_17472.png
subject-01,1,592,1.37662482261658,boat,dog,16-10-10,0592_eid_s01_16-10-10_dog_10_n02113023_1980.png
subject-01,1,593,1.43639183044434,dog,dog,32-10-10,0593_eid_s01_32-10-10_dog_10_n02100735_6359.png
subject-01,1,594,1.02631187438965,oven,knife,1-10-10,0594_eid_s01_1-10-10_knife_10_n03041632_31849.png
subject-01,1,595,1.02213501930237,boat,bird,8-10-10,0595_eid_s01_8-10-10_bird_10_n01532829_23378.png
subject-01,1,596,1.40802812576294,airplane,clock,64-10-10,0596_eid_s01_64-10-10_clock_10_n02708093_5127.png
subject-01,1,597,0.951704978942871,bear,bear,4-10-10,0597_eid_s01_4-10-10_bear_10_n02134084_12148.png
subject-01,1,598,1.00794196128845,elephant,elephant,4-10-10,0598_eid_s01_4-10-10_elephant_10_n02504458_63.png
subject-01,1,599,0.847791910171509,dog,dog,2-10-10,0599_eid_s01_2-10-10_dog_10_n02108551_13160.png
subject-01,1,600,0.71914005279541,bicycle,bicycle,2-10-10,0600_eid_s01_2-10-10_bicycle_10_n02835271_3215.png
subject-01,1,601,1.49491405487061,bear,bicycle,16-10-10,0601_eid_s01_16-10-10_bicycle_10_n03792782_14216.png
subject-01,1,602,0.982648849487305,bicycle,bicycle,2-10-10,0602_eid_s01_2-10-10_bicycle_10_n03792782_25352.png
subject-01,1,603,1.26106786727905,car,boat,128-10-10,0603_eid_s01_128-10-10_boat_10_n04273569_1482.png
subject-01,1,604,1.06049418449402,car,car,2-10-10,0604_eid_s01_2-10-10_car_10_n02814533_59053.png
subject-01,1,605,1.25617289543152,elephant,airplane,128-10-10,0605_eid_s01_128-10-10_airplane_10_n02690373_10462.png
subject-01,1,606,0.86213207244873,bottle,bottle,8-10-10,0606_eid_s01_8-10-10_bottle_10_n04560804_15379.png
subject-01,1,607,1.343905210495,chair,chair,16-10-10,0607_eid_s01_16-10-10_chair_10_n02791124_1140.png
subject-01,1,608,0.887671947479248,dog,dog,8-10-10,0608_eid_s01_8-10-10_dog_10_n02101388_24945.png
subject-01,1,609,1.06352186203003,bird,cat,64-10-10,0609_eid_s01_64-10-10_cat_10_n02124075_20957.png
subject-01,1,610,1.40373516082764,boat,elephant,1-10-10,0610_eid_s01_1-10-10_elephant_10_n02504013_8105.png
subject-01,1,611,0.901326894760132,truck,truck,2-10-10,0611_eid_s01_2-10-10_truck_10_n03796401_13992.png
subject-01,1,612,0.951082944869995,airplane,bottle,128-10-10,0612_eid_s01_128-10-10_bottle_10_n04560804_22426.png
subject-01,1,613,0.93282413482666,cat,cat,1-10-10,0613_eid_s01_1-10-10_cat_10_n02123159_2100.png
subject-01,1,614,0.712663173675537,bird,clock,64-10-10,0614_eid_s01_64-10-10_clock_10_n02708093_6560.png
subject-01,1,615,0.794644117355347,boat,bird,1-10-10,0615_eid_s01_1-10-10_bird_10_n01855032_4905.png
subject-01,1,616,0.636194944381714,clock,clock,2-10-10,0616_eid_s01_2-10-10_clock_10_n04548280_2616.png
subject-01,1,617,0.930461883544922,truck,truck,2-10-10,0617_eid_s01_2-10-10_truck_10_n03417042_3789.png
subject-01,1,618,1.2138819694519,cat,oven,64-10-10,0618_eid_s01_64-10-10_oven_10_n04111531_7356.png
subject-01,1,619,0.951894044876099,cat,cat,4-10-10,0619_eid_s01_4-10-10_cat_10_n02124075_18687.png
subject-01,1,620,0.807564973831177,keyboard,keyboard,8-10-10,0620_eid_s01_8-10-10_keyboard_10_n03085013_17884.png
subject-01,1,621,0.77125096321106,keyboard,keyboard,2-10-10,0621_eid_s01_2-10-10_keyboard_10_n03085013_4780.png
subject-01,1,622,0.83707594871521,bear,cat,16-10-10,0622_eid_s01_16-10-10_cat_10_n02123045_15476.png
subject-01,1,623,0.873066902160645,keyboard,keyboard,4-10-10,0623_eid_s01_4-10-10_keyboard_10_n03085013_6095.png
subject-01,1,624,1.50002908706665,airplane,airplane,1-10-10,0624_eid_s01_1-10-10_airplane_10_n02690373_18848.png
subject-01,1,625,1.18686389923096,cat,bicycle,16-10-10,0625_eid_s01_16-10-10_bicycle_10_n02835271_18706.png
subject-01,1,626,1.00266790390015,dog,dog,1-10-10,0626_eid_s01_1-10-10_dog_10_n02111500_1393.png
subject-01,1,627,0.71022891998291,airplane,airplane,2-10-10,0627_eid_s01_2-10-10_airplane_10_n02690373_5748.png
subject-01,1,628,0.932226896286011,cat,dog,128-10-10,0628_eid_s01_128-10-10_dog_10_n02100877_7049.png
subject-01,1,629,1.04410004615784,bear,bear,32-10-10,0629_eid_s01_32-10-10_bear_10_n02134084_6854.png
subject-01,1,630,0.939533948898315,dog,bottle,16-10-10,0630_eid_s01_16-10-10_bottle_10_n03983396_11402.png
subject-01,1,631,1.50000810623169,elephant,cat,64-10-10,0631_eid_s01_64-10-10_cat_10_n02124075_2813.png
subject-01,1,632,1.37707495689392,elephant,keyboard,32-10-10,0632_eid_s01_32-10-10_keyboard_10_n03085013_23814.png
subject-01,1,633,0.885113000869751,cat,cat,2-10-10,0633_eid_s01_2-10-10_cat_10_n02125311_30349.png
subject-01,1,634,0.780883073806763,bear,bear,16-10-10,0634_eid_s01_16-10-10_bear_10_n02133161_1234.png
subject-01,1,635,1.15672588348389,bear,oven,128-10-10,0635_eid_s01_128-10-10_oven_10_n04111531_9779.png
subject-01,1,636,0.668823957443237,oven,car,64-10-10,0636_eid_s01_64-10-10_car_10_n02814533_19373.png
subject-01,1,637,1.08036708831787,bicycle,bird,4-10-10,0637_eid_s01_4-10-10_bird_10_n02051845_41380.png
subject-01,1,638,0.91041088104248,bird,cat,16-10-10,0638_eid_s01_16-10-10_cat_10_n02123159_2455.png
subject-01,1,639,0.805866956710815,knife,knife,8-10-10,0639_eid_s01_8-10-10_knife_10_n03041632_23803.png
subject-01,1,640,0.965750932693481,bear,boat,16-10-10,0640_eid_s01_16-10-10_boat_10_n02951358_2013.png
subject-01,1,641,1.09832096099854,dog,bottle,64-10-10,0641_eid_s01_64-10-10_bottle_10_n04591713_6561.png
subject-01,1,642,0.852220058441162,elephant,elephant,32-10-10,0642_eid_s01_32-10-10_elephant_10_n02504013_12531.png
subject-01,1,643,1.33230996131897,keyboard,boat,64-10-10,0643_eid_s01_64-10-10_boat_10_n04612504_4719.png
subject-01,1,644,1.44626092910767,dog,car,32-10-10,0644_eid_s01_32-10-10_car_10_n02814533_46403.png
subject-01,1,645,0.595982074737549,airplane,airplane,8-10-10,0645_eid_s01_8-10-10_airplane_10_n02690373_8304.png
subject-01,1,646,0.855449914932251,airplane,boat,16-10-10,0646_eid_s01_16-10-10_boat_10_n03662601_2686.png
subject-01,1,647,0.795099020004272,dog,dog,2-10-10,0647_eid_s01_2-10-10_dog_10_n02099849_2787.png
subject-01,1,648,0.917148113250732,boat,elephant,1-10-10,0648_eid_s01_1-10-10_elephant_10_n02504458_7063.png
subject-01,1,649,0.748794078826904,keyboard,chair,1-10-10,0649_eid_s01_1-10-10_chair_10_n03376595_6938.png
subject-01,1,650,0.910631895065308,chair,chair,8-10-10,0650_eid_s01_8-10-10_chair_10_n02791124_5191.png
subject-01,1,651,0.686393976211548,boat,boat,2-10-10,0651_eid_s01_2-10-10_boat_10_n02951358_2350.png
subject-01,1,652,0.932346105575562,bear,bear,8-10-10,0652_eid_s01_8-10-10_bear_10_n02132136_6266.png
subject-01,1,653,NaN,na,chair,32-10-10,0653_eid_s01_32-10-10_chair_10_n03376595_8964.png
subject-01,1,654,0.76783013343811,airplane,airplane,2-10-10,0654_eid_s01_2-10-10_airplane_10_n02690373_4042.png
subject-01,1,655,0.957824945449829,car,oven,2-10-10,0655_eid_s01_2-10-10_oven_10_n04111531_845.png
subject-01,1,656,0.945813894271851,boat,car,32-10-10,0656_eid_s01_32-10-10_car_10_n02814533_49630.png
subject-01,1,657,1.01725101470947,knife,knife,4-10-10,0657_eid_s01_4-10-10_knife_10_n03041632_40450.png
subject-01,1,658,1.24926996231079,car,chair,16-10-10,0658_eid_s01_16-10-10_chair_10_n04429376_11720.png
subject-01,1,659,0.793144941329956,chair,knife,4-10-10,0659_eid_s01_4-10-10_knife_10_n03041632_27929.png
subject-01,1,660,0.803004026412964,bird,bird,1-10-10,0660_eid_s01_1-10-10_bird_10_n02018207_10146.png
subject-01,1,661,0.872956037521362,elephant,elephant,32-10-10,0661_eid_s01_32-10-10_elephant_10_n02504458_2471.png
subject-01,1,662,0.868587017059326,keyboard,oven,8-10-10,0662_eid_s01_8-10-10_oven_10_n04111531_20511.png
subject-01,1,663,1.10655498504639,oven,truck,32-10-10,0663_eid_s01_32-10-10_truck_10_n03417042_3228.png
subject-01,1,664,0.806457996368408,cat,cat,2-10-10,0664_eid_s01_2-10-10_cat_10_n02125311_9364.png
subject-01,1,665,0.605835199356079,car,car,2-10-10,0665_eid_s01_2-10-10_car_10_n04285008_16701.png
subject-01,1,666,0.985738039016724,boat,boat,8-10-10,0666_eid_s01_8-10-10_boat_10_n04273569_2667.png
subject-01,1,667,0.885490894317627,boat,boat,1-10-10,0667_eid_s01_1-10-10_boat_10_n03662601_24208.png
subject-01,1,668,0.913331031799316,truck,truck,8-10-10,0668_eid_s01_8-10-10_truck_10_n03417042_11037.png
subject-01,1,669,1.28522801399231,airplane,bird,1-10-10,0669_eid_s01_1-10-10_bird_10_n02002724_19618.png
subject-01,1,670,1.03083491325378,boat,bear,16-10-10,0670_eid_s01_16-10-10_bear_10_n02134418_1663.png
subject-01,1,671,1.11470413208008,chair,chair,128-10-10,0671_eid_s01_128-10-10_chair_10_n04099969_19484.png
subject-01,1,672,1.2664680480957,car,car,1-10-10,0672_eid_s01_1-10-10_car_10_n04285008_2727.png
subject-01,1,673,0.964310169219971,bottle,bicycle,32-10-10,0673_eid_s01_32-10-10_bicycle_10_n03792782_14935.png
subject-01,1,674,1.39802694320679,cat,cat,128-10-10,0674_eid_s01_128-10-10_cat_10_n02124075_8320.png
subject-01,1,675,0.612299203872681,clock,chair,4-10-10,0675_eid_s01_4-10-10_chair_10_n04429376_57014.png
subject-01,1,676,1.34417700767517,clock,oven,1-10-10,0676_eid_s01_1-10-10_oven_10_n04111531_2385.png
subject-01,1,677,0.950012922286987,chair,dog,64-10-10,0677_eid_s01_64-10-10_dog_10_n02113023_10107.png
subject-01,1,678,1.12545108795166,oven,elephant,16-10-10,0678_eid_s01_16-10-10_elephant_10_n02504458_4708.png
subject-01,1,679,NaN,na,truck,64-10-10,0679_eid_s01_64-10-10_truck_10_n04467665_70694.png
subject-01,1,680,0.77342700958252,bird,bird,1-10-10,0680_eid_s01_1-10-10_bird_10_n01843065_1179.png
subject-01,1,681,0.976701974868774,car,truck,1-10-10,0681_eid_s01_1-10-10_truck_10_n03417042_11475.png
subject-01,1,682,1.16715788841248,clock,bicycle,64-10-10,0682_eid_s01_64-10-10_bicycle_10_n02835271_6137.png
subject-01,1,683,1.03052616119385,truck,airplane,16-10-10,0683_eid_s01_16-10-10_airplane_10_n02690373_10001.png
subject-01,1,684,0.688444137573242,cat,cat,2-10-10,0684_eid_s01_2-10-10_cat_10_n02124075_17347.png
subject-01,1,685,0.786517858505249,chair,keyboard,16-10-10,0685_eid_s01_16-10-10_keyboard_10_n04505470_647.png
subject-01,1,686,0.899978876113892,bottle,bottle,4-10-10,0686_eid_s01_4-10-10_bottle_10_n03983396_3028.png
subject-01,1,687,0.755763053894043,car,car,1-10-10,0687_eid_s01_1-10-10_car_10_n02814533_81090.png
subject-01,1,688,0.845530986785889,oven,truck,32-10-10,0688_eid_s01_32-10-10_truck_10_n03417042_18152.png
subject-01,1,689,1.02124714851379,airplane,bird,128-10-10,0689_eid_s01_128-10-10_bird_10_n02033041_617.png
subject-01,1,690,1.02516388893127,cat,cat,64-10-10,0690_eid_s01_64-10-10_cat_10_n02123159_7270.png
subject-01,1,691,0.795280933380127,boat,bird,64-10-10,0691_eid_s01_64-10-10_bird_10_n01532829_20405.png
subject-01,1,692,0.954769134521484,chair,bottle,32-10-10,0692_eid_s01_32-10-10_bottle_10_n04557648_182.png
subject-01,1,693,0.778419971466064,bottle,car,64-10-10,0693_eid_s01_64-10-10_car_10_n04285008_11745.png
subject-01,1,694,0.672505140304565,bear,bear,4-10-10,0694_eid_s01_4-10-10_bear_10_n02134084_38915.png
subject-01,1,695,0.768632888793945,keyboard,keyboard,8-10-10,0695_eid_s01_8-10-10_keyboard_10_n03085013_21066.png
subject-01,1,696,0.952000856399536,bear,bear,2-10-10,0696_eid_s01_2-10-10_bear_10_n02133161_6458.png
subject-01,1,697,1.18590307235718,keyboard,truck,128-10-10,0697_eid_s01_128-10-10_truck_10_n04467665_67909.png
subject-01,1,698,0.657837867736816,car,car,4-10-10,0698_eid_s01_4-10-10_car_10_n04285008_12691.png
subject-01,1,699,1.02146315574646,airplane,truck,8-10-10,0699_eid_s01_8-10-10_truck_10_n04467665_69882.png
subject-01,1,700,0.869320869445801,cat,cat,4-10-10,0700_eid_s01_4-10-10_cat_10_n02123045_1902.png
subject-01,1,701,1.13139295578003,car,car,4-10-10,0701_eid_s01_4-10-10_car_10_n03100240_5709.png
subject-01,1,702,0.682753801345825,bear,bear,8-10-10,0702_eid_s01_8-10-10_bear_10_n02134084_1938.png
subject-01,1,703,0.748720169067383,clock,clock,2-10-10,0703_eid_s01_2-10-10_clock_10_n02708093_6820.png
subject-01,1,704,0.94843602180481,airplane,airplane,1-10-10,0704_eid_s01_1-10-10_airplane_10_n02690373_5689.png
subject-01,1,705,1.09016489982605,elephant,elephant,16-10-10,0705_eid_s01_16-10-10_elephant_10_n02504013_8563.png
subject-01,1,706,0.742093086242676,bottle,bottle,16-10-10,0706_eid_s01_16-10-10_bottle_10_n03937543_7767.png
subject-01,1,707,0.915833950042725,chair,keyboard,128-10-10,0707_eid_s01_128-10-10_keyboard_10_n03085013_6862.png
subject-01,1,708,0.935876846313477,bottle,bottle,2-10-10,0708_eid_s01_2-10-10_bottle_10_n03937543_1413.png
subject-01,1,709,1.16764497756958,clock,truck,8-10-10,0709_eid_s01_8-10-10_truck_10_n03796401_17201.png
subject-01,1,710,0.755645990371704,boat,cat,32-10-10,0710_eid_s01_32-10-10_cat_10_n02125311_13152.png
subject-01,1,711,0.767280101776123,truck,truck,8-10-10,0711_eid_s01_8-10-10_truck_10_n03796401_14203.png
subject-01,1,712,0.949411153793335,bird,bird,32-10-10,0712_eid_s01_32-10-10_bird_10_n01537544_3720.png
subject-01,1,713,1.21921706199646,bear,boat,128-10-10,0713_eid_s01_128-10-10_boat_10_n02951358_14346.png
subject-01,1,714,1.27861499786377,clock,airplane,64-10-10,0714_eid_s01_64-10-10_airplane_10_n02690373_757.png
subject-01,1,715,0.896497964859009,clock,clock,16-10-10,0715_eid_s01_16-10-10_clock_10_n04548280_8304.png
subject-01,1,716,0.688478946685791,cat,knife,32-10-10,0716_eid_s01_32-10-10_knife_10_n03041632_20697.png
subject-01,1,717,0.996466875076294,bear,clock,128-10-10,0717_eid_s01_128-10-10_clock_10_n02708093_7883.png
subject-01,1,718,1.14987802505493,oven,oven,4-10-10,0718_eid_s01_4-10-10_oven_10_n04111531_14559.png
subject-01,1,719,1.23194599151611,keyboard,oven,64-10-10,0719_eid_s01_64-10-10_oven_10_n04111531_5906.png
subject-01,1,720,1.33589100837708,oven,knife,2-10-10,0720_eid_s01_2-10-10_knife_10_n03041632_4279.png
subject-01,1,721,0.923247098922729,boat,dog,128-10-10,0721_eid_s01_128-10-10_dog_10_n02099601_7103.png
subject-01,1,722,1.01497101783752,airplane,oven,64-10-10,0722_eid_s01_64-10-10_oven_10_n04111531_5351.png
subject-01,1,723,0.761010885238647,boat,bicycle,4-10-10,0723_eid_s01_4-10-10_bicycle_10_n03792782_7518.png
subject-01,1,724,0.850681066513062,cat,bottle,32-10-10,0724_eid_s01_32-10-10_bottle_10_n03983396_4321.png
subject-01,1,725,1.27043199539185,dog,cat,1-10-10,0725_eid_s01_1-10-10_cat_10_n02123394_7782.png
subject-01,1,726,1.18034911155701,cat,chair,64-10-10,0726_eid_s01_64-10-10_chair_10_n02791124_3656.png
subject-01,1,727,0.95032787322998,elephant,truck,128-10-10,0727_eid_s01_128-10-10_truck_10_n04467665_15235.png
subject-01,1,728,0.877913951873779,cat,clock,128-10-10,0728_eid_s01_128-10-10_clock_10_n02708093_7054.png
subject-01,1,729,0.723833084106445,elephant,elephant,8-10-10,0729_eid_s01_8-10-10_elephant_10_n02504013_6737.png
subject-01,1,730,0.936024904251099,boat,boat,1-10-10,0730_eid_s01_1-10-10_boat_10_n02951358_3452.png
subject-01,1,731,1.07976007461548,bird,bird,32-10-10,0731_eid_s01_32-10-10_bird_10_n01537544_5944.png
subject-01,1,732,1.15710115432739,airplane,car,64-10-10,0732_eid_s01_64-10-10_car_10_n04285008_3280.png
subject-01,1,733,0.966937065124512,bear,oven,8-10-10,0733_eid_s01_8-10-10_oven_10_n04111531_24096.png
subject-01,1,734,0.860960006713867,bottle,oven,16-10-10,0734_eid_s01_16-10-10_oven_10_n04111531_8181.png
subject-01,1,735,0.8805251121521,clock,bird,128-10-10,0735_eid_s01_128-10-10_bird_10_n01833805_8028.png
subject-01,1,736,1.06248998641968,bird,cat,16-10-10,0736_eid_s01_16-10-10_cat_10_n02123045_11955.png
subject-01,1,737,1.0263249874115,airplane,airplane,16-10-10,0737_eid_s01_16-10-10_airplane_10_n02690373_9423.png
subject-01,1,738,0.936047077178955,keyboard,knife,16-10-10,0738_eid_s01_16-10-10_knife_10_n03041632_13478.png
subject-01,1,739,0.853747129440308,bottle,bottle,2-10-10,0739_eid_s01_2-10-10_bottle_10_n03983396_795.png
subject-01,1,740,0.841677188873291,oven,bottle,128-10-10,0740_eid_s01_128-10-10_bottle_10_n02823428_8079.png
subject-01,1,741,0.747411012649536,car,car,16-10-10,0741_eid_s01_16-10-10_car_10_n03100240_17289.png
subject-01,1,742,1.10939812660217,elephant,bear,4-10-10,0742_eid_s01_4-10-10_bear_10_n02132136_1646.png
subject-01,1,743,0.995177030563354,cat,boat,64-10-10,0743_eid_s01_64-10-10_boat_10_n04273569_30203.png
subject-01,1,744,1.16309213638306,bird,knife,128-10-10,0744_eid_s01_128-10-10_knife_10_n03041632_47703.png
subject-01,1,745,0.860825061798096,airplane,airplane,1-10-10,0745_eid_s01_1-10-10_airplane_10_n02690373_3928.png
subject-01,1,746,0.942490816116333,dog,dog,8-10-10,0746_eid_s01_8-10-10_dog_10_n02093991_4977.png
subject-01,1,747,1.0263340473175,dog,dog,4-10-10,0747_eid_s01_4-10-10_dog_10_n02113712_5816.png
subject-01,1,748,0.820366144180298,car,car,2-10-10,0748_eid_s01_2-10-10_car_10_n02814533_62992.png
subject-01,1,749,1.07004714012146,bear,bear,2-10-10,0749_eid_s01_2-10-10_bear_10_n02134084_4818.png
subject-01,1,750,1.50008702278137,knife,elephant,128-10-10,0750_eid_s01_128-10-10_elephant_10_n02504458_5333.png
subject-01,1,751,0.733819007873535,bottle,bottle,1-10-10,0751_eid_s01_1-10-10_bottle_10_n04560804_17045.png
subject-01,1,752,1.14954400062561,oven,oven,1-10-10,0752_eid_s01_1-10-10_oven_10_n04111531_3126.png
subject-01,1,753,0.825256109237671,boat,oven,16-10-10,0753_eid_s01_16-10-10_oven_10_n04111531_13831.png
subject-01,1,754,0.799147129058838,chair,truck,16-10-10,0754_eid_s01_16-10-10_truck_10_n03417042_6941.png
subject-01,1,755,0.852856874465942,bird,bird,16-10-10,0755_eid_s01_16-10-10_bird_10_n02017213_1619.png
subject-01,1,756,1.18657493591309,cat,cat,4-10-10,0756_eid_s01_4-10-10_cat_10_n02123159_273.png
subject-01,1,757,1.2303512096405,bottle,chair,64-10-10,0757_eid_s01_64-10-10_chair_10_n04429376_11956.png
subject-01,1,758,0.830782175064087,boat,boat,4-10-10,0758_eid_s01_4-10-10_boat_10_n03344393_11788.png
subject-01,1,759,0.960129976272583,airplane,oven,16-10-10,0759_eid_s01_16-10-10_oven_10_n04111531_8852.png
subject-01,1,760,1.02591609954834,car,bottle,32-10-10,0760_eid_s01_32-10-10_bottle_10_n04591713_6024.png
subject-01,1,761,0.950013875961304,car,chair,16-10-10,0761_eid_s01_16-10-10_chair_10_n03376595_5304.png
subject-01,1,762,1.01964497566223,boat,truck,64-10-10,0762_eid_s01_64-10-10_truck_10_n03417042_18072.png
subject-01,1,763,1.13737893104553,boat,car,128-10-10,0763_eid_s01_128-10-10_car_10_n04285008_8727.png
subject-01,1,764,0.891161918640137,truck,truck,1-10-10,0764_eid_s01_1-10-10_truck_10_n03417042_29384.png
subject-01,1,765,0.839405059814453,elephant,elephant,4-10-10,0765_eid_s01_4-10-10_elephant_10_n02504013_14440.png
subject-01,1,766,0.694811105728149,bird,bird,4-10-10,0766_eid_s01_4-10-10_bird_10_n02007558_16547.png
subject-01,1,767,0.744583129882812,cat,knife,32-10-10,0767_eid_s01_32-10-10_knife_10_n03041632_44212.png
subject-01,1,768,0.866349935531616,elephant,elephant,2-10-10,0768_eid_s01_2-10-10_elephant_10_n02504458_14308.png
subject-01,1,769,0.954629182815552,oven,knife,8-10-10,0769_eid_s01_8-10-10_knife_10_n03041632_31363.png
subject-01,1,770,0.760509967803955,airplane,airplane,8-10-10,0770_eid_s01_8-10-10_airplane_10_n02690373_1563.png
subject-01,1,771,0.942048072814941,bear,bear,128-10-10,0771_eid_s01_128-10-10_bear_10_n02132136_1624.png
subject-01,1,772,0.959659814834595,oven,oven,2-10-10,0772_eid_s01_2-10-10_oven_10_n04111531_13625.png
subject-01,1,773,0.729573011398315,cat,cat,4-10-10,0773_eid_s01_4-10-10_cat_10_n02125311_27989.png
subject-01,1,774,0.797289848327637,oven,knife,64-10-10,0774_eid_s01_64-10-10_knife_10_n03041632_17091.png
subject-01,1,775,0.961196899414062,knife,keyboard,8-10-10,0775_eid_s01_8-10-10_keyboard_10_n03085013_18785.png
subject-01,1,776,0.95679783821106,clock,clock,2-10-10,0776_eid_s01_2-10-10_clock_10_n04548280_3610.png
subject-01,1,777,0.846704006195068,oven,knife,1-10-10,0777_eid_s01_1-10-10_knife_10_n03041632_25656.png
subject-01,1,778,0.776563882827759,clock,clock,4-10-10,0778_eid_s01_4-10-10_clock_10_n04548280_10183.png
subject-01,1,779,1.13635206222534,cat,cat,128-10-10,0779_eid_s01_128-10-10_cat_10_n02123045_991.png
subject-01,1,780,1.18614506721497,elephant,boat,2-10-10,0780_eid_s01_2-10-10_boat_10_n03344393_12262.png
subject-01,1,781,1.04015588760376,oven,cat,32-10-10,0781_eid_s01_32-10-10_cat_10_n02125311_57758.png
subject-01,1,782,0.769785165786743,dog,dog,2-10-10,0782_eid_s01_2-10-10_dog_10_n02110806_5427.png
subject-01,1,783,0.679615020751953,car,car,2-10-10,0783_eid_s01_2-10-10_car_10_n02814533_9812.png
subject-01,1,784,0.855293035507202,chair,chair,16-10-10,0784_eid_s01_16-10-10_chair_10_n04429376_13751.png
subject-01,1,785,0.921160936355591,boat,keyboard,128-10-10,0785_eid_s01_128-10-10_keyboard_10_n03085013_3257.png
subject-01,1,786,0.651010036468506,boat,airplane,16-10-10,0786_eid_s01_16-10-10_airplane_10_n02690373_4079.png
subject-01,1,787,0.716876983642578,oven,keyboard,128-10-10,0787_eid_s01_128-10-10_keyboard_10_n03085013_24963.png
subject-01,1,788,0.836935043334961,car,boat,32-10-10,0788_eid_s01_32-10-10_boat_10_n03344393_6978.png
subject-01,1,789,1.12250304222107,boat,truck,64-10-10,0789_eid_s01_64-10-10_truck_10_n03796401_10276.png
subject-01,1,790,0.672245025634766,keyboard,truck,8-10-10,0790_eid_s01_8-10-10_truck_10_n03417042_19047.png
subject-01,1,791,0.802145004272461,boat,knife,64-10-10,0791_eid_s01_64-10-10_knife_10_n03041632_55953.png
subject-01,1,792,0.690109968185425,bird,bird,4-10-10,0792_eid_s01_4-10-10_bird_10_n01558993_4801.png
subject-01,1,793,0.79969310760498,airplane,bird,32-10-10,0793_eid_s01_32-10-10_bird_10_n01824575_12101.png
subject-01,1,794,0.943562030792236,oven,oven,128-10-10,0794_eid_s01_128-10-10_oven_10_n04111531_12769.png
subject-01,1,795,0.719237089157104,boat,bird,16-10-10,0795_eid_s01_16-10-10_bird_10_n02009229_5090.png
subject-01,1,796,0.809206962585449,cat,dog,32-10-10,0796_eid_s01_32-10-10_dog_10_n02102040_2743.png
subject-01,1,797,0.57934308052063,clock,clock,4-10-10,0797_eid_s01_4-10-10_clock_10_n02708093_6673.png
subject-01,1,798,1.12274312973022,dog,cat,16-10-10,0798_eid_s01_16-10-10_cat_10_n02123159_6954.png
subject-01,1,799,1.18860006332397,bird,chair,32-10-10,0799_eid_s01_32-10-10_chair_10_n04099969_25327.png
subject-01,1,800,1.03441095352173,dog,truck,16-10-10,0800_eid_s01_16-10-10_truck_10_n04467665_11776.png
subject-01,1,801,0.915977001190186,cat,knife,32-10-10,0801_eid_s01_32-10-10_knife_10_n03041632_26340.png
subject-01,1,802,0.836107015609741,elephant,oven,32-10-10,0802_eid_s01_32-10-10_oven_10_n04111531_1362.png
subject-01,1,803,0.821599960327148,bicycle,bicycle,8-10-10,0803_eid_s01_8-10-10_bicycle_10_n02835271_419.png
subject-01,1,804,0.889485120773315,bicycle,bicycle,2-10-10,0804_eid_s01_2-10-10_bicycle_10_n03792782_11720.png
subject-01,1,805,0.955080032348633,elephant,elephant,4-10-10,0805_eid_s01_4-10-10_elephant_10_n02504013_19769.png
subject-01,1,806,1.07098984718323,oven,keyboard,64-10-10,0806_eid_s01_64-10-10_keyboard_10_n03085013_19891.png
subject-01,1,807,0.790859937667847,knife,airplane,64-10-10,0807_eid_s01_64-10-10_airplane_10_n02690373_1862.png
subject-01,1,808,0.96670389175415,bird,bird,16-10-10,0808_eid_s01_16-10-10_bird_10_n01616318_8488.png
subject-01,1,809,0.798486948013306,car,car,32-10-10,0809_eid_s01_32-10-10_car_10_n03100240_20061.png
subject-01,1,810,0.854388952255249,chair,chair,4-10-10,0810_eid_s01_4-10-10_chair_10_n04099969_17866.png
subject-01,1,811,0.884484767913818,elephant,elephant,8-10-10,0811_eid_s01_8-10-10_elephant_10_n02504458_6931.png
subject-01,1,812,0.929883003234863,bicycle,bear,16-10-10,0812_eid_s01_16-10-10_bear_10_n02134418_2714.png
subject-01,1,813,1.04563188552856,elephant,dog,32-10-10,0813_eid_s01_32-10-10_dog_10_n02111277_21812.png
subject-01,1,814,1.06766390800476,bird,dog,16-10-10,0814_eid_s01_16-10-10_dog_10_n02086646_7544.png
subject-01,1,815,0.631627082824707,boat,boat,16-10-10,0815_eid_s01_16-10-10_boat_10_n02951358_33918.png
subject-01,1,816,1.10547399520874,chair,oven,16-10-10,0816_eid_s01_16-10-10_oven_10_n04111531_7130.png
subject-01,1,817,0.827035903930664,clock,clock,32-10-10,0817_eid_s01_32-10-10_clock_10_n04548280_5937.png
subject-01,1,818,1.2387330532074,bird,bird,32-10-10,0818_eid_s01_32-10-10_bird_10_n01819313_1422.png
subject-01,1,819,0.637162923812866,elephant,elephant,4-10-10,0819_eid_s01_4-10-10_elephant_10_n02504458_7342.png
subject-01,1,820,1.094407081604,cat,knife,128-10-10,0820_eid_s01_128-10-10_knife_10_n03041632_7982.png
subject-01,1,821,0.630321979522705,airplane,airplane,8-10-10,0821_eid_s01_8-10-10_airplane_10_n02690373_4586.png
subject-01,1,822,0.752162933349609,clock,clock,16-10-10,0822_eid_s01_16-10-10_clock_10_n02708093_4255.png
subject-01,1,823,1.12977004051208,car,oven,128-10-10,0823_eid_s01_128-10-10_oven_10_n04111531_3191.png
subject-01,1,824,0.727560997009277,airplane,airplane,1-10-10,0824_eid_s01_1-10-10_airplane_10_n02690373_5465.png
subject-01,1,825,0.787446022033691,bicycle,chair,64-10-10,0825_eid_s01_64-10-10_chair_10_n02791124_373.png
subject-01,1,826,0.883423089981079,truck,boat,32-10-10,0826_eid_s01_32-10-10_boat_10_n03662601_1158.png
subject-01,1,827,1.13121795654297,elephant,elephant,64-10-10,0827_eid_s01_64-10-10_elephant_10_n02504013_978.png
subject-01,1,828,0.892916917800903,car,chair,32-10-10,0828_eid_s01_32-10-10_chair_10_n02791124_6492.png
subject-01,1,829,1.2027280330658,car,car,1-10-10,0829_eid_s01_1-10-10_car_10_n03100240_9892.png
subject-01,1,830,0.730432033538818,airplane,airplane,4-10-10,0830_eid_s01_4-10-10_airplane_10_n02690373_1489.png
subject-01,1,831,0.914335012435913,truck,dog,128-10-10,0831_eid_s01_128-10-10_dog_10_n02090622_7102.png
subject-01,1,832,0.808139085769653,airplane,boat,2-10-10,0832_eid_s01_2-10-10_boat_10_n04273569_72.png
subject-01,1,833,0.732176065444946,bicycle,bicycle,2-10-10,0833_eid_s01_2-10-10_bicycle_10_n02835271_2625.png
subject-01,1,834,1.01185894012451,bear,cat,64-10-10,0834_eid_s01_64-10-10_cat_10_n02123159_15664.png
subject-01,1,835,0.757603883743286,clock,clock,1-10-10,0835_eid_s01_1-10-10_clock_10_n04548280_4562.png
subject-01,1,836,0.847568988800049,bottle,bottle,2-10-10,0836_eid_s01_2-10-10_bottle_10_n04591713_6905.png
subject-01,1,837,0.727396965026855,airplane,airplane,4-10-10,0837_eid_s01_4-10-10_airplane_10_n02690373_166.png
subject-01,1,838,0.804898023605347,keyboard,oven,2-10-10,0838_eid_s01_2-10-10_oven_10_n04111531_3193.png
subject-01,1,839,1.0589280128479,elephant,elephant,16-10-10,0839_eid_s01_16-10-10_elephant_10_n02504458_5274.png
subject-01,1,840,1.05662417411804,oven,keyboard,64-10-10,0840_eid_s01_64-10-10_keyboard_10_n04505470_5131.png
subject-01,1,841,0.838483095169067,airplane,airplane,2-10-10,0841_eid_s01_2-10-10_airplane_10_n02690373_19074.png
subject-01,1,842,NaN,na,bottle,64-10-10,0842_eid_s01_64-10-10_bottle_10_n03983396_16257.png
subject-01,1,843,0.974448919296265,bear,bear,32-10-10,0843_eid_s01_32-10-10_bear_10_n02134418_3470.png
subject-01,1,844,1.04988598823547,elephant,bear,8-10-10,0844_eid_s01_8-10-10_bear_10_n02132136_3196.png
subject-01,1,845,1.24764704704285,elephant,bear,128-10-10,0845_eid_s01_128-10-10_bear_10_n02133161_10184.png
subject-01,1,846,1.50008296966553,boat,truck,128-10-10,0846_eid_s01_128-10-10_truck_10_n03417042_3351.png
subject-01,1,847,0.66147518157959,clock,bird,128-10-10,0847_eid_s01_128-10-10_bird_10_n02013706_6676.png
subject-01,1,848,0.947113990783691,bear,airplane,128-10-10,0848_eid_s01_128-10-10_airplane_10_n02690373_9946.png
subject-01,1,849,1.10100102424622,airplane,car,32-10-10,0849_eid_s01_32-10-10_car_10_n04285008_8838.png
subject-01,1,850,1.33079600334167,dog,car,128-10-10,0850_eid_s01_128-10-10_car_10_n02814533_40350.png
subject-01,1,851,0.676502227783203,cat,cat,1-10-10,0851_eid_s01_1-10-10_cat_10_n02123159_12734.png
subject-01,1,852,0.760354042053223,airplane,airplane,2-10-10,0852_eid_s01_2-10-10_airplane_10_n02690373_17063.png
subject-01,1,853,1.11621999740601,elephant,bottle,4-10-10,0853_eid_s01_4-10-10_bottle_10_n04560804_31443.png
subject-01,1,854,0.882241010665894,keyboard,keyboard,2-10-10,0854_eid_s01_2-10-10_keyboard_10_n03085013_22713.png
subject-01,1,855,0.840006828308105,boat,truck,1-10-10,0855_eid_s01_1-10-10_truck_10_n04467665_21969.png
subject-01,1,856,0.829622983932495,cat,bear,16-10-10,0856_eid_s01_16-10-10_bear_10_n02134084_712.png
subject-01,1,857,1.04350209236145,bird,oven,128-10-10,0857_eid_s01_128-10-10_oven_10_n04111531_15635.png
subject-01,1,858,0.805773019790649,car,keyboard,128-10-10,0858_eid_s01_128-10-10_keyboard_10_n03085013_5568.png
subject-01,1,859,1.10687708854675,cat,chair,128-10-10,0859_eid_s01_128-10-10_chair_10_n02791124_1059.png
subject-01,1,860,0.651236057281494,airplane,airplane,4-10-10,0860_eid_s01_4-10-10_airplane_10_n02690373_4866.png
subject-01,1,861,1.04079008102417,bird,dog,128-10-10,0861_eid_s01_128-10-10_dog_10_n02086910_13835.png
subject-01,1,862,0.858488082885742,knife,knife,1-10-10,0862_eid_s01_1-10-10_knife_10_n03041632_9488.png
subject-01,1,863,0.816537141799927,airplane,airplane,2-10-10,0863_eid_s01_2-10-10_airplane_10_n02690373_9170.png
subject-01,1,864,0.908125877380371,boat,boat,8-10-10,0864_eid_s01_8-10-10_boat_10_n03662601_12323.png
subject-01,1,865,1.17793893814087,truck,boat,128-10-10,0865_eid_s01_128-10-10_boat_10_n02951358_3188.png
subject-01,1,866,0.978250026702881,bicycle,cat,64-10-10,0866_eid_s01_64-10-10_cat_10_n02123159_4051.png
subject-01,1,867,0.905910968780518,airplane,airplane,64-10-10,0867_eid_s01_64-10-10_airplane_10_n02690373_10931.png
subject-01,1,868,0.721422910690308,clock,clock,16-10-10,0868_eid_s01_16-10-10_clock_10_n04548280_6989.png
subject-01,1,869,1.33525705337524,oven,car,64-10-10,0869_eid_s01_64-10-10_car_10_n02814533_52045.png
subject-01,1,870,0.935482025146484,chair,chair,1-10-10,0870_eid_s01_1-10-10_chair_10_n04099969_5524.png
subject-01,1,871,1.31897115707397,oven,clock,128-10-10,0871_eid_s01_128-10-10_clock_10_n04548280_8162.png
subject-01,1,872,0.524617910385132,bear,bear,1-10-10,0872_eid_s01_1-10-10_bear_10_n02132136_7796.png
subject-01,1,873,1.00046515464783,car,car,4-10-10,0873_eid_s01_4-10-10_car_10_n04285008_10442.png
subject-01,1,874,0.784485101699829,bottle,bottle,16-10-10,0874_eid_s01_16-10-10_bottle_10_n04579145_5777.png
subject-01,1,875,0.953982830047607,car,bicycle,1-10-10,0875_eid_s01_1-10-10_bicycle_10_n03792782_13324.png
subject-01,1,876,0.88594388961792,bird,bird,1-10-10,0876_eid_s01_1-10-10_bird_10_n01860187_18561.png
subject-01,1,877,0.751745939254761,airplane,airplane,1-10-10,0877_eid_s01_1-10-10_airplane_10_n02690373_13324.png
subject-01,1,878,0.883461952209473,chair,knife,1-10-10,0878_eid_s01_1-10-10_knife_10_n03041632_89391.png
subject-01,1,879,0.659344911575317,car,car,16-10-10,0879_eid_s01_16-10-10_car_10_n02814533_69750.png
subject-01,1,880,0.587512016296387,car,car,8-10-10,0880_eid_s01_8-10-10_car_10_n04285008_12589.png
subject-01,1,881,0.813602924346924,chair,knife,1-10-10,0881_eid_s01_1-10-10_knife_10_n03041632_98864.png
subject-01,1,882,0.637818098068237,cat,cat,4-10-10,0882_eid_s01_4-10-10_cat_10_n02123159_491.png
subject-01,1,883,0.697172164916992,bottle,bottle,4-10-10,0883_eid_s01_4-10-10_bottle_10_n02823428_4172.png
subject-01,1,884,0.703248023986816,elephant,elephant,16-10-10,0884_eid_s01_16-10-10_elephant_10_n02504013_17391.png
subject-01,1,885,0.724871873855591,cat,cat,32-10-10,0885_eid_s01_32-10-10_cat_10_n02125311_14156.png
subject-01,1,886,0.610782146453857,bicycle,bicycle,8-10-10,0886_eid_s01_8-10-10_bicycle_10_n03792782_17430.png
subject-01,1,887,0.632415056228638,oven,oven,1-10-10,0887_eid_s01_1-10-10_oven_10_n04111531_6172.png
subject-01,1,888,0.826708078384399,chair,chair,1-10-10,0888_eid_s01_1-10-10_chair_10_n04099969_24378.png
subject-01,1,889,0.462137937545776,boat,boat,4-10-10,0889_eid_s01_4-10-10_boat_10_n03662601_10589.png
subject-01,1,890,0.669793844223022,car,truck,16-10-10,0890_eid_s01_16-10-10_truck_10_n03417042_10117.png
subject-01,1,891,1.03374719619751,chair,clock,64-10-10,0891_eid_s01_64-10-10_clock_10_n03196217_8072.png
subject-01,1,892,0.763745784759521,cat,bottle,64-10-10,0892_eid_s01_64-10-10_bottle_10_n04560804_2776.png
subject-01,1,893,0.925342082977295,dog,dog,2-10-10,0893_eid_s01_2-10-10_dog_10_n02102177_7637.png
subject-01,1,894,0.735266923904419,oven,knife,2-10-10,0894_eid_s01_2-10-10_knife_10_n03041632_7064.png
subject-01,1,895,0.553025960922241,boat,boat,2-10-10,0895_eid_s01_2-10-10_boat_10_n02951358_29724.png
subject-01,1,896,1.22874903678894,keyboard,oven,1-10-10,0896_eid_s01_1-10-10_oven_10_n04111531_10436.png
subject-01,1,897,1.01498603820801,dog,elephant,32-10-10,0897_eid_s01_32-10-10_elephant_10_n02504458_11618.png
subject-01,1,898,0.924399137496948,bear,dog,8-10-10,0898_eid_s01_8-10-10_dog_10_n02086079_15773.png
subject-01,1,899,0.930340051651001,bird,airplane,32-10-10,0899_eid_s01_32-10-10_airplane_10_n02690373_6536.png
subject-01,1,900,0.813859939575195,cat,truck,32-10-10,0900_eid_s01_32-10-10_truck_10_n03796401_1213.png
subject-01,1,901,0.986010074615479,boat,knife,8-10-10,0901_eid_s01_8-10-10_knife_10_n03041632_49363.png
subject-01,1,902,0.889870882034302,airplane,airplane,32-10-10,0902_eid_s01_32-10-10_airplane_10_n02690373_6831.png
subject-01,1,903,0.769515991210938,bear,bear,2-10-10,0903_eid_s01_2-10-10_bear_10_n02134418_551.png
subject-01,1,904,1.01728510856628,bear,knife,32-10-10,0904_eid_s01_32-10-10_knife_10_n03041632_93026.png
subject-01,1,905,0.76313304901123,elephant,chair,32-10-10,0905_eid_s01_32-10-10_chair_10_n04099969_18744.png
subject-01,1,906,1.09492087364197,knife,oven,128-10-10,0906_eid_s01_128-10-10_oven_10_n04111531_520.png
subject-01,1,907,1.13901615142822,keyboard,chair,64-10-10,0907_eid_s01_64-10-10_chair_10_n02791124_5845.png
subject-01,1,908,1.11484003067017,boat,elephant,16-10-10,0908_eid_s01_16-10-10_elephant_10_n02504458_361.png
subject-01,1,909,0.968188047409058,knife,knife,4-10-10,0909_eid_s01_4-10-10_knife_10_n03041632_35365.png
subject-01,1,910,0.856074810028076,bicycle,bicycle,4-10-10,0910_eid_s01_4-10-10_bicycle_10_n03792782_15627.png
subject-01,1,911,1.04798197746277,bicycle,dog,64-10-10,0911_eid_s01_64-10-10_dog_10_n02109525_46113.png
subject-01,1,912,1.07590389251709,truck,clock,128-10-10,0912_eid_s01_128-10-10_clock_10_n04548280_8841.png
subject-01,1,913,1.0654730796814,oven,bottle,8-10-10,0913_eid_s01_8-10-10_bottle_10_n03937543_4763.png
subject-01,1,914,1.28958415985107,knife,oven,8-10-10,0914_eid_s01_8-10-10_oven_10_n04111531_3159.png
subject-01,1,915,0.83133602142334,dog,dog,8-10-10,0915_eid_s01_8-10-10_dog_10_n02097474_15157.png
subject-01,1,916,0.719125986099243,bear,boat,16-10-10,0916_eid_s01_16-10-10_boat_10_n04273569_31564.png
subject-01,1,917,1.09897398948669,bicycle,cat,128-10-10,0917_eid_s01_128-10-10_cat_10_n02124075_10566.png
subject-01,1,918,1.14058113098145,cat,cat,4-10-10,0918_eid_s01_4-10-10_cat_10_n02123597_2030.png
subject-01,1,919,0.990387201309204,car,dog,32-10-10,0919_eid_s01_32-10-10_dog_10_n02088466_9891.png
subject-01,1,920,0.802299976348877,dog,dog,8-10-10,0920_eid_s01_8-10-10_dog_10_n02086646_6773.png
subject-01,1,921,0.78404688835144,chair,clock,32-10-10,0921_eid_s01_32-10-10_clock_10_n03196217_3951.png
subject-01,1,922,0.929942846298218,elephant,elephant,1-10-10,0922_eid_s01_1-10-10_elephant_10_n02504013_21311.png
subject-01,1,923,0.643826007843018,dog,dog,1-10-10,0923_eid_s01_1-10-10_dog_10_n02086240_1567.png
subject-01,1,924,1.33366084098816,cat,bird,64-10-10,0924_eid_s01_64-10-10_bird_10_n01860187_15592.png
subject-01,1,925,0.797421932220459,clock,truck,128-10-10,0925_eid_s01_128-10-10_truck_10_n04467665_4165.png
subject-01,1,926,0.921103954315186,dog,dog,1-10-10,0926_eid_s01_1-10-10_dog_10_n02095570_11450.png
subject-01,1,927,1.01896595954895,airplane,truck,16-10-10,0927_eid_s01_16-10-10_truck_10_n03417042_26971.png
subject-01,1,928,0.640691995620728,bear,bear,1-10-10,0928_eid_s01_1-10-10_bear_10_n02133161_2970.png
subject-01,1,929,0.770557880401611,boat,boat,2-10-10,0929_eid_s01_2-10-10_boat_10_n03344393_2254.png
subject-01,1,930,0.814308881759644,boat,airplane,32-10-10,0930_eid_s01_32-10-10_airplane_10_n02690373_7908.png
subject-01,1,931,0.968204975128174,truck,keyboard,128-10-10,0931_eid_s01_128-10-10_keyboard_10_n03085013_19882.png
subject-01,1,932,0.657956123352051,clock,clock,1-10-10,0932_eid_s01_1-10-10_clock_10_n04548280_748.png
subject-01,1,933,0.793784856796265,chair,car,64-10-10,0933_eid_s01_64-10-10_car_10_n04285008_6102.png
subject-01,1,934,0.947558164596558,bottle,chair,128-10-10,0934_eid_s01_128-10-10_chair_10_n02791124_3241.png
subject-01,1,935,0.663422107696533,clock,clock,1-10-10,0935_eid_s01_1-10-10_clock_10_n02708093_3996.png
subject-01,1,936,1.35720014572144,boat,bird,128-10-10,0936_eid_s01_128-10-10_bird_10_n01843065_5080.png
subject-01,1,937,0.923012971878052,bird,bird,2-10-10,0937_eid_s01_2-10-10_bird_10_n02027492_10281.png
subject-01,1,938,1.1608579158783,keyboard,keyboard,2-10-10,0938_eid_s01_2-10-10_keyboard_10_n03085013_23552.png
subject-01,1,939,0.908629179000854,oven,chair,8-10-10,0939_eid_s01_8-10-10_chair_10_n02791124_5319.png
subject-01,1,940,0.788640022277832,knife,knife,2-10-10,0940_eid_s01_2-10-10_knife_10_n03041632_927.png
subject-01,1,941,0.708370923995972,bird,bird,16-10-10,0941_eid_s01_16-10-10_bird_10_n02018207_16716.png
subject-01,1,942,0.830513000488281,bird,bird,32-10-10,0942_eid_s01_32-10-10_bird_10_n01622779_66.png
subject-01,1,943,0.882010936737061,dog,bicycle,64-10-10,0943_eid_s01_64-10-10_bicycle_10_n03792782_9004.png
subject-01,1,944,0.667819023132324,bicycle,bicycle,4-10-10,0944_eid_s01_4-10-10_bicycle_10_n03792782_4207.png
subject-01,1,945,1.07967782020569,elephant,oven,64-10-10,0945_eid_s01_64-10-10_oven_10_n04111531_5038.png
subject-01,1,946,0.709315061569214,bicycle,bicycle,2-10-10,0946_eid_s01_2-10-10_bicycle_10_n02835271_15038.png
subject-01,1,947,0.745333909988403,clock,clock,1-10-10,0947_eid_s01_1-10-10_clock_10_n02708093_57.png
subject-01,1,948,1.50008392333984,bird,bird,2-10-10,0948_eid_s01_2-10-10_bird_10_n02009912_20610.png
subject-01,1,949,0.680882215499878,bird,bird,8-10-10,0949_eid_s01_8-10-10_bird_10_n02002724_1484.png
subject-01,1,950,1.01457905769348,car,car,32-10-10,0950_eid_s01_32-10-10_car_10_n02814533_42059.png
subject-01,1,951,0.806432962417603,elephant,elephant,2-10-10,0951_eid_s01_2-10-10_elephant_10_n02504013_10390.png
subject-01,1,952,0.686362981796265,bear,bear,16-10-10,0952_eid_s01_16-10-10_bear_10_n02133161_7080.png
