subj,Session,trial,rt,object_response,category,condition,imagename
subject-03,1,1,0.741258144378662,cat,dog,16-10-10,0001_eid_s03_16-10-10_dog_10_n02095314_5363.png
subject-03,1,2,0.775246143341064,dog,dog,4-10-10,0002_eid_s03_4-10-10_dog_10_n02086079_4143.png
subject-03,1,3,0.936997175216675,dog,dog,4-10-10,0003_eid_s03_4-10-10_dog_10_n02100583_9672.png
subject-03,1,4,1.10515403747559,bottle,chair,16-10-10,0004_eid_s03_16-10-10_chair_10_n04429376_11720.png
subject-03,1,5,1.11859321594238,boat,car,64-10-10,0005_eid_s03_64-10-10_car_10_n04285008_6102.png
subject-03,1,6,1.48877096176147,bicycle,chair,32-10-10,0006_eid_s03_32-10-10_chair_10_n04099969_1998.png
subject-03,1,7,1.09032607078552,keyboard,keyboard,8-10-10,0007_eid_s03_8-10-10_keyboard_10_n03085013_21932.png
subject-03,1,8,0.998451948165894,bear,bear,16-10-10,0008_eid_s03_16-10-10_bear_10_n02133161_1234.png
subject-03,1,9,0.919811010360718,cat,bottle,64-10-10,0009_eid_s03_64-10-10_bottle_10_n04557648_2654.png
subject-03,1,10,0.949684858322144,bicycle,bicycle,4-10-10,0010_eid_s03_4-10-10_bicycle_10_n03792782_25019.png
subject-03,1,11,1.04186201095581,knife,knife,16-10-10,0011_eid_s03_16-10-10_knife_10_n03041632_37513.png
subject-03,1,12,1.34763717651367,keyboard,keyboard,1-10-10,0012_eid_s03_1-10-10_keyboard_10_n04505470_4621.png
subject-03,1,13,1.10322403907776,bottle,bottle,16-10-10,0013_eid_s03_16-10-10_bottle_10_n03937543_7767.png
subject-03,1,14,1.03690195083618,bird,bird,32-10-10,0014_eid_s03_32-10-10_bird_10_n01796340_3845.png
subject-03,1,15,1.07273101806641,boat,bicycle,32-10-10,0015_eid_s03_32-10-10_bicycle_10_n02835271_6122.png
subject-03,1,16,1.09086489677429,cat,truck,32-10-10,0016_eid_s03_32-10-10_truck_10_n04467665_76958.png
subject-03,1,17,1.03048396110535,elephant,elephant,8-10-10,0017_eid_s03_8-10-10_elephant_10_n02504458_6931.png
subject-03,1,18,0.722131013870239,clock,clock,1-10-10,0018_eid_s03_1-10-10_clock_10_n02708093_8257.png
subject-03,1,19,0.850121974945068,cat,cat,8-10-10,0019_eid_s03_8-10-10_cat_10_n02125311_2923.png
subject-03,1,20,1.12772798538208,boat,boat,32-10-10,0020_eid_s03_32-10-10_boat_10_n03344393_897.png
subject-03,1,21,1.01569104194641,dog,dog,64-10-10,0021_eid_s03_64-10-10_dog_10_n02107683_5424.png
subject-03,1,22,1.04549503326416,bird,bird,32-10-10,0022_eid_s03_32-10-10_bird_10_n01537544_5944.png
subject-03,1,23,1.26534199714661,bicycle,elephant,64-10-10,0023_eid_s03_64-10-10_elephant_10_n02504013_4485.png
subject-03,1,24,0.952961206436157,bicycle,bicycle,1-10-10,0024_eid_s03_1-10-10_bicycle_10_n03792782_35904.png
subject-03,1,25,1.05724406242371,knife,knife,32-10-10,0025_eid_s03_32-10-10_knife_10_n03041632_5302.png
subject-03,1,26,0.972746133804321,cat,bear,64-10-10,0026_eid_s03_64-10-10_bear_10_n02134084_22150.png
subject-03,1,27,0.952574968338013,car,car,4-10-10,0027_eid_s03_4-10-10_car_10_n02814533_2654.png
subject-03,1,28,1.01832294464111,oven,oven,1-10-10,0028_eid_s03_1-10-10_oven_10_n04111531_10339.png
subject-03,1,29,1.50012898445129,dog,cat,128-10-10,0029_eid_s03_128-10-10_cat_10_n02124075_10566.png
subject-03,1,30,0.812070846557617,airplane,airplane,8-10-10,0030_eid_s03_8-10-10_airplane_10_n02690373_1563.png
subject-03,1,31,1.1177499294281,boat,airplane,16-10-10,0031_eid_s03_16-10-10_airplane_10_n02690373_9423.png
subject-03,1,32,1.00150489807129,cat,oven,128-10-10,0032_eid_s03_128-10-10_oven_10_n04111531_6346.png
subject-03,1,33,1.35362601280212,clock,boat,128-10-10,0033_eid_s03_128-10-10_boat_10_n02951358_17867.png
subject-03,1,34,0.831149101257324,chair,chair,1-10-10,0034_eid_s03_1-10-10_chair_10_n02791124_3570.png
subject-03,1,35,0.966933965682983,bicycle,bicycle,1-10-10,0035_eid_s03_1-10-10_bicycle_10_n03792782_11115.png
subject-03,1,36,0.780745983123779,boat,car,32-10-10,0036_eid_s03_32-10-10_car_10_n02814533_97522.png
subject-03,1,37,0.579034090042114,boat,boat,2-10-10,0037_eid_s03_2-10-10_boat_10_n03662601_11972.png
subject-03,1,38,0.944545984268188,keyboard,knife,16-10-10,0038_eid_s03_16-10-10_knife_10_n03041632_13478.png
subject-03,1,39,1.31824994087219,knife,bottle,8-10-10,0039_eid_s03_8-10-10_bottle_10_n03983396_1985.png
subject-03,1,40,0.986557006835938,truck,truck,1-10-10,0040_eid_s03_1-10-10_truck_10_n04467665_4825.png
subject-03,1,41,0.847846031188965,chair,chair,2-10-10,0041_eid_s03_2-10-10_chair_10_n04099969_56470.png
subject-03,1,42,0.78966498374939,airplane,airplane,16-10-10,0042_eid_s03_16-10-10_airplane_10_n02690373_3100.png
subject-03,1,43,1.17539381980896,elephant,elephant,4-10-10,0043_eid_s03_4-10-10_elephant_10_n02504013_12533.png
subject-03,1,44,1.34136986732483,bear,bird,64-10-10,0044_eid_s03_64-10-10_bird_10_n02002556_5730.png
subject-03,1,45,0.801252126693726,keyboard,keyboard,2-10-10,0045_eid_s03_2-10-10_keyboard_10_n04505470_4624.png
subject-03,1,46,0.850918054580688,boat,bear,4-10-10,0046_eid_s03_4-10-10_bear_10_n02132136_24311.png
subject-03,1,47,0.840669870376587,airplane,airplane,4-10-10,0047_eid_s03_4-10-10_airplane_10_n02690373_166.png
subject-03,1,48,1.176598072052,cat,cat,8-10-10,0048_eid_s03_8-10-10_cat_10_n02124075_15378.png
subject-03,1,49,1.07635998725891,truck,truck,2-10-10,0049_eid_s03_2-10-10_truck_10_n04467665_30756.png
subject-03,1,50,0.79259204864502,car,car,1-10-10,0050_eid_s03_1-10-10_car_10_n04285008_3103.png
subject-03,1,51,0.827920913696289,cat,cat,1-10-10,0051_eid_s03_1-10-10_cat_10_n02125311_35338.png
subject-03,1,52,0.964148998260498,chair,chair,4-10-10,0052_eid_s03_4-10-10_chair_10_n02791124_2804.png
subject-03,1,53,0.995620012283325,bear,bear,4-10-10,0053_eid_s03_4-10-10_bear_10_n02134418_3287.png
subject-03,1,54,1.08340382575989,cat,boat,32-10-10,0054_eid_s03_32-10-10_boat_10_n03662601_21699.png
subject-03,1,55,0.789244890213013,clock,clock,2-10-10,0055_eid_s03_2-10-10_clock_10_n03196217_8139.png
subject-03,1,56,0.965351819992065,keyboard,oven,8-10-10,0056_eid_s03_8-10-10_oven_10_n04111531_13456.png
subject-03,1,57,0.804957866668701,keyboard,keyboard,4-10-10,0057_eid_s03_4-10-10_keyboard_10_n04505470_4447.png
subject-03,1,58,0.81678581237793,bear,bottle,32-10-10,0058_eid_s03_32-10-10_bottle_10_n04591713_6804.png
subject-03,1,59,1.23281502723694,dog,dog,32-10-10,0059_eid_s03_32-10-10_dog_10_n02107312_2933.png
subject-03,1,60,0.720315933227539,chair,chair,1-10-10,0060_eid_s03_1-10-10_chair_10_n03376595_787.png
subject-03,1,61,1.0683581829071,dog,dog,2-10-10,0061_eid_s03_2-10-10_dog_10_n02108551_13160.png
subject-03,1,62,1.0960898399353,bird,dog,128-10-10,0062_eid_s03_128-10-10_dog_10_n02108551_5950.png
subject-03,1,63,1.19974517822266,truck,truck,8-10-10,0063_eid_s03_8-10-10_truck_10_n03796401_24341.png
subject-03,1,64,0.735891103744507,oven,oven,2-10-10,0064_eid_s03_2-10-10_oven_10_n04111531_5429.png
subject-03,1,65,1.14537405967712,bird,knife,32-10-10,0065_eid_s03_32-10-10_knife_10_n03041632_43975.png
subject-03,1,66,0.681571006774902,cat,cat,16-10-10,0066_eid_s03_16-10-10_cat_10_n02123045_15476.png
subject-03,1,67,0.917139053344727,airplane,airplane,8-10-10,0067_eid_s03_8-10-10_airplane_10_n02690373_1663.png
subject-03,1,68,0.812963962554932,cat,cat,8-10-10,0068_eid_s03_8-10-10_cat_10_n02123159_4203.png
subject-03,1,69,0.93262791633606,cat,dog,16-10-10,0069_eid_s03_16-10-10_dog_10_n02086646_7544.png
subject-03,1,70,0.928417921066284,bear,bear,1-10-10,0070_eid_s03_1-10-10_bear_10_n02132136_7647.png
subject-03,1,71,1.41030716896057,bear,car,64-10-10,0071_eid_s03_64-10-10_car_10_n04285008_8017.png
subject-03,1,72,0.866034030914307,dog,dog,8-10-10,0072_eid_s03_8-10-10_dog_10_n02100735_2228.png
subject-03,1,73,1.33998107910156,airplane,clock,128-10-10,0073_eid_s03_128-10-10_clock_10_n02708093_496.png
subject-03,1,74,0.953876972198486,keyboard,keyboard,16-10-10,0074_eid_s03_16-10-10_keyboard_10_n03085013_10659.png
subject-03,1,75,0.909548997879028,cat,clock,32-10-10,0075_eid_s03_32-10-10_clock_10_n04548280_7354.png
subject-03,1,76,0.815293073654175,boat,boat,2-10-10,0076_eid_s03_2-10-10_boat_10_n04273569_12725.png
subject-03,1,77,0.921066999435425,elephant,elephant,8-10-10,0077_eid_s03_8-10-10_elephant_10_n02504458_4448.png
subject-03,1,78,0.706951141357422,boat,boat,1-10-10,0078_eid_s03_1-10-10_boat_10_n02951358_1470.png
subject-03,1,79,0.748791933059692,airplane,airplane,1-10-10,0079_eid_s03_1-10-10_airplane_10_n02690373_5689.png
subject-03,1,80,0.796565055847168,cat,elephant,64-10-10,0080_eid_s03_64-10-10_elephant_10_n02504458_5178.png
subject-03,1,81,0.995912075042725,dog,cat,64-10-10,0081_eid_s03_64-10-10_cat_10_n02123394_2635.png
subject-03,1,82,0.903807878494263,keyboard,bottle,16-10-10,0082_eid_s03_16-10-10_bottle_10_n02823428_4282.png
subject-03,1,83,0.819794178009033,cat,clock,16-10-10,0083_eid_s03_16-10-10_clock_10_n04548280_6337.png
subject-03,1,84,0.937617063522339,cat,boat,32-10-10,0084_eid_s03_32-10-10_boat_10_n04612504_8719.png
subject-03,1,85,0.641125917434692,clock,clock,4-10-10,0085_eid_s03_4-10-10_clock_10_n02708093_485.png
subject-03,1,86,0.723085880279541,cat,clock,128-10-10,0086_eid_s03_128-10-10_clock_10_n03196217_11199.png
subject-03,1,87,0.973028182983398,truck,truck,8-10-10,0087_eid_s03_8-10-10_truck_10_n03796401_5227.png
subject-03,1,88,0.686749935150146,cat,boat,64-10-10,0088_eid_s03_64-10-10_boat_10_n04273569_30203.png
subject-03,1,89,0.692838907241821,cat,truck,16-10-10,0089_eid_s03_16-10-10_truck_10_n04467665_11776.png
subject-03,1,90,0.938530921936035,bottle,bottle,8-10-10,0090_eid_s03_8-10-10_bottle_10_n03937543_3347.png
subject-03,1,91,0.850454807281494,cat,dog,128-10-10,0091_eid_s03_128-10-10_dog_10_n02090622_7102.png
subject-03,1,92,0.851823806762695,bear,bird,8-10-10,0092_eid_s03_8-10-10_bird_10_n02002724_1484.png
subject-03,1,93,1.10770297050476,bird,car,32-10-10,0093_eid_s03_32-10-10_car_10_n04285008_12333.png
subject-03,1,94,0.769559860229492,cat,boat,16-10-10,0094_eid_s03_16-10-10_boat_10_n02951358_10431.png
subject-03,1,95,1.44123601913452,bicycle,airplane,64-10-10,0095_eid_s03_64-10-10_airplane_10_n02690373_614.png
subject-03,1,96,0.741235971450806,truck,truck,8-10-10,0096_eid_s03_8-10-10_truck_10_n04467665_3710.png
subject-03,1,97,0.629132032394409,cat,bear,16-10-10,0097_eid_s03_16-10-10_bear_10_n02134418_3828.png
subject-03,1,98,0.856723070144653,knife,knife,8-10-10,0098_eid_s03_8-10-10_knife_10_n03041632_31363.png
subject-03,1,99,0.814672946929932,oven,oven,16-10-10,0099_eid_s03_16-10-10_oven_10_n04111531_2433.png
subject-03,1,100,1.19435405731201,knife,keyboard,16-10-10,0100_eid_s03_16-10-10_keyboard_10_n04505470_4854.png
subject-03,1,101,0.782124996185303,bird,bird,8-10-10,0101_eid_s03_8-10-10_bird_10_n01843065_148.png
subject-03,1,102,1.03011798858643,dog,chair,64-10-10,0102_eid_s03_64-10-10_chair_10_n02791124_5845.png
subject-03,1,103,1.10397386550903,boat,chair,128-10-10,0103_eid_s03_128-10-10_chair_10_n02791124_15934.png
subject-03,1,104,0.861649036407471,elephant,elephant,16-10-10,0104_eid_s03_16-10-10_elephant_10_n02504013_2619.png
subject-03,1,105,0.849363088607788,knife,cat,128-10-10,0105_eid_s03_128-10-10_cat_10_n02123394_176.png
subject-03,1,106,1.05732989311218,elephant,elephant,4-10-10,0106_eid_s03_4-10-10_elephant_10_n02504458_7258.png
subject-03,1,107,0.831025123596191,bird,bird,32-10-10,0107_eid_s03_32-10-10_bird_10_n01537544_3720.png
subject-03,1,108,1.06098008155823,knife,knife,2-10-10,0108_eid_s03_2-10-10_knife_10_n03041632_21818.png
subject-03,1,109,0.692627906799316,keyboard,keyboard,1-10-10,0109_eid_s03_1-10-10_keyboard_10_n03085013_20357.png
subject-03,1,110,0.706454992294312,keyboard,keyboard,4-10-10,0110_eid_s03_4-10-10_keyboard_10_n04505470_494.png
subject-03,1,111,1.18648099899292,bird,bird,64-10-10,0111_eid_s03_64-10-10_bird_10_n01560419_3399.png
subject-03,1,112,0.784250020980835,car,car,2-10-10,0112_eid_s03_2-10-10_car_10_n03100240_17588.png
subject-03,1,113,0.926038980484009,bottle,bottle,4-10-10,0113_eid_s03_4-10-10_bottle_10_n04560804_31443.png
subject-03,1,114,0.789919853210449,keyboard,keyboard,16-10-10,0114_eid_s03_16-10-10_keyboard_10_n03085013_24402.png
subject-03,1,115,0.971700191497803,boat,keyboard,128-10-10,0115_eid_s03_128-10-10_keyboard_10_n03085013_3257.png
subject-03,1,116,0.907879829406738,cat,car,128-10-10,0116_eid_s03_128-10-10_car_10_n02814533_13533.png
subject-03,1,117,1.18930077552795,bear,bear,128-10-10,0117_eid_s03_128-10-10_bear_10_n02133161_2164.png
subject-03,1,118,0.97111701965332,elephant,elephant,8-10-10,0118_eid_s03_8-10-10_elephant_10_n02504013_6120.png
subject-03,1,119,0.826893091201782,cat,keyboard,128-10-10,0119_eid_s03_128-10-10_keyboard_10_n03085013_6862.png
subject-03,1,120,0.816635847091675,knife,knife,4-10-10,0120_eid_s03_4-10-10_knife_10_n03041632_26236.png
subject-03,1,121,0.696467876434326,clock,clock,4-10-10,0121_eid_s03_4-10-10_clock_10_n02708093_6850.png
subject-03,1,122,0.912312984466553,keyboard,keyboard,16-10-10,0122_eid_s03_16-10-10_keyboard_10_n04505470_647.png
subject-03,1,123,0.920064926147461,dog,dog,8-10-10,0123_eid_s03_8-10-10_dog_10_n02101388_24945.png
subject-03,1,124,0.757913112640381,bicycle,bicycle,4-10-10,0124_eid_s03_4-10-10_bicycle_10_n02835271_17326.png
subject-03,1,125,0.82566499710083,boat,bicycle,128-10-10,0125_eid_s03_128-10-10_bicycle_10_n03792782_3892.png
subject-03,1,126,0.857474088668823,cat,chair,64-10-10,0126_eid_s03_64-10-10_chair_10_n04429376_6147.png
subject-03,1,127,0.8752601146698,bear,bear,1-10-10,0127_eid_s03_1-10-10_bear_10_n02132136_7796.png
subject-03,1,128,0.80722188949585,cat,boat,128-10-10,0128_eid_s03_128-10-10_boat_10_n03662601_2438.png
subject-03,1,129,0.622896909713745,cat,cat,1-10-10,0129_eid_s03_1-10-10_cat_10_n02124075_724.png
subject-03,1,130,0.914803028106689,boat,bear,128-10-10,0130_eid_s03_128-10-10_bear_10_n02133161_10184.png
subject-03,1,131,0.848763942718506,knife,oven,1-10-10,0131_eid_s03_1-10-10_oven_10_n04111531_12080.png
subject-03,1,132,0.902701139450073,bear,bear,64-10-10,0132_eid_s03_64-10-10_bear_10_n02132136_29636.png
subject-03,1,133,0.960650205612183,elephant,elephant,4-10-10,0133_eid_s03_4-10-10_elephant_10_n02504013_13766.png
subject-03,1,134,0.907924175262451,bottle,bottle,2-10-10,0134_eid_s03_2-10-10_bottle_10_n02823428_4097.png
subject-03,1,135,0.87994909286499,airplane,airplane,8-10-10,0135_eid_s03_8-10-10_airplane_10_n02690373_8846.png
subject-03,1,136,0.923752069473267,keyboard,keyboard,32-10-10,0136_eid_s03_32-10-10_keyboard_10_n04505470_5009.png
subject-03,1,137,0.75938606262207,bird,dog,8-10-10,0137_eid_s03_8-10-10_dog_10_n02102040_2216.png
subject-03,1,138,0.927299976348877,oven,oven,8-10-10,0138_eid_s03_8-10-10_oven_10_n04111531_20511.png
subject-03,1,139,0.799097061157227,bear,bear,2-10-10,0139_eid_s03_2-10-10_bear_10_n02134418_4754.png
subject-03,1,140,1.02299094200134,knife,knife,2-10-10,0140_eid_s03_2-10-10_knife_10_n03041632_927.png
subject-03,1,141,0.972782850265503,cat,dog,32-10-10,0141_eid_s03_32-10-10_dog_10_n02102040_7188.png
subject-03,1,142,1.19657516479492,dog,truck,16-10-10,0142_eid_s03_16-10-10_truck_10_n03417042_5381.png
subject-03,1,143,0.892262935638428,car,car,8-10-10,0143_eid_s03_8-10-10_car_10_n04285008_9464.png
subject-03,1,144,0.952217817306519,dog,elephant,64-10-10,0144_eid_s03_64-10-10_elephant_10_n02504013_7322.png
subject-03,1,145,0.832221984863281,bottle,bottle,1-10-10,0145_eid_s03_1-10-10_bottle_10_n03937543_3935.png
subject-03,1,146,1.28786087036133,keyboard,oven,4-10-10,0146_eid_s03_4-10-10_oven_10_n04111531_3076.png
subject-03,1,147,0.823811054229736,boat,keyboard,64-10-10,0147_eid_s03_64-10-10_keyboard_10_n03085013_20218.png
subject-03,1,148,1.1054699420929,oven,bottle,128-10-10,0148_eid_s03_128-10-10_bottle_10_n03937543_2269.png
subject-03,1,149,0.875081062316895,chair,chair,4-10-10,0149_eid_s03_4-10-10_chair_10_n03376595_12433.png
subject-03,1,150,0.849195957183838,oven,oven,8-10-10,0150_eid_s03_8-10-10_oven_10_n04111531_46651.png
subject-03,1,151,1.50009489059448,dog,bottle,128-10-10,0151_eid_s03_128-10-10_bottle_10_n04557648_6010.png
subject-03,1,152,0.778622150421143,airplane,airplane,1-10-10,0152_eid_s03_1-10-10_airplane_10_n02690373_6144.png
subject-03,1,153,0.906363010406494,cat,boat,16-10-10,0153_eid_s03_16-10-10_boat_10_n03662601_83.png
subject-03,1,154,0.896476984024048,elephant,elephant,1-10-10,0154_eid_s03_1-10-10_elephant_10_n02504458_723.png
subject-03,1,155,1.01652383804321,dog,dog,8-10-10,0155_eid_s03_8-10-10_dog_10_n02093256_5647.png
subject-03,1,156,1.10429096221924,dog,bird,64-10-10,0156_eid_s03_64-10-10_bird_10_n02002556_8585.png
subject-03,1,157,0.729795932769775,clock,clock,1-10-10,0157_eid_s03_1-10-10_clock_10_n04548280_8510.png
subject-03,1,158,0.823573112487793,truck,truck,4-10-10,0158_eid_s03_4-10-10_truck_10_n04467665_663.png
subject-03,1,159,1.44925618171692,cat,chair,16-10-10,0159_eid_s03_16-10-10_chair_10_n02791124_9736.png
subject-03,1,160,0.725522994995117,car,car,16-10-10,0160_eid_s03_16-10-10_car_10_n02814533_43040.png
subject-03,1,161,0.751604080200195,keyboard,keyboard,16-10-10,0161_eid_s03_16-10-10_keyboard_10_n03085013_21397.png
subject-03,1,162,0.599506139755249,car,car,8-10-10,0162_eid_s03_8-10-10_car_10_n03100240_1137.png
subject-03,1,163,0.621318101882935,bird,bird,4-10-10,0163_eid_s03_4-10-10_bird_10_n02011460_3521.png
subject-03,1,164,0.534979820251465,clock,clock,2-10-10,0164_eid_s03_2-10-10_clock_10_n04548280_2616.png
subject-03,1,165,0.938801050186157,elephant,bear,64-10-10,0165_eid_s03_64-10-10_bear_10_n02132136_2120.png
subject-03,1,166,0.792529821395874,cat,bottle,128-10-10,0166_eid_s03_128-10-10_bottle_10_n02823428_8079.png
subject-03,1,167,0.960462093353271,bird,elephant,128-10-10,0167_eid_s03_128-10-10_elephant_10_n02504458_5333.png
subject-03,1,168,0.692492961883545,keyboard,keyboard,1-10-10,0168_eid_s03_1-10-10_keyboard_10_n03085013_7573.png
subject-03,1,169,1.49396300315857,oven,dog,1-10-10,0169_eid_s03_1-10-10_dog_10_n02107142_61109.png
subject-03,1,170,1.05413103103638,elephant,elephant,8-10-10,0170_eid_s03_8-10-10_elephant_10_n02504458_13352.png
subject-03,1,171,0.661879062652588,elephant,elephant,8-10-10,0171_eid_s03_8-10-10_elephant_10_n02504458_651.png
subject-03,1,172,0.721503973007202,truck,truck,4-10-10,0172_eid_s03_4-10-10_truck_10_n04467665_31539.png
subject-03,1,173,0.897373914718628,airplane,bottle,1-10-10,0173_eid_s03_1-10-10_bottle_10_n04591713_4291.png
subject-03,1,174,0.865216016769409,bear,bird,64-10-10,0174_eid_s03_64-10-10_bird_10_n01860187_15592.png
subject-03,1,175,0.88497519493103,bear,keyboard,64-10-10,0175_eid_s03_64-10-10_keyboard_10_n04505470_5131.png
subject-03,1,176,1.14078187942505,bird,bird,32-10-10,0176_eid_s03_32-10-10_bird_10_n01824575_12101.png
subject-03,1,177,0.732682943344116,cat,cat,4-10-10,0177_eid_s03_4-10-10_cat_10_n02123597_2030.png
subject-03,1,178,1.46042013168335,dog,airplane,32-10-10,0178_eid_s03_32-10-10_airplane_10_n02690373_5253.png
subject-03,1,179,1.03632688522339,cat,cat,64-10-10,0179_eid_s03_64-10-10_cat_10_n02123394_3062.png
subject-03,1,180,1.42036914825439,cat,bear,32-10-10,0180_eid_s03_32-10-10_bear_10_n02134084_8153.png
subject-03,1,181,1.16586589813232,bottle,bottle,8-10-10,0181_eid_s03_8-10-10_bottle_10_n04591713_2501.png
subject-03,1,182,1.20954918861389,truck,truck,8-10-10,0182_eid_s03_8-10-10_truck_10_n04467665_24190.png
subject-03,1,183,0.753542900085449,elephant,elephant,1-10-10,0183_eid_s03_1-10-10_elephant_10_n02504013_6211.png
subject-03,1,184,0.861509084701538,cat,knife,128-10-10,0184_eid_s03_128-10-10_knife_10_n03041632_47703.png
subject-03,1,185,0.971451997756958,bottle,chair,1-10-10,0185_eid_s03_1-10-10_chair_10_n04099969_3611.png
subject-03,1,186,0.614889860153198,bird,bird,1-10-10,0186_eid_s03_1-10-10_bird_10_n01531178_14959.png
subject-03,1,187,0.912795066833496,boat,bicycle,16-10-10,0187_eid_s03_16-10-10_bicycle_10_n02835271_23173.png
subject-03,1,188,0.970902919769287,elephant,dog,64-10-10,0188_eid_s03_64-10-10_dog_10_n02092002_11459.png
subject-03,1,189,0.754257917404175,bird,bird,2-10-10,0189_eid_s03_2-10-10_bird_10_n02017213_5362.png
subject-03,1,190,0.710140943527222,car,car,16-10-10,0190_eid_s03_16-10-10_car_10_n03100240_23363.png
subject-03,1,191,0.853958129882812,bear,boat,32-10-10,0191_eid_s03_32-10-10_boat_10_n03344393_3498.png
subject-03,1,192,0.707633018493652,keyboard,keyboard,8-10-10,0192_eid_s03_8-10-10_keyboard_10_n04505470_4458.png
subject-03,1,193,0.955587863922119,bird,knife,16-10-10,0193_eid_s03_16-10-10_knife_10_n03041632_15099.png
subject-03,1,194,0.767321109771729,boat,boat,8-10-10,0194_eid_s03_8-10-10_boat_10_n04273569_3401.png
subject-03,1,195,1.03922891616821,boat,bird,64-10-10,0195_eid_s03_64-10-10_bird_10_n01601694_13787.png
subject-03,1,196,0.641030073165894,boat,boat,4-10-10,0196_eid_s03_4-10-10_boat_10_n04273569_1388.png
subject-03,1,197,0.990898132324219,bird,cat,32-10-10,0197_eid_s03_32-10-10_cat_10_n02125311_13152.png
subject-03,1,198,0.672775030136108,boat,boat,2-10-10,0198_eid_s03_2-10-10_boat_10_n04273569_72.png
subject-03,1,199,0.920542001724243,bird,bicycle,32-10-10,0199_eid_s03_32-10-10_bicycle_10_n02835271_13505.png
subject-03,1,200,1.32652902603149,dog,cat,64-10-10,0200_eid_s03_64-10-10_cat_10_n02123159_4051.png
subject-03,1,201,0.918206930160522,car,truck,16-10-10,0201_eid_s03_16-10-10_truck_10_n03417042_10117.png
subject-03,1,202,1.01624798774719,airplane,airplane,2-10-10,0202_eid_s03_2-10-10_airplane_10_n02690373_5885.png
subject-03,1,203,0.721741914749146,boat,boat,16-10-10,0203_eid_s03_16-10-10_boat_10_n02951358_2013.png
subject-03,1,204,1.00164985656738,cat,airplane,64-10-10,0204_eid_s03_64-10-10_airplane_10_n02690373_18412.png
subject-03,1,205,0.82551097869873,bear,bear,2-10-10,0205_eid_s03_2-10-10_bear_10_n02134084_7331.png
subject-03,1,206,0.653123140335083,bear,bear,8-10-10,0206_eid_s03_8-10-10_bear_10_n02132136_6266.png
subject-03,1,207,0.702869892120361,cat,car,64-10-10,0207_eid_s03_64-10-10_car_10_n03100240_18815.png
subject-03,1,208,0.746974945068359,cat,dog,128-10-10,0208_eid_s03_128-10-10_dog_10_n02086910_13835.png
subject-03,1,209,1.21477580070496,bird,bird,8-10-10,0209_eid_s03_8-10-10_bird_10_n01582220_4708.png
subject-03,1,210,0.784464836120605,cat,elephant,128-10-10,0210_eid_s03_128-10-10_elephant_10_n02504013_4424.png
subject-03,1,211,0.850193023681641,bird,elephant,128-10-10,0211_eid_s03_128-10-10_elephant_10_n02504458_6799.png
subject-03,1,212,0.930057048797607,bird,boat,16-10-10,0212_eid_s03_16-10-10_boat_10_n03662601_5118.png
subject-03,1,213,0.87824010848999,boat,boat,2-10-10,0213_eid_s03_2-10-10_boat_10_n02951358_1910.png
subject-03,1,214,1.27981805801392,chair,elephant,128-10-10,0214_eid_s03_128-10-10_elephant_10_n02504458_5204.png
subject-03,1,215,0.793573141098022,boat,boat,32-10-10,0215_eid_s03_32-10-10_boat_10_n03344393_6978.png
subject-03,1,216,1.17577409744263,dog,truck,128-10-10,0216_eid_s03_128-10-10_truck_10_n03417042_10154.png
subject-03,1,217,1.08523392677307,airplane,knife,16-10-10,0217_eid_s03_16-10-10_knife_10_n03041632_45569.png
subject-03,1,218,0.659083843231201,bicycle,bicycle,2-10-10,0218_eid_s03_2-10-10_bicycle_10_n02835271_7438.png
subject-03,1,219,0.882879972457886,cat,chair,128-10-10,0219_eid_s03_128-10-10_chair_10_n04099969_1850.png
subject-03,1,220,0.863162994384766,keyboard,keyboard,2-10-10,0220_eid_s03_2-10-10_keyboard_10_n03085013_24087.png
subject-03,1,221,0.778232097625732,keyboard,keyboard,8-10-10,0221_eid_s03_8-10-10_keyboard_10_n03085013_21066.png
subject-03,1,222,0.960263967514038,bird,bicycle,128-10-10,0222_eid_s03_128-10-10_bicycle_10_n03792782_9651.png
subject-03,1,223,0.863897085189819,bicycle,bottle,16-10-10,0223_eid_s03_16-10-10_bottle_10_n03983396_486.png
subject-03,1,224,0.760075092315674,oven,oven,8-10-10,0224_eid_s03_8-10-10_oven_10_n04111531_3286.png
subject-03,1,225,0.777870893478394,cat,bear,128-10-10,0225_eid_s03_128-10-10_bear_10_n02133161_1197.png
subject-03,1,226,0.689384937286377,bottle,bottle,2-10-10,0226_eid_s03_2-10-10_bottle_10_n03937543_1413.png
subject-03,1,227,0.805458068847656,cat,bottle,64-10-10,0227_eid_s03_64-10-10_bottle_10_n02823428_7316.png
subject-03,1,228,0.894999027252197,boat,bird,128-10-10,0228_eid_s03_128-10-10_bird_10_n01843065_5080.png
subject-03,1,229,0.8491051197052,knife,knife,2-10-10,0229_eid_s03_2-10-10_knife_10_n03041632_7064.png
subject-03,1,230,0.608685970306396,clock,clock,2-10-10,0230_eid_s03_2-10-10_clock_10_n02708093_6820.png
subject-03,1,231,0.812536001205444,elephant,elephant,4-10-10,0231_eid_s03_4-10-10_elephant_10_n02504458_5539.png
subject-03,1,232,0.722378969192505,bird,bird,1-10-10,0232_eid_s03_1-10-10_bird_10_n01537544_26417.png
subject-03,1,233,0.748131036758423,elephant,bear,1-10-10,0233_eid_s03_1-10-10_bear_10_n02134418_4685.png
subject-03,1,234,0.820101976394653,car,car,32-10-10,0234_eid_s03_32-10-10_car_10_n02814533_42059.png
subject-03,1,235,0.775820970535278,cat,keyboard,64-10-10,0235_eid_s03_64-10-10_keyboard_10_n03085013_19317.png
subject-03,1,236,0.818020105361938,dog,bear,32-10-10,0236_eid_s03_32-10-10_bear_10_n02132136_9557.png
subject-03,1,237,0.735708951950073,clock,clock,16-10-10,0237_eid_s03_16-10-10_clock_10_n02708093_3006.png
subject-03,1,238,1.30533885955811,bear,bottle,128-10-10,0238_eid_s03_128-10-10_bottle_10_n04560804_15963.png
subject-03,1,239,0.668998956680298,bicycle,bicycle,8-10-10,0239_eid_s03_8-10-10_bicycle_10_n02835271_12173.png
subject-03,1,240,0.713147163391113,cat,keyboard,64-10-10,0240_eid_s03_64-10-10_keyboard_10_n04505470_5059.png
subject-03,1,241,0.560832977294922,cat,cat,8-10-10,0241_eid_s03_8-10-10_cat_10_n02123597_10941.png
subject-03,1,242,1.00260591506958,dog,dog,1-10-10,0242_eid_s03_1-10-10_dog_10_n02086240_1567.png
subject-03,1,243,0.748593091964722,dog,dog,2-10-10,0243_eid_s03_2-10-10_dog_10_n02099849_2787.png
subject-03,1,244,0.874197006225586,knife,keyboard,32-10-10,0244_eid_s03_32-10-10_keyboard_10_n03085013_15995.png
subject-03,1,245,1.50016617774963,oven,cat,32-10-10,0245_eid_s03_32-10-10_cat_10_n02123159_1598.png
subject-03,1,246,0.633859157562256,keyboard,keyboard,4-10-10,0246_eid_s03_4-10-10_keyboard_10_n03085013_4941.png
subject-03,1,247,1.22576117515564,airplane,boat,128-10-10,0247_eid_s03_128-10-10_boat_10_n04273569_1482.png
subject-03,1,248,1.50011706352234,bird,knife,32-10-10,0248_eid_s03_32-10-10_knife_10_n03041632_20697.png
subject-03,1,249,0.527403831481934,cat,cat,64-10-10,0249_eid_s03_64-10-10_cat_10_n02124075_9225.png
subject-03,1,250,0.987183094024658,boat,boat,64-10-10,0250_eid_s03_64-10-10_boat_10_n03662601_2120.png
subject-03,1,251,0.99153208732605,airplane,truck,64-10-10,0251_eid_s03_64-10-10_truck_10_n04467665_13898.png
subject-03,1,252,0.633265972137451,airplane,airplane,2-10-10,0252_eid_s03_2-10-10_airplane_10_n02690373_17063.png
subject-03,1,253,0.915002107620239,cat,cat,128-10-10,0253_eid_s03_128-10-10_cat_10_n02123045_991.png
subject-03,1,254,0.598469972610474,clock,clock,4-10-10,0254_eid_s03_4-10-10_clock_10_n03196217_8254.png
subject-03,1,255,0.774308919906616,bottle,bottle,1-10-10,0255_eid_s03_1-10-10_bottle_10_n02823428_64.png
subject-03,1,256,0.76031494140625,cat,bicycle,64-10-10,0256_eid_s03_64-10-10_bicycle_10_n02835271_18361.png
subject-03,1,257,0.726067066192627,car,car,1-10-10,0257_eid_s03_1-10-10_car_10_n03100240_9892.png
subject-03,1,258,0.749803066253662,clock,clock,1-10-10,0258_eid_s03_1-10-10_clock_10_n02708093_798.png
subject-03,1,259,0.871591806411743,chair,chair,2-10-10,0259_eid_s03_2-10-10_chair_10_n03376595_7709.png
subject-03,1,260,0.753458976745605,cat,elephant,32-10-10,0260_eid_s03_32-10-10_elephant_10_n02504458_5839.png
subject-03,1,261,1.075040102005,oven,bottle,1-10-10,0261_eid_s03_1-10-10_bottle_10_n04560804_17045.png
subject-03,1,262,1.16104698181152,dog,bicycle,16-10-10,0262_eid_s03_16-10-10_bicycle_10_n02835271_18706.png
subject-03,1,263,0.748801946640015,boat,boat,1-10-10,0263_eid_s03_1-10-10_boat_10_n03344393_6103.png
subject-03,1,264,1.50004100799561,elephant,boat,128-10-10,0264_eid_s03_128-10-10_boat_10_n02951358_14346.png
subject-03,1,265,0.764458894729614,boat,bear,8-10-10,0265_eid_s03_8-10-10_bear_10_n02132136_2203.png
subject-03,1,266,0.886702060699463,elephant,elephant,1-10-10,0266_eid_s03_1-10-10_elephant_10_n02504013_6275.png
subject-03,1,267,1.09395599365234,truck,truck,2-10-10,0267_eid_s03_2-10-10_truck_10_n03796401_18976.png
subject-03,1,268,1.30181503295898,cat,clock,64-10-10,0268_eid_s03_64-10-10_clock_10_n03196217_10578.png
subject-03,1,269,1.11977195739746,bird,airplane,16-10-10,0269_eid_s03_16-10-10_airplane_10_n02690373_6834.png
subject-03,1,270,1.49554991722107,cat,knife,1-10-10,0270_eid_s03_1-10-10_knife_10_n03041632_89391.png
subject-03,1,271,0.967289924621582,boat,airplane,64-10-10,0271_eid_s03_64-10-10_airplane_10_n02690373_757.png
subject-03,1,272,0.639240980148315,oven,oven,2-10-10,0272_eid_s03_2-10-10_oven_10_n04111531_6080.png
subject-03,1,273,0.909020900726318,cat,bird,128-10-10,0273_eid_s03_128-10-10_bird_10_n01582220_359.png
subject-03,1,274,1.01098704338074,knife,dog,8-10-10,0274_eid_s03_8-10-10_dog_10_n02086079_15773.png
subject-03,1,275,1.24666690826416,knife,chair,16-10-10,0275_eid_s03_16-10-10_chair_10_n04099969_101.png
subject-03,1,276,1.16447901725769,bird,elephant,64-10-10,0276_eid_s03_64-10-10_elephant_10_n02504458_1985.png
subject-03,1,277,0.814275979995728,airplane,airplane,8-10-10,0277_eid_s03_8-10-10_airplane_10_n02690373_8461.png
subject-03,1,278,1.30014610290527,bottle,bottle,1-10-10,0278_eid_s03_1-10-10_bottle_10_n03937543_5375.png
subject-03,1,279,0.951665163040161,cat,knife,128-10-10,0279_eid_s03_128-10-10_knife_10_n03041632_22734.png
subject-03,1,280,1.12363910675049,bird,keyboard,32-10-10,0280_eid_s03_32-10-10_keyboard_10_n04505470_7659.png
subject-03,1,281,0.783468008041382,airplane,airplane,2-10-10,0281_eid_s03_2-10-10_airplane_10_n02690373_19074.png
subject-03,1,282,1.03914880752563,bicycle,oven,64-10-10,0282_eid_s03_64-10-10_oven_10_n04111531_1818.png
subject-03,1,283,1.50009107589722,cat,chair,64-10-10,0283_eid_s03_64-10-10_chair_10_n02791124_1358.png
subject-03,1,284,0.624749898910522,oven,oven,4-10-10,0284_eid_s03_4-10-10_oven_10_n04111531_17922.png
subject-03,1,285,0.876766920089722,bear,bear,4-10-10,0285_eid_s03_4-10-10_bear_10_n02134418_1770.png
subject-03,1,286,1.04080986976624,bicycle,bicycle,4-10-10,0286_eid_s03_4-10-10_bicycle_10_n03792782_7518.png
subject-03,1,287,0.818322896957397,airplane,airplane,16-10-10,0287_eid_s03_16-10-10_airplane_10_n02690373_10395.png
subject-03,1,288,1.45826005935669,knife,bottle,32-10-10,0288_eid_s03_32-10-10_bottle_10_n04560804_2181.png
subject-03,1,289,0.857845067977905,bottle,bottle,4-10-10,0289_eid_s03_4-10-10_bottle_10_n03937543_5799.png
subject-03,1,290,1.28564214706421,oven,bottle,32-10-10,0290_eid_s03_32-10-10_bottle_10_n04591713_7561.png
subject-03,1,291,0.859620094299316,keyboard,keyboard,2-10-10,0291_eid_s03_2-10-10_keyboard_10_n03085013_8932.png
subject-03,1,292,0.965394973754883,boat,bottle,16-10-10,0292_eid_s03_16-10-10_bottle_10_n04560804_5769.png
subject-03,1,293,0.943217992782593,boat,bicycle,32-10-10,0293_eid_s03_32-10-10_bicycle_10_n02835271_43.png
subject-03,1,294,0.718931198120117,airplane,airplane,8-10-10,0294_eid_s03_8-10-10_airplane_10_n02690373_8304.png
subject-03,1,295,0.839019060134888,keyboard,truck,8-10-10,0295_eid_s03_8-10-10_truck_10_n03417042_19047.png
subject-03,1,296,0.896914005279541,elephant,elephant,4-10-10,0296_eid_s03_4-10-10_elephant_10_n02504013_14440.png
subject-03,1,297,1.08255314826965,bottle,knife,1-10-10,0297_eid_s03_1-10-10_knife_10_n03041632_98864.png
subject-03,1,298,1.20037221908569,cat,bicycle,64-10-10,0298_eid_s03_64-10-10_bicycle_10_n02835271_6137.png
subject-03,1,299,1.16999387741089,bear,bird,16-10-10,0299_eid_s03_16-10-10_bird_10_n02002724_578.png
subject-03,1,300,1.00780200958252,bird,car,128-10-10,0300_eid_s03_128-10-10_car_10_n04285008_2560.png
subject-03,1,301,1.32379698753357,clock,bird,32-10-10,0301_eid_s03_32-10-10_bird_10_n02056570_10127.png
subject-03,1,302,0.727709054946899,keyboard,keyboard,2-10-10,0302_eid_s03_2-10-10_keyboard_10_n03085013_23269.png
subject-03,1,303,0.831347942352295,truck,truck,4-10-10,0303_eid_s03_4-10-10_truck_10_n04467665_13231.png
subject-03,1,304,1.18152379989624,bicycle,truck,32-10-10,0304_eid_s03_32-10-10_truck_10_n03417042_3228.png
subject-03,1,305,0.833111047744751,bicycle,bicycle,1-10-10,0305_eid_s03_1-10-10_bicycle_10_n03792782_70404.png
subject-03,1,306,0.804733991622925,boat,truck,16-10-10,0306_eid_s03_16-10-10_truck_10_n04467665_68332.png
subject-03,1,307,1.14658212661743,bird,cat,16-10-10,0307_eid_s03_16-10-10_cat_10_n02123394_270.png
subject-03,1,308,1.10032796859741,bottle,knife,2-10-10,0308_eid_s03_2-10-10_knife_10_n03041632_4279.png
subject-03,1,309,1.13418197631836,dog,keyboard,128-10-10,0309_eid_s03_128-10-10_keyboard_10_n03085013_19775.png
subject-03,1,310,0.969970941543579,dog,oven,32-10-10,0310_eid_s03_32-10-10_oven_10_n04111531_101.png
subject-03,1,311,0.885746955871582,bird,bird,2-10-10,0311_eid_s03_2-10-10_bird_10_n02009912_20610.png
subject-03,1,312,0.771740913391113,keyboard,keyboard,16-10-10,0312_eid_s03_16-10-10_keyboard_10_n04505470_1067.png
subject-03,1,313,0.879362106323242,bear,bear,32-10-10,0313_eid_s03_32-10-10_bear_10_n02133161_7688.png
subject-03,1,314,1.34161114692688,clock,cat,8-10-10,0314_eid_s03_8-10-10_cat_10_n02123045_8409.png
subject-03,1,315,0.647071838378906,cat,dog,16-10-10,0315_eid_s03_16-10-10_dog_10_n02088238_12552.png
subject-03,1,316,0.824992895126343,airplane,airplane,2-10-10,0316_eid_s03_2-10-10_airplane_10_n02690373_9266.png
subject-03,1,317,1.15312004089355,cat,cat,128-10-10,0317_eid_s03_128-10-10_cat_10_n02123394_5753.png
subject-03,1,318,0.818945169448853,chair,chair,4-10-10,0318_eid_s03_4-10-10_chair_10_n02791124_9595.png
subject-03,1,319,0.864260196685791,dog,dog,16-10-10,0319_eid_s03_16-10-10_dog_10_n02104029_8137.png
subject-03,1,320,0.656167984008789,cat,cat,1-10-10,0320_eid_s03_1-10-10_cat_10_n02123394_2347.png
subject-03,1,321,0.762216806411743,cat,dog,32-10-10,0321_eid_s03_32-10-10_dog_10_n02096294_1498.png
subject-03,1,322,0.809942007064819,oven,oven,16-10-10,0322_eid_s03_16-10-10_oven_10_n04111531_1992.png
subject-03,1,323,0.648149013519287,cat,keyboard,4-10-10,0323_eid_s03_4-10-10_keyboard_10_n03085013_23295.png
subject-03,1,324,1.31760191917419,boat,bicycle,4-10-10,0324_eid_s03_4-10-10_bicycle_10_n03792782_9432.png
subject-03,1,325,1.0255880355835,airplane,airplane,16-10-10,0325_eid_s03_16-10-10_airplane_10_n02690373_5587.png
subject-03,1,326,1.13309693336487,oven,knife,64-10-10,0326_eid_s03_64-10-10_knife_10_n03041632_55953.png
subject-03,1,327,0.992922067642212,bottle,car,64-10-10,0327_eid_s03_64-10-10_car_10_n04285008_11745.png
subject-03,1,328,1.21675395965576,boat,keyboard,128-10-10,0328_eid_s03_128-10-10_keyboard_10_n03085013_10367.png
subject-03,1,329,0.732619047164917,bicycle,bicycle,4-10-10,0329_eid_s03_4-10-10_bicycle_10_n03792782_17088.png
subject-03,1,330,0.894561052322388,cat,elephant,128-10-10,0330_eid_s03_128-10-10_elephant_10_n02504458_8414.png
subject-03,1,331,0.690172910690308,bicycle,bicycle,2-10-10,0331_eid_s03_2-10-10_bicycle_10_n02835271_3215.png
subject-03,1,332,1.03219199180603,cat,chair,32-10-10,0332_eid_s03_32-10-10_chair_10_n04429376_1058.png
subject-03,1,333,1.14002394676208,dog,chair,64-10-10,0333_eid_s03_64-10-10_chair_10_n02791124_373.png
subject-03,1,334,1.00357818603516,dog,bear,8-10-10,0334_eid_s03_8-10-10_bear_10_n02134084_1938.png
subject-03,1,335,1.13348579406738,chair,chair,16-10-10,0335_eid_s03_16-10-10_chair_10_n02791124_15383.png
subject-03,1,336,1.02718997001648,dog,dog,16-10-10,0336_eid_s03_16-10-10_dog_10_n02099601_10407.png
subject-03,1,337,1.33520817756653,dog,clock,16-10-10,0337_eid_s03_16-10-10_clock_10_n02708093_3365.png
subject-03,1,338,0.769052028656006,airplane,airplane,2-10-10,0338_eid_s03_2-10-10_airplane_10_n02690373_9247.png
subject-03,1,339,0.97869610786438,cat,chair,32-10-10,0339_eid_s03_32-10-10_chair_10_n03376595_8964.png
subject-03,1,340,1.04065299034119,knife,truck,32-10-10,0340_eid_s03_32-10-10_truck_10_n03796401_1213.png
subject-03,1,341,0.886554002761841,bear,bear,4-10-10,0341_eid_s03_4-10-10_bear_10_n02132136_2771.png
subject-03,1,342,1.30411791801453,knife,bottle,8-10-10,0342_eid_s03_8-10-10_bottle_10_n03983396_4879.png
subject-03,1,343,1.21408605575562,oven,oven,16-10-10,0343_eid_s03_16-10-10_oven_10_n04111531_13831.png
subject-03,1,344,1.50011086463928,bottle,chair,32-10-10,0344_eid_s03_32-10-10_chair_10_n03376595_8995.png
subject-03,1,345,0.893916130065918,cat,bird,16-10-10,0345_eid_s03_16-10-10_bird_10_n01616318_8488.png
subject-03,1,346,0.849467992782593,airplane,airplane,2-10-10,0346_eid_s03_2-10-10_airplane_10_n02690373_9170.png
subject-03,1,347,0.995223045349121,bird,airplane,128-10-10,0347_eid_s03_128-10-10_airplane_10_n02690373_3553.png
subject-03,1,348,1.09303092956543,bird,oven,128-10-10,0348_eid_s03_128-10-10_oven_10_n04111531_18592.png
subject-03,1,349,0.863424062728882,bear,bear,8-10-10,0349_eid_s03_8-10-10_bear_10_n02134084_6964.png
subject-03,1,350,0.897040128707886,knife,knife,2-10-10,0350_eid_s03_2-10-10_knife_10_n03041632_42472.png
subject-03,1,351,1.33856797218323,boat,oven,64-10-10,0351_eid_s03_64-10-10_oven_10_n04111531_7356.png
subject-03,1,352,1.26024580001831,car,car,8-10-10,0352_eid_s03_8-10-10_car_10_n04285008_1795.png
subject-03,1,353,1.25805497169495,bottle,cat,2-10-10,0353_eid_s03_2-10-10_cat_10_n02124075_15345.png
subject-03,1,354,1.2279851436615,bird,bottle,64-10-10,0354_eid_s03_64-10-10_bottle_10_n03983396_8982.png
subject-03,1,355,1.09363293647766,bird,bird,32-10-10,0355_eid_s03_32-10-10_bird_10_n01795545_15065.png
subject-03,1,356,1.16750597953796,dog,bear,16-10-10,0356_eid_s03_16-10-10_bear_10_n02132136_32838.png
subject-03,1,357,1.00524282455444,bear,oven,2-10-10,0357_eid_s03_2-10-10_oven_10_n04111531_8082.png
subject-03,1,358,0.835294008255005,cat,truck,128-10-10,0358_eid_s03_128-10-10_truck_10_n04467665_12867.png
subject-03,1,359,0.702931880950928,oven,oven,4-10-10,0359_eid_s03_4-10-10_oven_10_n04111531_2116.png
subject-03,1,360,0.660802125930786,bottle,bottle,4-10-10,0360_eid_s03_4-10-10_bottle_10_n04579145_5370.png
subject-03,1,361,0.908567905426025,knife,knife,4-10-10,0361_eid_s03_4-10-10_knife_10_n03041632_29920.png
subject-03,1,362,0.646343946456909,clock,clock,4-10-10,0362_eid_s03_4-10-10_clock_10_n04548280_10183.png
subject-03,1,363,0.776663064956665,cat,knife,32-10-10,0363_eid_s03_32-10-10_knife_10_n03041632_26340.png
subject-03,1,364,0.672170162200928,cat,chair,64-10-10,0364_eid_s03_64-10-10_chair_10_n03376595_2393.png
subject-03,1,365,0.802060127258301,elephant,elephant,16-10-10,0365_eid_s03_16-10-10_elephant_10_n02504013_17391.png
subject-03,1,366,1.0137460231781,boat,boat,1-10-10,0366_eid_s03_1-10-10_boat_10_n03344393_1178.png
subject-03,1,367,0.745619058609009,bear,bear,8-10-10,0367_eid_s03_8-10-10_bear_10_n02134084_22349.png
subject-03,1,368,0.63142204284668,chair,chair,8-10-10,0368_eid_s03_8-10-10_chair_10_n02791124_634.png
subject-03,1,369,0.827388048171997,bottle,bottle,16-10-10,0369_eid_s03_16-10-10_bottle_10_n03983396_11402.png
subject-03,1,370,0.649070978164673,chair,chair,1-10-10,0370_eid_s03_1-10-10_chair_10_n04099969_24378.png
subject-03,1,371,0.802892923355103,keyboard,bottle,4-10-10,0371_eid_s03_4-10-10_bottle_10_n03983396_4503.png
subject-03,1,372,0.948477983474731,boat,boat,4-10-10,0372_eid_s03_4-10-10_boat_10_n03662601_8488.png
subject-03,1,373,1.36840391159058,bottle,car,32-10-10,0373_eid_s03_32-10-10_car_10_n02814533_28783.png
subject-03,1,374,1.43264317512512,boat,boat,8-10-10,0374_eid_s03_8-10-10_boat_10_n04612504_30617.png
subject-03,1,375,1.38634204864502,chair,elephant,32-10-10,0375_eid_s03_32-10-10_elephant_10_n02504013_464.png
subject-03,1,376,0.699847936630249,cat,cat,2-10-10,0376_eid_s03_2-10-10_cat_10_n02124075_5953.png
subject-03,1,377,0.88585901260376,dog,dog,2-10-10,0377_eid_s03_2-10-10_dog_10_n02108915_6092.png
subject-03,1,378,0.697409152984619,bird,bird,8-10-10,0378_eid_s03_8-10-10_bird_10_n01532829_13864.png
subject-03,1,379,1.28940987586975,keyboard,knife,32-10-10,0379_eid_s03_32-10-10_knife_10_n03041632_2630.png
subject-03,1,380,0.86532187461853,elephant,elephant,2-10-10,0380_eid_s03_2-10-10_elephant_10_n02504013_2832.png
subject-03,1,381,1.27280902862549,bird,bird,32-10-10,0381_eid_s03_32-10-10_bird_10_n01797886_29585.png
subject-03,1,382,1.5001060962677,boat,bear,16-10-10,0382_eid_s03_16-10-10_bear_10_n02134084_2844.png
subject-03,1,383,0.696596145629883,airplane,airplane,1-10-10,0383_eid_s03_1-10-10_airplane_10_n02690373_17764.png
subject-03,1,384,0.990280151367188,elephant,cat,32-10-10,0384_eid_s03_32-10-10_cat_10_n02123159_3312.png
subject-03,1,385,0.870200872421265,cat,dog,128-10-10,0385_eid_s03_128-10-10_dog_10_n02110958_15217.png
subject-03,1,386,1.16005206108093,cat,cat,128-10-10,0386_eid_s03_128-10-10_cat_10_n02123159_1596.png
subject-03,1,387,1.13820600509644,bottle,bottle,1-10-10,0387_eid_s03_1-10-10_bottle_10_n03983396_11006.png
subject-03,1,388,1.28357481956482,boat,car,32-10-10,0388_eid_s03_32-10-10_car_10_n02814533_49630.png
subject-03,1,389,1.23329019546509,boat,elephant,32-10-10,0389_eid_s03_32-10-10_elephant_10_n02504458_4187.png
subject-03,1,390,1.37115001678467,dog,cat,32-10-10,0390_eid_s03_32-10-10_cat_10_n02123597_13623.png
subject-03,1,391,1.27121090888977,oven,knife,128-10-10,0391_eid_s03_128-10-10_knife_10_n03041632_379.png
subject-03,1,392,0.654839992523193,chair,chair,2-10-10,0392_eid_s03_2-10-10_chair_10_n04099969_14851.png
subject-03,1,393,0.726778984069824,bicycle,bicycle,8-10-10,0393_eid_s03_8-10-10_bicycle_10_n02835271_12782.png
subject-03,1,394,0.934414863586426,bird,bird,16-10-10,0394_eid_s03_16-10-10_bird_10_n02017213_1619.png
subject-03,1,395,1.03633809089661,bird,bird,64-10-10,0395_eid_s03_64-10-10_bird_10_n01601694_19650.png
subject-03,1,396,1.05024909973145,bottle,bottle,16-10-10,0396_eid_s03_16-10-10_bottle_10_n04579145_5777.png
subject-03,1,397,1.22588896751404,bird,boat,128-10-10,0397_eid_s03_128-10-10_boat_10_n03662601_23903.png
subject-03,1,398,0.883867979049683,oven,oven,1-10-10,0398_eid_s03_1-10-10_oven_10_n04111531_8398.png
subject-03,1,399,1.50006508827209,chair,clock,32-10-10,0399_eid_s03_32-10-10_clock_10_n03196217_6320.png
subject-03,1,400,1.21747803688049,bird,elephant,128-10-10,0400_eid_s03_128-10-10_elephant_10_n02504458_6823.png
subject-03,1,401,0.749546051025391,keyboard,keyboard,8-10-10,0401_eid_s03_8-10-10_keyboard_10_n04505470_4616.png
subject-03,1,402,0.871455907821655,cat,bear,128-10-10,0402_eid_s03_128-10-10_bear_10_n02132136_129.png
subject-03,1,403,0.789112091064453,dog,dog,16-10-10,0403_eid_s03_16-10-10_dog_10_n02094433_1863.png
subject-03,1,404,0.835016012191772,dog,dog,2-10-10,0404_eid_s03_2-10-10_dog_10_n02085936_2225.png
subject-03,1,405,0.887148141860962,elephant,elephant,8-10-10,0405_eid_s03_8-10-10_elephant_10_n02504013_6737.png
subject-03,1,406,0.960848808288574,cat,clock,128-10-10,0406_eid_s03_128-10-10_clock_10_n03196217_9380.png
subject-03,1,407,1.11643004417419,chair,chair,32-10-10,0407_eid_s03_32-10-10_chair_10_n02791124_6492.png
subject-03,1,408,1.21645903587341,chair,knife,128-10-10,0408_eid_s03_128-10-10_knife_10_n03041632_11285.png
subject-03,1,409,1.32810211181641,bicycle,knife,64-10-10,0409_eid_s03_64-10-10_knife_10_n03041632_52702.png
subject-03,1,410,1.40182018280029,dog,keyboard,64-10-10,0410_eid_s03_64-10-10_keyboard_10_n03085013_19891.png
subject-03,1,411,0.83175802230835,bird,bird,8-10-10,0411_eid_s03_8-10-10_bird_10_n01532829_1278.png
subject-03,1,412,0.651673078536987,clock,clock,4-10-10,0412_eid_s03_4-10-10_clock_10_n02708093_31.png
subject-03,1,413,0.969810009002686,bottle,bottle,4-10-10,0413_eid_s03_4-10-10_bottle_10_n04560804_8841.png
subject-03,1,414,0.959573984146118,chair,chair,1-10-10,0414_eid_s03_1-10-10_chair_10_n04099969_29038.png
subject-03,1,415,1.03500986099243,cat,truck,32-10-10,0415_eid_s03_32-10-10_truck_10_n03417042_27326.png
subject-03,1,416,0.804800033569336,elephant,elephant,4-10-10,0416_eid_s03_4-10-10_elephant_10_n02504458_63.png
subject-03,1,417,1.17056107521057,oven,oven,8-10-10,0417_eid_s03_8-10-10_oven_10_n04111531_22041.png
subject-03,1,418,0.870354175567627,bottle,bottle,1-10-10,0418_eid_s03_1-10-10_bottle_10_n03983396_4165.png
subject-03,1,419,1.07017993927002,dog,boat,16-10-10,0419_eid_s03_16-10-10_boat_10_n03662601_26231.png
subject-03,1,420,0.700452089309692,oven,oven,1-10-10,0420_eid_s03_1-10-10_oven_10_n04111531_21055.png
subject-03,1,421,0.817817211151123,chair,chair,8-10-10,0421_eid_s03_8-10-10_chair_10_n04099969_4374.png
subject-03,1,422,0.969743013381958,cat,bicycle,32-10-10,0422_eid_s03_32-10-10_bicycle_10_n03792782_3774.png
subject-03,1,423,0.75959587097168,cat,cat,1-10-10,0423_eid_s03_1-10-10_cat_10_n02123394_6269.png
subject-03,1,424,1.00740909576416,cat,knife,128-10-10,0424_eid_s03_128-10-10_knife_10_n03041632_7982.png
subject-03,1,425,1.33318114280701,knife,keyboard,128-10-10,0425_eid_s03_128-10-10_keyboard_10_n03085013_5568.png
subject-03,1,426,1.11899399757385,truck,truck,4-10-10,0426_eid_s03_4-10-10_truck_10_n03417042_6420.png
subject-03,1,427,0.97096586227417,dog,cat,32-10-10,0427_eid_s03_32-10-10_cat_10_n02125311_14156.png
subject-03,1,428,0.742666006088257,clock,clock,2-10-10,0428_eid_s03_2-10-10_clock_10_n04548280_3341.png
subject-03,1,429,0.930706977844238,chair,chair,4-10-10,0429_eid_s03_4-10-10_chair_10_n04099969_1792.png
subject-03,1,430,0.938133955001831,cat,dog,16-10-10,0430_eid_s03_16-10-10_dog_10_n02095570_7382.png
subject-03,1,431,1.01007413864136,boat,oven,32-10-10,0431_eid_s03_32-10-10_oven_10_n04111531_5350.png
subject-03,1,432,0.959951877593994,bicycle,bicycle,1-10-10,0432_eid_s03_1-10-10_bicycle_10_n02835271_8881.png
subject-03,1,433,1.11757588386536,boat,bird,128-10-10,0433_eid_s03_128-10-10_bird_10_n02056570_9342.png
subject-03,1,434,0.957379817962646,bear,bear,8-10-10,0434_eid_s03_8-10-10_bear_10_n02134418_1712.png
subject-03,1,435,1.14953899383545,keyboard,keyboard,1-10-10,0435_eid_s03_1-10-10_keyboard_10_n04505470_4702.png
subject-03,1,436,1.29315090179443,bicycle,bicycle,1-10-10,0436_eid_s03_1-10-10_bicycle_10_n03792782_16817.png
subject-03,1,437,0.867013931274414,keyboard,keyboard,32-10-10,0437_eid_s03_32-10-10_keyboard_10_n04505470_5173.png
subject-03,1,438,1.29867696762085,truck,truck,4-10-10,0438_eid_s03_4-10-10_truck_10_n04467665_68331.png
subject-03,1,439,1.18687796592712,bicycle,bicycle,64-10-10,0439_eid_s03_64-10-10_bicycle_10_n02835271_19019.png
subject-03,1,440,1.32028484344482,bear,cat,1-10-10,0440_eid_s03_1-10-10_cat_10_n02123597_4756.png
subject-03,1,441,1.43245005607605,elephant,elephant,2-10-10,0441_eid_s03_2-10-10_elephant_10_n02504013_6731.png
subject-03,1,442,0.635922193527222,bear,bear,4-10-10,0442_eid_s03_4-10-10_bear_10_n02134084_12148.png
subject-03,1,443,0.9200758934021,bottle,bottle,2-10-10,0443_eid_s03_2-10-10_bottle_10_n03983396_795.png
subject-03,1,444,0.737978935241699,clock,clock,16-10-10,0444_eid_s03_16-10-10_clock_10_n02708093_4255.png
subject-03,1,445,1.11149787902832,bird,bottle,128-10-10,0445_eid_s03_128-10-10_bottle_10_n02823428_5961.png
subject-03,1,446,1.07964301109314,bicycle,boat,128-10-10,0446_eid_s03_128-10-10_boat_10_n04612504_12864.png
subject-03,1,447,0.987097978591919,dog,bottle,64-10-10,0447_eid_s03_64-10-10_bottle_10_n04591713_6561.png
subject-03,1,448,1.43884897232056,cat,bicycle,16-10-10,0448_eid_s03_16-10-10_bicycle_10_n03792782_14216.png
subject-03,1,449,1.36460280418396,bottle,chair,64-10-10,0449_eid_s03_64-10-10_chair_10_n04429376_11956.png
subject-03,1,450,1.00499200820923,bird,airplane,32-10-10,0450_eid_s03_32-10-10_airplane_10_n02690373_10926.png
subject-03,1,451,0.924463033676147,airplane,airplane,4-10-10,0451_eid_s03_4-10-10_airplane_10_n02690373_3859.png
subject-03,1,452,1.22614216804504,car,bear,128-10-10,0452_eid_s03_128-10-10_bear_10_n02133161_3550.png
subject-03,1,453,0.978126049041748,bicycle,bear,8-10-10,0453_eid_s03_8-10-10_bear_10_n02133161_1981.png
subject-03,1,454,0.87959885597229,bird,bird,16-10-10,0454_eid_s03_16-10-10_bird_10_n02018207_16716.png
subject-03,1,455,0.845782041549683,keyboard,keyboard,2-10-10,0455_eid_s03_2-10-10_keyboard_10_n03085013_22713.png
subject-03,1,456,0.875616073608398,oven,oven,16-10-10,0456_eid_s03_16-10-10_oven_10_n04111531_4900.png
subject-03,1,457,1.48317408561707,bird,clock,128-10-10,0457_eid_s03_128-10-10_clock_10_n04548280_8841.png
subject-03,1,458,1.34309601783752,bottle,oven,16-10-10,0458_eid_s03_16-10-10_oven_10_n04111531_3314.png
subject-03,1,459,0.72104287147522,bicycle,bicycle,8-10-10,0459_eid_s03_8-10-10_bicycle_10_n03792782_17430.png
subject-03,1,460,0.870655059814453,car,car,16-10-10,0460_eid_s03_16-10-10_car_10_n03100240_3528.png
subject-03,1,461,1.17640399932861,cat,truck,128-10-10,0461_eid_s03_128-10-10_truck_10_n04467665_67909.png
subject-03,1,462,0.986503839492798,keyboard,keyboard,2-10-10,0462_eid_s03_2-10-10_keyboard_10_n03085013_23552.png
subject-03,1,463,0.958088874816895,boat,car,128-10-10,0463_eid_s03_128-10-10_car_10_n04285008_3150.png
subject-03,1,464,0.731945991516113,car,car,2-10-10,0464_eid_s03_2-10-10_car_10_n03100240_2512.png
subject-03,1,465,1.40614891052246,clock,boat,128-10-10,0465_eid_s03_128-10-10_boat_10_n02951358_30474.png
subject-03,1,466,1.15374684333801,chair,car,128-10-10,0466_eid_s03_128-10-10_car_10_n04285008_2653.png
subject-03,1,467,0.787494897842407,airplane,airplane,2-10-10,0467_eid_s03_2-10-10_airplane_10_n02690373_4042.png
subject-03,1,468,1.30704879760742,airplane,bear,64-10-10,0468_eid_s03_64-10-10_bear_10_n02132136_3102.png
subject-03,1,469,1.04903388023376,bear,bear,4-10-10,0469_eid_s03_4-10-10_bear_10_n02134084_5274.png
subject-03,1,470,0.898812055587769,cat,cat,4-10-10,0470_eid_s03_4-10-10_cat_10_n02123045_1902.png
subject-03,1,471,0.884497165679932,bottle,bottle,2-10-10,0471_eid_s03_2-10-10_bottle_10_n02823428_7810.png
subject-03,1,472,0.938536882400513,knife,knife,8-10-10,0472_eid_s03_8-10-10_knife_10_n03041632_40508.png
subject-03,1,473,1.23615217208862,boat,bear,16-10-10,0473_eid_s03_16-10-10_bear_10_n02133161_7080.png
subject-03,1,474,0.880220890045166,bird,bird,64-10-10,0474_eid_s03_64-10-10_bird_10_n01797886_5310.png
subject-03,1,475,0.932183980941772,car,car,1-10-10,0475_eid_s03_1-10-10_car_10_n04285008_1661.png
subject-03,1,476,0.991635799407959,bear,bear,32-10-10,0476_eid_s03_32-10-10_bear_10_n02134418_3470.png
subject-03,1,477,0.897531986236572,car,car,2-10-10,0477_eid_s03_2-10-10_car_10_n02814533_9812.png
subject-03,1,478,1.11125683784485,cat,knife,32-10-10,0478_eid_s03_32-10-10_knife_10_n03041632_93026.png
subject-03,1,479,0.965430974960327,elephant,elephant,2-10-10,0479_eid_s03_2-10-10_elephant_10_n02504013_3409.png
subject-03,1,480,0.924834012985229,bird,bear,32-10-10,0480_eid_s03_32-10-10_bear_10_n02134418_4050.png
subject-03,1,481,1.07867908477783,elephant,oven,128-10-10,0481_eid_s03_128-10-10_oven_10_n04111531_520.png
subject-03,1,482,0.700639009475708,clock,clock,8-10-10,0482_eid_s03_8-10-10_clock_10_n04548280_1413.png
subject-03,1,483,1.2061939239502,truck,truck,8-10-10,0483_eid_s03_8-10-10_truck_10_n03796401_14203.png
subject-03,1,484,1.13602185249329,knife,knife,2-10-10,0484_eid_s03_2-10-10_knife_10_n03041632_47743.png
subject-03,1,485,0.835754871368408,airplane,airplane,2-10-10,0485_eid_s03_2-10-10_airplane_10_n02690373_4471.png
subject-03,1,486,0.925616025924683,cat,cat,2-10-10,0486_eid_s03_2-10-10_cat_10_n02125311_9364.png
subject-03,1,487,0.71146297454834,chair,chair,1-10-10,0487_eid_s03_1-10-10_chair_10_n03376595_14729.png
subject-03,1,488,1.29537296295166,bottle,clock,8-10-10,0488_eid_s03_8-10-10_clock_10_n02708093_899.png
subject-03,1,489,0.869354963302612,truck,truck,1-10-10,0489_eid_s03_1-10-10_truck_10_n04467665_72639.png
subject-03,1,490,0.920732975006104,cat,bicycle,128-10-10,0490_eid_s03_128-10-10_bicycle_10_n03792782_18687.png
subject-03,1,491,1.02068901062012,dog,bear,32-10-10,0491_eid_s03_32-10-10_bear_10_n02134418_409.png
subject-03,1,492,0.76649284362793,airplane,airplane,4-10-10,0492_eid_s03_4-10-10_airplane_10_n02690373_4866.png
subject-03,1,493,0.796623945236206,airplane,airplane,32-10-10,0493_eid_s03_32-10-10_airplane_10_n02690373_8123.png
subject-03,1,494,0.668015956878662,cat,cat,32-10-10,0494_eid_s03_32-10-10_cat_10_n02123394_571.png
subject-03,1,495,1.50028896331787,keyboard,keyboard,4-10-10,0495_eid_s03_4-10-10_keyboard_10_n04505470_3122.png
subject-03,1,496,0.991594791412354,bear,dog,64-10-10,0496_eid_s03_64-10-10_dog_10_n02099429_1118.png
subject-03,1,497,1.00372910499573,chair,chair,1-10-10,0497_eid_s03_1-10-10_chair_10_n03376595_6938.png
subject-03,1,498,0.8593590259552,airplane,airplane,1-10-10,0498_eid_s03_1-10-10_airplane_10_n02690373_4506.png
subject-03,1,499,1.43923711776733,keyboard,oven,32-10-10,0499_eid_s03_32-10-10_oven_10_n04111531_12830.png
subject-03,1,500,0.833022832870483,car,car,8-10-10,0500_eid_s03_8-10-10_car_10_n03100240_1072.png
subject-03,1,501,1.44672679901123,bicycle,oven,16-10-10,0501_eid_s03_16-10-10_oven_10_n04111531_8852.png
subject-03,1,502,1.43475008010864,boat,truck,128-10-10,0502_eid_s03_128-10-10_truck_10_n04467665_6814.png
subject-03,1,503,NaN,na,airplane,128-10-10,0503_eid_s03_128-10-10_airplane_10_n02690373_1696.png
subject-03,1,504,1.08060908317566,keyboard,car,64-10-10,0504_eid_s03_64-10-10_car_10_n04285008_12101.png
subject-03,1,505,0.810089826583862,truck,truck,4-10-10,0505_eid_s03_4-10-10_truck_10_n04467665_1719.png
subject-03,1,506,1.47006106376648,airplane,airplane,16-10-10,0506_eid_s03_16-10-10_airplane_10_n02690373_10001.png
subject-03,1,507,0.723616123199463,car,car,2-10-10,0507_eid_s03_2-10-10_car_10_n03100240_4460.png
subject-03,1,508,0.679499864578247,boat,boat,8-10-10,0508_eid_s03_8-10-10_boat_10_n04273569_2667.png
subject-03,1,509,0.979423999786377,cat,cat,64-10-10,0509_eid_s03_64-10-10_cat_10_n02123159_15664.png
subject-03,1,510,1.08350205421448,clock,keyboard,16-10-10,0510_eid_s03_16-10-10_keyboard_10_n03085013_1812.png
subject-03,1,511,0.759242057800293,cat,dog,64-10-10,0511_eid_s03_64-10-10_dog_10_n02113712_8182.png
subject-03,1,512,0.842723846435547,airplane,airplane,1-10-10,0512_eid_s03_1-10-10_airplane_10_n02690373_13324.png
subject-03,1,513,1.01648783683777,oven,cat,64-10-10,0513_eid_s03_64-10-10_cat_10_n02123159_7270.png
subject-03,1,514,1.0763258934021,bicycle,knife,4-10-10,0514_eid_s03_4-10-10_knife_10_n03041632_27929.png
subject-03,1,515,1.09609889984131,bird,cat,128-10-10,0515_eid_s03_128-10-10_cat_10_n02123045_7829.png
subject-03,1,516,1.06812906265259,cat,truck,64-10-10,0516_eid_s03_64-10-10_truck_10_n04467665_70694.png
subject-03,1,517,0.85004711151123,bicycle,bicycle,4-10-10,0517_eid_s03_4-10-10_bicycle_10_n02835271_3990.png
subject-03,1,518,1.03202605247498,boat,elephant,64-10-10,0518_eid_s03_64-10-10_elephant_10_n02504013_978.png
subject-03,1,519,0.867486000061035,knife,knife,1-10-10,0519_eid_s03_1-10-10_knife_10_n03041632_10136.png
subject-03,1,520,1.03738307952881,oven,oven,16-10-10,0520_eid_s03_16-10-10_oven_10_n04111531_8181.png
subject-03,1,521,1.14709997177124,cat,car,128-10-10,0521_eid_s03_128-10-10_car_10_n02814533_40350.png
subject-03,1,522,0.91689395904541,cat,truck,128-10-10,0522_eid_s03_128-10-10_truck_10_n03796401_3386.png
subject-03,1,523,0.804744005203247,cat,cat,8-10-10,0523_eid_s03_8-10-10_cat_10_n02123159_13604.png
subject-03,1,524,1.45859003067017,dog,chair,128-10-10,0524_eid_s03_128-10-10_chair_10_n03376595_5972.png
subject-03,1,525,0.830502986907959,bear,oven,32-10-10,0525_eid_s03_32-10-10_oven_10_n04111531_1362.png
subject-03,1,526,0.866087913513184,bicycle,bicycle,2-10-10,0526_eid_s03_2-10-10_bicycle_10_n02835271_15038.png
subject-03,1,527,1.0640549659729,clock,clock,16-10-10,0527_eid_s03_16-10-10_clock_10_n04548280_3541.png
subject-03,1,528,0.715769052505493,clock,clock,8-10-10,0528_eid_s03_8-10-10_clock_10_n02708093_4692.png
subject-03,1,529,0.731663942337036,chair,chair,2-10-10,0529_eid_s03_2-10-10_chair_10_n02791124_8866.png
subject-03,1,530,0.861538887023926,boat,elephant,64-10-10,0530_eid_s03_64-10-10_elephant_10_n02504013_7209.png
subject-03,1,531,0.759253978729248,cat,cat,2-10-10,0531_eid_s03_2-10-10_cat_10_n02123597_7933.png
subject-03,1,532,1.1670241355896,elephant,bear,4-10-10,0532_eid_s03_4-10-10_bear_10_n02132136_20162.png
subject-03,1,533,1.26313900947571,bird,boat,32-10-10,0533_eid_s03_32-10-10_boat_10_n02951358_31973.png
subject-03,1,534,0.906538963317871,bird,bird,8-10-10,0534_eid_s03_8-10-10_bird_10_n01601694_5060.png
subject-03,1,535,0.660614967346191,clock,clock,1-10-10,0535_eid_s03_1-10-10_clock_10_n02708093_57.png
subject-03,1,536,0.814197063446045,cat,oven,128-10-10,0536_eid_s03_128-10-10_oven_10_n04111531_924.png
subject-03,1,537,0.862241983413696,airplane,airplane,16-10-10,0537_eid_s03_16-10-10_airplane_10_n02690373_4183.png
subject-03,1,538,0.87791895866394,dog,dog,8-10-10,0538_eid_s03_8-10-10_dog_10_n02093991_4977.png
subject-03,1,539,1.3917920589447,bird,chair,16-10-10,0539_eid_s03_16-10-10_chair_10_n03376595_5304.png
subject-03,1,540,1.0414719581604,bicycle,truck,64-10-10,0540_eid_s03_64-10-10_truck_10_n03417042_5406.png
subject-03,1,541,1.09744191169739,boat,chair,64-10-10,0541_eid_s03_64-10-10_chair_10_n04099969_4541.png
subject-03,1,542,0.877087116241455,keyboard,keyboard,8-10-10,0542_eid_s03_8-10-10_keyboard_10_n04505470_4414.png
subject-03,1,543,1.05738592147827,dog,dog,1-10-10,0543_eid_s03_1-10-10_dog_10_n02100735_4949.png
subject-03,1,544,1.50015902519226,bear,bear,4-10-10,0544_eid_s03_4-10-10_bear_10_n02132136_1646.png
subject-03,1,545,0.794672012329102,knife,truck,128-10-10,0545_eid_s03_128-10-10_truck_10_n04467665_15235.png
subject-03,1,546,0.82032299041748,bear,bear,2-10-10,0546_eid_s03_2-10-10_bear_10_n02134418_551.png
subject-03,1,547,0.786178827285767,chair,chair,4-10-10,0547_eid_s03_4-10-10_chair_10_n04099969_17866.png
subject-03,1,548,0.954121112823486,truck,truck,1-10-10,0548_eid_s03_1-10-10_truck_10_n03417042_8076.png
subject-03,1,549,0.957974910736084,bicycle,bicycle,16-10-10,0549_eid_s03_16-10-10_bicycle_10_n03792782_5449.png
subject-03,1,550,0.876003980636597,boat,boat,1-10-10,0550_eid_s03_1-10-10_boat_10_n03344393_9268.png
subject-03,1,551,1.01146388053894,bear,boat,128-10-10,0551_eid_s03_128-10-10_boat_10_n02951358_3188.png
subject-03,1,552,1.20745801925659,oven,oven,64-10-10,0552_eid_s03_64-10-10_oven_10_n04111531_5351.png
subject-03,1,553,1.18120503425598,knife,bird,128-10-10,0553_eid_s03_128-10-10_bird_10_n01592084_7569.png
subject-03,1,554,1.45487904548645,bird,chair,128-10-10,0554_eid_s03_128-10-10_chair_10_n02791124_2555.png
subject-03,1,555,1.05271100997925,bear,cat,64-10-10,0555_eid_s03_64-10-10_cat_10_n02125311_30452.png
subject-03,1,556,1.09068298339844,bicycle,bicycle,32-10-10,0556_eid_s03_32-10-10_bicycle_10_n03792782_14935.png
subject-03,1,557,0.960405111312866,bird,bear,128-10-10,0557_eid_s03_128-10-10_bear_10_n02133161_1944.png
subject-03,1,558,0.744126081466675,bird,bird,2-10-10,0558_eid_s03_2-10-10_bird_10_n01614925_9764.png
subject-03,1,559,1.37406611442566,bird,cat,2-10-10,0559_eid_s03_2-10-10_cat_10_n02123394_2507.png
subject-03,1,560,0.80794882774353,car,car,1-10-10,0560_eid_s03_1-10-10_car_10_n02814533_13977.png
subject-03,1,561,0.993384122848511,knife,knife,2-10-10,0561_eid_s03_2-10-10_knife_10_n03041632_39952.png
subject-03,1,562,0.93118691444397,boat,car,32-10-10,0562_eid_s03_32-10-10_car_10_n02814533_28171.png
subject-03,1,563,1.33306908607483,oven,dog,16-10-10,0563_eid_s03_16-10-10_dog_10_n02093991_4515.png
subject-03,1,564,1.10281419754028,knife,chair,32-10-10,0564_eid_s03_32-10-10_chair_10_n04099969_18744.png
subject-03,1,565,0.842839002609253,keyboard,keyboard,8-10-10,0565_eid_s03_8-10-10_keyboard_10_n03085013_17884.png
subject-03,1,566,NaN,na,keyboard,128-10-10,0566_eid_s03_128-10-10_keyboard_10_n04505470_6955.png
subject-03,1,567,0.846281051635742,bird,airplane,64-10-10,0567_eid_s03_64-10-10_airplane_10_n02690373_10931.png
subject-03,1,568,1.10258197784424,bird,truck,128-10-10,0568_eid_s03_128-10-10_truck_10_n03417042_2478.png
subject-03,1,569,0.768367052078247,car,car,1-10-10,0569_eid_s03_1-10-10_car_10_n02814533_81090.png
subject-03,1,570,0.617680072784424,clock,clock,4-10-10,0570_eid_s03_4-10-10_clock_10_n03196217_8706.png
subject-03,1,571,1.33753800392151,cat,cat,1-10-10,0571_eid_s03_1-10-10_cat_10_n02123159_2100.png
subject-03,1,572,0.797344207763672,oven,chair,128-10-10,0572_eid_s03_128-10-10_chair_10_n02791124_1059.png
subject-03,1,573,0.785227060317993,car,car,16-10-10,0573_eid_s03_16-10-10_car_10_n02814533_69750.png
subject-03,1,574,1.17107605934143,chair,truck,16-10-10,0574_eid_s03_16-10-10_truck_10_n03417042_6941.png
subject-03,1,575,0.820817947387695,bear,bear,32-10-10,0575_eid_s03_32-10-10_bear_10_n02134084_20500.png
subject-03,1,576,1.50015902519226,bicycle,boat,16-10-10,0576_eid_s03_16-10-10_boat_10_n04273569_17671.png
subject-03,1,577,0.752389192581177,cat,dog,64-10-10,0577_eid_s03_64-10-10_dog_10_n02113023_10107.png
subject-03,1,578,0.898496866226196,dog,bicycle,32-10-10,0578_eid_s03_32-10-10_bicycle_10_n02835271_19834.png
subject-03,1,579,1.29053092002869,elephant,elephant,32-10-10,0579_eid_s03_32-10-10_elephant_10_n02504458_11618.png
subject-03,1,580,1.49999594688416,car,airplane,128-10-10,0580_eid_s03_128-10-10_airplane_10_n02690373_9946.png
subject-03,1,581,0.659804105758667,clock,clock,8-10-10,0581_eid_s03_8-10-10_clock_10_n02708093_2555.png
subject-03,1,582,0.923845052719116,truck,truck,8-10-10,0582_eid_s03_8-10-10_truck_10_n04467665_69882.png
subject-03,1,583,1.20131897926331,cat,bottle,32-10-10,0583_eid_s03_32-10-10_bottle_10_n02823428_906.png
subject-03,1,584,0.881571054458618,cat,oven,64-10-10,0584_eid_s03_64-10-10_oven_10_n04111531_5906.png
subject-03,1,585,1.22098898887634,bottle,bird,16-10-10,0585_eid_s03_16-10-10_bird_10_n01531178_18032.png
subject-03,1,586,0.905094861984253,boat,car,32-10-10,0586_eid_s03_32-10-10_car_10_n02814533_22824.png
subject-03,1,587,1.18676900863647,knife,truck,16-10-10,0587_eid_s03_16-10-10_truck_10_n04467665_30504.png
subject-03,1,588,0.866816997528076,elephant,elephant,1-10-10,0588_eid_s03_1-10-10_elephant_10_n02504458_3885.png
subject-03,1,589,1.17824697494507,boat,bicycle,128-10-10,0589_eid_s03_128-10-10_bicycle_10_n03792782_3299.png
subject-03,1,590,0.716027975082397,knife,knife,1-10-10,0590_eid_s03_1-10-10_knife_10_n03041632_16172.png
subject-03,1,591,0.56188702583313,cat,cat,8-10-10,0591_eid_s03_8-10-10_cat_10_n02123597_8890.png
subject-03,1,592,1.29953789710999,bottle,knife,4-10-10,0592_eid_s03_4-10-10_knife_10_n03041632_52848.png
subject-03,1,593,1.16753602027893,boat,bicycle,128-10-10,0593_eid_s03_128-10-10_bicycle_10_n03792782_7713.png
subject-03,1,594,1.00946688652039,cat,oven,4-10-10,0594_eid_s03_4-10-10_oven_10_n04111531_8959.png
subject-03,1,595,1.06298398971558,dog,dog,2-10-10,0595_eid_s03_2-10-10_dog_10_n02110806_5427.png
subject-03,1,596,0.865067005157471,boat,bicycle,128-10-10,0596_eid_s03_128-10-10_bicycle_10_n03792782_4083.png
subject-03,1,597,0.850888013839722,truck,truck,1-10-10,0597_eid_s03_1-10-10_truck_10_n03417042_29384.png
subject-03,1,598,1.19065403938293,bottle,truck,128-10-10,0598_eid_s03_128-10-10_truck_10_n04467665_4165.png
subject-03,1,599,1.18069005012512,boat,airplane,128-10-10,0599_eid_s03_128-10-10_airplane_10_n02690373_7651.png
subject-03,1,600,1.22813391685486,bottle,clock,8-10-10,0600_eid_s03_8-10-10_clock_10_n03196217_6689.png
subject-03,1,601,0.745944023132324,keyboard,keyboard,2-10-10,0601_eid_s03_2-10-10_keyboard_10_n03085013_24648.png
subject-03,1,602,1.02788901329041,knife,bear,1-10-10,0602_eid_s03_1-10-10_bear_10_n02133161_3795.png
subject-03,1,603,0.891502141952515,cat,oven,128-10-10,0603_eid_s03_128-10-10_oven_10_n04111531_9779.png
subject-03,1,604,1.50012803077698,oven,knife,128-10-10,0604_eid_s03_128-10-10_knife_10_n03041632_20770.png
subject-03,1,605,1.50007796287537,boat,dog,128-10-10,0605_eid_s03_128-10-10_dog_10_n02110063_14116.png
subject-03,1,606,1.40498304367065,chair,bird,1-10-10,0606_eid_s03_1-10-10_bird_10_n02002724_19618.png
subject-03,1,607,0.750863075256348,cat,bicycle,64-10-10,0607_eid_s03_64-10-10_bicycle_10_n03792782_11921.png
subject-03,1,608,1.17068600654602,dog,dog,8-10-10,0608_eid_s03_8-10-10_dog_10_n02102040_994.png
subject-03,1,609,1.35661697387695,elephant,elephant,1-10-10,0609_eid_s03_1-10-10_elephant_10_n02504458_6611.png
subject-03,1,610,1.02425503730774,chair,chair,8-10-10,0610_eid_s03_8-10-10_chair_10_n04429376_21845.png
subject-03,1,611,0.930202960968018,airplane,airplane,16-10-10,0611_eid_s03_16-10-10_airplane_10_n02690373_10402.png
subject-03,1,612,1.26805901527405,cat,clock,32-10-10,0612_eid_s03_32-10-10_clock_10_n03196217_3909.png
subject-03,1,613,1.02163696289062,car,car,2-10-10,0613_eid_s03_2-10-10_car_10_n03100240_5308.png
subject-03,1,614,1.03547501564026,dog,cat,16-10-10,0614_eid_s03_16-10-10_cat_10_n02123045_11955.png
subject-03,1,615,0.867411851882935,cat,bear,16-10-10,0615_eid_s03_16-10-10_bear_10_n02134084_712.png
subject-03,1,616,1.06104683876038,bear,chair,8-10-10,0616_eid_s03_8-10-10_chair_10_n03376595_9267.png
subject-03,1,617,1.0431649684906,dog,dog,32-10-10,0617_eid_s03_32-10-10_dog_10_n02100735_6359.png
subject-03,1,618,0.866986036300659,elephant,elephant,16-10-10,0618_eid_s03_16-10-10_elephant_10_n02504458_395.png
subject-03,1,619,0.974678993225098,airplane,airplane,32-10-10,0619_eid_s03_32-10-10_airplane_10_n02690373_6831.png
subject-03,1,620,0.878766775131226,keyboard,clock,32-10-10,0620_eid_s03_32-10-10_clock_10_n03196217_3129.png
subject-03,1,621,1.09021496772766,airplane,airplane,4-10-10,0621_eid_s03_4-10-10_airplane_10_n02690373_5797.png
subject-03,1,622,1.24618816375732,truck,boat,16-10-10,0622_eid_s03_16-10-10_boat_10_n03662601_2980.png
subject-03,1,623,0.95418906211853,truck,truck,2-10-10,0623_eid_s03_2-10-10_truck_10_n03417042_17616.png
subject-03,1,624,1.5,cat,keyboard,32-10-10,0624_eid_s03_32-10-10_keyboard_10_n04505470_5036.png
subject-03,1,625,0.639871835708618,chair,chair,1-10-10,0625_eid_s03_1-10-10_chair_10_n04099969_5524.png
subject-03,1,626,1.0116012096405,cat,car,64-10-10,0626_eid_s03_64-10-10_car_10_n04285008_3280.png
subject-03,1,627,0.74708104133606,clock,clock,4-10-10,0627_eid_s03_4-10-10_clock_10_n04548280_2778.png
subject-03,1,628,0.930848836898804,car,car,4-10-10,0628_eid_s03_4-10-10_car_10_n03100240_8702.png
subject-03,1,629,1.20095705986023,bird,clock,32-10-10,0629_eid_s03_32-10-10_clock_10_n03196217_3951.png
subject-03,1,630,0.988576173782349,bottle,knife,8-10-10,0630_eid_s03_8-10-10_knife_10_n03041632_19098.png
subject-03,1,631,0.794761896133423,truck,truck,1-10-10,0631_eid_s03_1-10-10_truck_10_n03796401_874.png
subject-03,1,632,1.50011706352234,bear,bear,64-10-10,0632_eid_s03_64-10-10_bear_10_n02133161_3533.png
subject-03,1,633,0.634013891220093,clock,clock,2-10-10,0633_eid_s03_2-10-10_clock_10_n03196217_1706.png
subject-03,1,634,1.3636908531189,bear,elephant,128-10-10,0634_eid_s03_128-10-10_elephant_10_n02504458_2026.png
subject-03,1,635,1.23148703575134,elephant,bottle,64-10-10,0635_eid_s03_64-10-10_bottle_10_n02823428_6418.png
subject-03,1,636,0.80978798866272,bear,bear,2-10-10,0636_eid_s03_2-10-10_bear_10_n02134418_4352.png
subject-03,1,637,0.985705852508545,bird,airplane,32-10-10,0637_eid_s03_32-10-10_airplane_10_n02690373_4588.png
subject-03,1,638,1.01319599151611,bicycle,bicycle,8-10-10,0638_eid_s03_8-10-10_bicycle_10_n02835271_19955.png
subject-03,1,639,1.13487195968628,cat,knife,64-10-10,0639_eid_s03_64-10-10_knife_10_n03041632_6708.png
subject-03,1,640,0.814742803573608,car,car,1-10-10,0640_eid_s03_1-10-10_car_10_n04285008_2727.png
subject-03,1,641,0.984240055084229,truck,truck,2-10-10,0641_eid_s03_2-10-10_truck_10_n03796401_6966.png
subject-03,1,642,1.50006294250488,knife,clock,8-10-10,0642_eid_s03_8-10-10_clock_10_n04548280_4599.png
subject-03,1,643,1.05795812606812,knife,knife,2-10-10,0643_eid_s03_2-10-10_knife_10_n03041632_51339.png
subject-03,1,644,1.02777695655823,bicycle,bicycle,4-10-10,0644_eid_s03_4-10-10_bicycle_10_n03792782_4207.png
subject-03,1,645,1.20551013946533,keyboard,clock,8-10-10,0645_eid_s03_8-10-10_clock_10_n04548280_1.png
subject-03,1,646,1.07329607009888,bicycle,chair,64-10-10,0646_eid_s03_64-10-10_chair_10_n02791124_3656.png
subject-03,1,647,0.889564037322998,boat,elephant,128-10-10,0647_eid_s03_128-10-10_elephant_10_n02504013_1698.png
subject-03,1,648,0.96915602684021,boat,clock,128-10-10,0648_eid_s03_128-10-10_clock_10_n03196217_11714.png
subject-03,1,649,0.722881078720093,boat,boat,1-10-10,0649_eid_s03_1-10-10_boat_10_n04612504_214.png
subject-03,1,650,1.05684995651245,keyboard,oven,8-10-10,0650_eid_s03_8-10-10_oven_10_n04111531_4809.png
subject-03,1,651,1.19448518753052,bicycle,bicycle,2-10-10,0651_eid_s03_2-10-10_bicycle_10_n03792782_11720.png
subject-03,1,652,1.04236006736755,elephant,elephant,32-10-10,0652_eid_s03_32-10-10_elephant_10_n02504013_12531.png
subject-03,1,653,1.00811314582825,cat,clock,64-10-10,0653_eid_s03_64-10-10_clock_10_n02708093_5127.png
subject-03,1,654,0.879899024963379,keyboard,keyboard,32-10-10,0654_eid_s03_32-10-10_keyboard_10_n04505470_4486.png
subject-03,1,655,1.22981595993042,oven,truck,32-10-10,0655_eid_s03_32-10-10_truck_10_n03417042_4200.png
subject-03,1,656,0.877816200256348,bicycle,bicycle,8-10-10,0656_eid_s03_8-10-10_bicycle_10_n02835271_12957.png
subject-03,1,657,0.83341908454895,bird,bird,2-10-10,0657_eid_s03_2-10-10_bird_10_n02027492_10281.png
subject-03,1,658,0.839179039001465,keyboard,keyboard,2-10-10,0658_eid_s03_2-10-10_keyboard_10_n03085013_4780.png
subject-03,1,659,1.14116597175598,knife,chair,16-10-10,0659_eid_s03_16-10-10_chair_10_n02791124_1140.png
subject-03,1,660,0.803234815597534,cat,cat,2-10-10,0660_eid_s03_2-10-10_cat_10_n02124075_17347.png
subject-03,1,661,0.774647951126099,car,car,8-10-10,0661_eid_s03_8-10-10_car_10_n03100240_1262.png
subject-03,1,662,0.732376098632812,boat,boat,2-10-10,0662_eid_s03_2-10-10_boat_10_n03344393_2254.png
subject-03,1,663,0.972031116485596,clock,clock,32-10-10,0663_eid_s03_32-10-10_clock_10_n03196217_3167.png
subject-03,1,664,0.782073974609375,chair,chair,2-10-10,0664_eid_s03_2-10-10_chair_10_n02791124_8711.png
subject-03,1,665,1.0317850112915,cat,bottle,32-10-10,0665_eid_s03_32-10-10_bottle_10_n03983396_4321.png
subject-03,1,666,0.799674034118652,airplane,airplane,2-10-10,0666_eid_s03_2-10-10_airplane_10_n02690373_5748.png
subject-03,1,667,1.31360411643982,chair,chair,32-10-10,0667_eid_s03_32-10-10_chair_10_n04429376_7123.png
subject-03,1,668,0.915121793746948,boat,boat,8-10-10,0668_eid_s03_8-10-10_boat_10_n03662601_12670.png
subject-03,1,669,0.777004957199097,car,truck,1-10-10,0669_eid_s03_1-10-10_truck_10_n03796401_2552.png
subject-03,1,670,1.12281894683838,dog,car,32-10-10,0670_eid_s03_32-10-10_car_10_n02814533_46403.png
subject-03,1,671,0.726659059524536,cat,cat,32-10-10,0671_eid_s03_32-10-10_cat_10_n02123045_10171.png
subject-03,1,672,0.730448007583618,cat,cat,128-10-10,0672_eid_s03_128-10-10_cat_10_n02124075_8320.png
subject-03,1,673,0.946261882781982,dog,dog,32-10-10,0673_eid_s03_32-10-10_dog_10_n02107908_2313.png
subject-03,1,674,0.798086881637573,keyboard,keyboard,1-10-10,0674_eid_s03_1-10-10_keyboard_10_n03085013_22719.png
subject-03,1,675,0.831979990005493,car,car,1-10-10,0675_eid_s03_1-10-10_car_10_n03100240_18270.png
subject-03,1,676,1.00380897521973,bottle,oven,1-10-10,0676_eid_s03_1-10-10_oven_10_n04111531_2385.png
subject-03,1,677,1.08785200119019,car,car,4-10-10,0677_eid_s03_4-10-10_car_10_n03100240_5709.png
subject-03,1,678,0.899428844451904,dog,dog,2-10-10,0678_eid_s03_2-10-10_dog_10_n02092002_2008.png
subject-03,1,679,0.849110126495361,bottle,bottle,4-10-10,0679_eid_s03_4-10-10_bottle_10_n04579145_1856.png
subject-03,1,680,0.876952886581421,car,car,2-10-10,0680_eid_s03_2-10-10_car_10_n04285008_16701.png
subject-03,1,681,0.772938013076782,boat,boat,4-10-10,0681_eid_s03_4-10-10_boat_10_n04273569_1023.png
subject-03,1,682,0.67684006690979,clock,clock,4-10-10,0682_eid_s03_4-10-10_clock_10_n02708093_2869.png
subject-03,1,683,0.728469133377075,cat,cat,4-10-10,0683_eid_s03_4-10-10_cat_10_n02125311_27989.png
subject-03,1,684,1.09474802017212,bear,oven,64-10-10,0684_eid_s03_64-10-10_oven_10_n04111531_25647.png
subject-03,1,685,0.808013916015625,airplane,airplane,1-10-10,0685_eid_s03_1-10-10_airplane_10_n02690373_18848.png
subject-03,1,686,0.723711967468262,bicycle,bicycle,2-10-10,0686_eid_s03_2-10-10_bicycle_10_n03792782_25352.png
subject-03,1,687,0.883867979049683,elephant,elephant,16-10-10,0687_eid_s03_16-10-10_elephant_10_n02504458_4708.png
subject-03,1,688,0.713536024093628,keyboard,keyboard,1-10-10,0688_eid_s03_1-10-10_keyboard_10_n04505470_2881.png
subject-03,1,689,0.703845977783203,truck,truck,2-10-10,0689_eid_s03_2-10-10_truck_10_n04467665_55499.png
subject-03,1,690,1.293133020401,keyboard,oven,4-10-10,0690_eid_s03_4-10-10_oven_10_n04111531_523.png
subject-03,1,691,0.924874067306519,bird,oven,32-10-10,0691_eid_s03_32-10-10_oven_10_n04111531_6695.png
subject-03,1,692,0.690907001495361,cat,keyboard,32-10-10,0692_eid_s03_32-10-10_keyboard_10_n03085013_23814.png
subject-03,1,693,0.696726083755493,cat,cat,16-10-10,0693_eid_s03_16-10-10_cat_10_n02123045_3568.png
subject-03,1,694,0.688375949859619,dog,dog,2-10-10,0694_eid_s03_2-10-10_dog_10_n02102177_7637.png
subject-03,1,695,0.714375019073486,bird,bird,2-10-10,0695_eid_s03_2-10-10_bird_10_n02009912_18125.png
subject-03,1,696,0.888175010681152,knife,knife,4-10-10,0696_eid_s03_4-10-10_knife_10_n03041632_25331.png
subject-03,1,697,0.903995990753174,bird,bird,64-10-10,0697_eid_s03_64-10-10_bird_10_n02051845_534.png
subject-03,1,698,0.702152967453003,cat,cat,16-10-10,0698_eid_s03_16-10-10_cat_10_n02123159_2455.png
subject-03,1,699,0.949504852294922,boat,bird,16-10-10,0699_eid_s03_16-10-10_bird_10_n02009229_5090.png
subject-03,1,700,1.06922101974487,bicycle,airplane,8-10-10,0700_eid_s03_8-10-10_airplane_10_n02690373_1386.png
subject-03,1,701,0.733002901077271,cat,cat,2-10-10,0701_eid_s03_2-10-10_cat_10_n02123045_3593.png
subject-03,1,702,0.972939968109131,car,car,4-10-10,0702_eid_s03_4-10-10_car_10_n04285008_2081.png
subject-03,1,703,1.19465684890747,chair,oven,8-10-10,0703_eid_s03_8-10-10_oven_10_n04111531_458.png
subject-03,1,704,0.970481157302856,dog,cat,16-10-10,0704_eid_s03_16-10-10_cat_10_n02123159_6954.png
subject-03,1,705,0.654330015182495,clock,clock,8-10-10,0705_eid_s03_8-10-10_clock_10_n03196217_6831.png
subject-03,1,706,1.3084409236908,boat,bear,64-10-10,0706_eid_s03_64-10-10_bear_10_n02132136_6002.png
subject-03,1,707,0.821958065032959,car,car,2-10-10,0707_eid_s03_2-10-10_car_10_n03100240_7066.png
subject-03,1,708,1.10391187667847,cat,car,128-10-10,0708_eid_s03_128-10-10_car_10_n03100240_6259.png
subject-03,1,709,0.989827871322632,dog,dog,4-10-10,0709_eid_s03_4-10-10_dog_10_n02086079_2896.png
subject-03,1,710,1.06129908561707,elephant,elephant,2-10-10,0710_eid_s03_2-10-10_elephant_10_n02504458_14308.png
subject-03,1,711,0.953252077102661,bird,bird,4-10-10,0711_eid_s03_4-10-10_bird_10_n01560419_5466.png
subject-03,1,712,0.969106912612915,oven,truck,32-10-10,0712_eid_s03_32-10-10_truck_10_n03417042_28832.png
subject-03,1,713,0.848974943161011,keyboard,keyboard,1-10-10,0713_eid_s03_1-10-10_keyboard_10_n04505470_4668.png
subject-03,1,714,1.17268514633179,cat,clock,128-10-10,0714_eid_s03_128-10-10_clock_10_n02708093_2845.png
subject-03,1,715,0.740494966506958,cat,knife,64-10-10,0715_eid_s03_64-10-10_knife_10_n03041632_17091.png
subject-03,1,716,1.27628993988037,boat,boat,8-10-10,0716_eid_s03_8-10-10_boat_10_n02951358_34653.png
subject-03,1,717,0.684496879577637,cat,cat,1-10-10,0717_eid_s03_1-10-10_cat_10_n02123159_12734.png
subject-03,1,718,1.35190796852112,bear,bird,16-10-10,0718_eid_s03_16-10-10_bird_10_n01818515_4663.png
subject-03,1,719,0.981698989868164,cat,cat,16-10-10,0719_eid_s03_16-10-10_cat_10_n02123045_5157.png
subject-03,1,720,0.61995792388916,boat,boat,2-10-10,0720_eid_s03_2-10-10_boat_10_n02951358_29724.png
subject-03,1,721,0.825117826461792,bear,bear,1-10-10,0721_eid_s03_1-10-10_bear_10_n02133161_2970.png
subject-03,1,722,0.958945035934448,cat,bottle,16-10-10,0722_eid_s03_16-10-10_bottle_10_n04557648_3599.png
subject-03,1,723,0.688864946365356,boat,boat,1-10-10,0723_eid_s03_1-10-10_boat_10_n03662601_21775.png
subject-03,1,724,1.06247210502625,bird,bird,4-10-10,0724_eid_s03_4-10-10_bird_10_n01530575_35977.png
subject-03,1,725,1.00054383277893,bird,bird,4-10-10,0725_eid_s03_4-10-10_bird_10_n01534433_10234.png
subject-03,1,726,1.03428888320923,bear,bicycle,16-10-10,0726_eid_s03_16-10-10_bicycle_10_n03792782_7688.png
subject-03,1,727,0.882081985473633,elephant,elephant,8-10-10,0727_eid_s03_8-10-10_elephant_10_n02504013_4957.png
subject-03,1,728,0.825953006744385,cat,oven,4-10-10,0728_eid_s03_4-10-10_oven_10_n04111531_9712.png
subject-03,1,729,1.17169094085693,dog,bear,16-10-10,0729_eid_s03_16-10-10_bear_10_n02134418_2714.png
subject-03,1,730,1.18938398361206,elephant,elephant,64-10-10,0730_eid_s03_64-10-10_elephant_10_n02504013_2974.png
subject-03,1,731,0.997185230255127,keyboard,keyboard,8-10-10,0731_eid_s03_8-10-10_keyboard_10_n03085013_7971.png
subject-03,1,732,0.810991048812866,cat,keyboard,128-10-10,0732_eid_s03_128-10-10_keyboard_10_n03085013_6067.png
subject-03,1,733,1.20283102989197,elephant,chair,128-10-10,0733_eid_s03_128-10-10_chair_10_n04099969_5233.png
subject-03,1,734,0.928877115249634,car,car,4-10-10,0734_eid_s03_4-10-10_car_10_n03100240_2235.png
subject-03,1,735,0.910616159439087,boat,boat,1-10-10,0735_eid_s03_1-10-10_boat_10_n03662601_24208.png
subject-03,1,736,1.06265187263489,knife,knife,1-10-10,0736_eid_s03_1-10-10_knife_10_n03041632_9488.png
subject-03,1,737,0.90851092338562,boat,boat,2-10-10,0737_eid_s03_2-10-10_boat_10_n02951358_2350.png
subject-03,1,738,0.979872941970825,bird,chair,32-10-10,0738_eid_s03_32-10-10_chair_10_n04099969_25327.png
subject-03,1,739,1.02611207962036,truck,truck,4-10-10,0739_eid_s03_4-10-10_truck_10_n04467665_10025.png
subject-03,1,740,0.849947929382324,oven,oven,1-10-10,0740_eid_s03_1-10-10_oven_10_n04111531_6172.png
subject-03,1,741,0.889376878738403,bottle,bottle,2-10-10,0741_eid_s03_2-10-10_bottle_10_n03937543_4450.png
subject-03,1,742,0.979317903518677,cat,keyboard,128-10-10,0742_eid_s03_128-10-10_keyboard_10_n03085013_23030.png
subject-03,1,743,0.984959125518799,elephant,elephant,16-10-10,0743_eid_s03_16-10-10_elephant_10_n02504458_3458.png
subject-03,1,744,0.814854145050049,boat,boat,8-10-10,0744_eid_s03_8-10-10_boat_10_n04273569_31172.png
subject-03,1,745,0.726656913757324,car,car,4-10-10,0745_eid_s03_4-10-10_car_10_n02814533_4087.png
subject-03,1,746,0.996365070343018,cat,cat,2-10-10,0746_eid_s03_2-10-10_cat_10_n02125311_9318.png
subject-03,1,747,1.17029094696045,bird,bird,32-10-10,0747_eid_s03_32-10-10_bird_10_n01622779_66.png
subject-03,1,748,1.06641101837158,cat,bottle,16-10-10,0748_eid_s03_16-10-10_bottle_10_n04557648_1360.png
subject-03,1,749,1.2979211807251,dog,truck,8-10-10,0749_eid_s03_8-10-10_truck_10_n03796401_17201.png
subject-03,1,750,0.86369800567627,boat,chair,8-10-10,0750_eid_s03_8-10-10_chair_10_n02791124_5319.png
subject-03,1,751,1.06580400466919,truck,truck,1-10-10,0751_eid_s03_1-10-10_truck_10_n04467665_21969.png
subject-03,1,752,0.967257976531982,cat,cat,16-10-10,0752_eid_s03_16-10-10_cat_10_n02123394_12.png
subject-03,1,753,0.887479066848755,cat,clock,128-10-10,0753_eid_s03_128-10-10_clock_10_n02708093_7054.png
subject-03,1,754,1.0089750289917,cat,chair,64-10-10,0754_eid_s03_64-10-10_chair_10_n03376595_4820.png
subject-03,1,755,1.11098289489746,boat,bird,128-10-10,0755_eid_s03_128-10-10_bird_10_n01833805_8028.png
subject-03,1,756,0.756630897521973,boat,boat,4-10-10,0756_eid_s03_4-10-10_boat_10_n03344393_11788.png
subject-03,1,757,0.918227195739746,oven,oven,2-10-10,0757_eid_s03_2-10-10_oven_10_n04111531_8818.png
subject-03,1,758,1.11254787445068,knife,knife,4-10-10,0758_eid_s03_4-10-10_knife_10_n03041632_23678.png
subject-03,1,759,1.1999409198761,boat,airplane,64-10-10,0759_eid_s03_64-10-10_airplane_10_n02690373_1862.png
subject-03,1,760,0.751916885375977,bird,bird,2-10-10,0760_eid_s03_2-10-10_bird_10_n01530575_5747.png
subject-03,1,761,1.06982707977295,boat,airplane,64-10-10,0761_eid_s03_64-10-10_airplane_10_n02690373_5100.png
subject-03,1,762,1.09750890731812,chair,chair,4-10-10,0762_eid_s03_4-10-10_chair_10_n04429376_57014.png
subject-03,1,763,1.27732706069946,knife,knife,16-10-10,0763_eid_s03_16-10-10_knife_10_n03041632_32177.png
subject-03,1,764,0.883080959320068,boat,boat,4-10-10,0764_eid_s03_4-10-10_boat_10_n03344393_1422.png
subject-03,1,765,0.973274946212769,boat,airplane,64-10-10,0765_eid_s03_64-10-10_airplane_10_n02690373_2026.png
subject-03,1,766,1.0926570892334,bird,bird,8-10-10,0766_eid_s03_8-10-10_bird_10_n01560419_7909.png
subject-03,1,767,0.938591003417969,car,car,1-10-10,0767_eid_s03_1-10-10_car_10_n02814533_73067.png
subject-03,1,768,0.9042649269104,bottle,bottle,2-10-10,0768_eid_s03_2-10-10_bottle_10_n04579145_3415.png
subject-03,1,769,1.25610017776489,airplane,boat,64-10-10,0769_eid_s03_64-10-10_boat_10_n04273569_13401.png
subject-03,1,770,1.18382692337036,bird,dog,128-10-10,0770_eid_s03_128-10-10_dog_10_n02096294_1260.png
subject-03,1,771,1.50015115737915,bicycle,cat,128-10-10,0771_eid_s03_128-10-10_cat_10_n02123159_8101.png
subject-03,1,772,0.935795783996582,bicycle,airplane,32-10-10,0772_eid_s03_32-10-10_airplane_10_n02690373_3492.png
subject-03,1,773,0.819486856460571,cat,cat,2-10-10,0773_eid_s03_2-10-10_cat_10_n02123045_2364.png
subject-03,1,774,1.17330288887024,bird,bird,32-10-10,0774_eid_s03_32-10-10_bird_10_n01819313_1422.png
subject-03,1,775,0.785047054290771,dog,dog,2-10-10,0775_eid_s03_2-10-10_dog_10_n02110185_11605.png
subject-03,1,776,1.02296185493469,oven,oven,64-10-10,0776_eid_s03_64-10-10_oven_10_n04111531_14126.png
subject-03,1,777,1.08260798454285,bird,dog,32-10-10,0777_eid_s03_32-10-10_dog_10_n02099849_4640.png
subject-03,1,778,0.970464944839478,bird,bird,1-10-10,0778_eid_s03_1-10-10_bird_10_n01843065_1179.png
subject-03,1,779,0.914230108261108,airplane,airplane,1-10-10,0779_eid_s03_1-10-10_airplane_10_n02690373_10210.png
subject-03,1,780,0.962003946304321,cat,boat,16-10-10,0780_eid_s03_16-10-10_boat_10_n04273569_31564.png
subject-03,1,781,0.866338968276978,keyboard,keyboard,2-10-10,0781_eid_s03_2-10-10_keyboard_10_n03085013_13005.png
subject-03,1,782,0.883847951889038,car,car,16-10-10,0782_eid_s03_16-10-10_car_10_n04285008_10893.png
subject-03,1,783,0.927926778793335,bottle,bottle,4-10-10,0783_eid_s03_4-10-10_bottle_10_n03983396_3028.png
subject-03,1,784,1.00542402267456,cat,knife,32-10-10,0784_eid_s03_32-10-10_knife_10_n03041632_10109.png
subject-03,1,785,0.881195068359375,bicycle,bicycle,1-10-10,0785_eid_s03_1-10-10_bicycle_10_n02835271_2930.png
subject-03,1,786,1.13494682312012,bird,airplane,128-10-10,0786_eid_s03_128-10-10_airplane_10_n02690373_17307.png
subject-03,1,787,1.13908505439758,boat,car,32-10-10,0787_eid_s03_32-10-10_car_10_n04285008_8838.png
subject-03,1,788,1.01460289955139,bear,keyboard,64-10-10,0788_eid_s03_64-10-10_keyboard_10_n04505470_7388.png
subject-03,1,789,1.01866292953491,dog,cat,16-10-10,0789_eid_s03_16-10-10_cat_10_n02123597_624.png
subject-03,1,790,1.31445789337158,elephant,elephant,1-10-10,0790_eid_s03_1-10-10_elephant_10_n02504458_7063.png
subject-03,1,791,0.94226598739624,elephant,elephant,2-10-10,0791_eid_s03_2-10-10_elephant_10_n02504013_466.png
subject-03,1,792,0.787785053253174,boat,boat,4-10-10,0792_eid_s03_4-10-10_boat_10_n03662601_10589.png
subject-03,1,793,1.50014185905457,clock,clock,8-10-10,0793_eid_s03_8-10-10_clock_10_n04548280_1809.png
subject-03,1,794,0.959500074386597,truck,truck,8-10-10,0794_eid_s03_8-10-10_truck_10_n03417042_11037.png
subject-03,1,795,1.11769485473633,boat,airplane,32-10-10,0795_eid_s03_32-10-10_airplane_10_n02690373_7908.png
subject-03,1,796,0.913228034973145,airplane,airplane,8-10-10,0796_eid_s03_8-10-10_airplane_10_n02690373_1360.png
subject-03,1,797,1.08288598060608,bear,bicycle,64-10-10,0797_eid_s03_64-10-10_bicycle_10_n02835271_15617.png
subject-03,1,798,1.00878095626831,chair,knife,1-10-10,0798_eid_s03_1-10-10_knife_10_n03041632_52929.png
subject-03,1,799,1.1124439239502,knife,knife,1-10-10,0799_eid_s03_1-10-10_knife_10_n03041632_31849.png
subject-03,1,800,1.09686708450317,oven,oven,8-10-10,0800_eid_s03_8-10-10_oven_10_n04111531_15710.png
subject-03,1,801,1.10599708557129,cat,bicycle,128-10-10,0801_eid_s03_128-10-10_bicycle_10_n02835271_26639.png
subject-03,1,802,1.0899920463562,keyboard,keyboard,4-10-10,0802_eid_s03_4-10-10_keyboard_10_n03085013_22949.png
subject-03,1,803,1.07597303390503,bird,clock,64-10-10,0803_eid_s03_64-10-10_clock_10_n03196217_6289.png
subject-03,1,804,1.0715479850769,bottle,oven,4-10-10,0804_eid_s03_4-10-10_oven_10_n04111531_15052.png
subject-03,1,805,1.111407995224,bird,oven,64-10-10,0805_eid_s03_64-10-10_oven_10_n04111531_5038.png
subject-03,1,806,0.873148918151855,keyboard,keyboard,8-10-10,0806_eid_s03_8-10-10_keyboard_10_n03085013_8296.png
subject-03,1,807,1.16080403327942,boat,clock,64-10-10,0807_eid_s03_64-10-10_clock_10_n03196217_8072.png
subject-03,1,808,1.31479406356812,truck,truck,16-10-10,0808_eid_s03_16-10-10_truck_10_n03417042_4664.png
subject-03,1,809,0.912531137466431,bear,bear,1-10-10,0809_eid_s03_1-10-10_bear_10_n02133161_5653.png
subject-03,1,810,1.50004911422729,cat,bottle,64-10-10,0810_eid_s03_64-10-10_bottle_10_n03937543_4863.png
subject-03,1,811,0.912260055541992,boat,boat,4-10-10,0811_eid_s03_4-10-10_boat_10_n03662601_81.png
subject-03,1,812,1.13620090484619,car,car,1-10-10,0812_eid_s03_1-10-10_car_10_n03100240_16766.png
subject-03,1,813,1.1597888469696,bird,bear,16-10-10,0813_eid_s03_16-10-10_bear_10_n02134418_1663.png
subject-03,1,814,1.45974493026733,airplane,oven,4-10-10,0814_eid_s03_4-10-10_oven_10_n04111531_11499.png
subject-03,1,815,1.17753505706787,bear,truck,64-10-10,0815_eid_s03_64-10-10_truck_10_n04467665_4401.png
subject-03,1,816,1.11927318572998,knife,knife,32-10-10,0816_eid_s03_32-10-10_knife_10_n03041632_3717.png
subject-03,1,817,0.985165119171143,bear,bear,1-10-10,0817_eid_s03_1-10-10_bear_10_n02134418_5418.png
subject-03,1,818,1.14894199371338,bicycle,bird,16-10-10,0818_eid_s03_16-10-10_bird_10_n02033041_7229.png
subject-03,1,819,1.27867794036865,bottle,bottle,32-10-10,0819_eid_s03_32-10-10_bottle_10_n04579145_2303.png
subject-03,1,820,1.00252103805542,elephant,elephant,2-10-10,0820_eid_s03_2-10-10_elephant_10_n02504013_2075.png
subject-03,1,821,1.17640089988708,knife,knife,1-10-10,0821_eid_s03_1-10-10_knife_10_n03041632_32350.png
subject-03,1,822,1.32844805717468,oven,chair,32-10-10,0822_eid_s03_32-10-10_chair_10_n04429376_27524.png
subject-03,1,823,1.50017595291138,dog,bottle,128-10-10,0823_eid_s03_128-10-10_bottle_10_n02823428_3414.png
subject-03,1,824,1.34558415412903,cat,airplane,128-10-10,0824_eid_s03_128-10-10_airplane_10_n02690373_9963.png
subject-03,1,825,1.40944910049438,boat,knife,64-10-10,0825_eid_s03_64-10-10_knife_10_n03041632_33326.png
subject-03,1,826,1.40133500099182,keyboard,knife,8-10-10,0826_eid_s03_8-10-10_knife_10_n03041632_96714.png
subject-03,1,827,1.23524689674377,bird,bird,2-10-10,0827_eid_s03_2-10-10_bird_10_n01622779_6563.png
subject-03,1,828,1.22101092338562,dog,clock,4-10-10,0828_eid_s03_4-10-10_clock_10_n04548280_4275.png
subject-03,1,829,1.41292405128479,knife,bicycle,128-10-10,0829_eid_s03_128-10-10_bicycle_10_n02835271_2651.png
subject-03,1,830,1.25276207923889,airplane,airplane,1-10-10,0830_eid_s03_1-10-10_airplane_10_n02690373_3928.png
subject-03,1,831,1.0884370803833,bicycle,bicycle,2-10-10,0831_eid_s03_2-10-10_bicycle_10_n02835271_1573.png
subject-03,1,832,1.50000095367432,car,car,32-10-10,0832_eid_s03_32-10-10_car_10_n03100240_20061.png
subject-03,1,833,1.20446920394897,keyboard,keyboard,2-10-10,0833_eid_s03_2-10-10_keyboard_10_n04505470_4368.png
subject-03,1,834,1.30205297470093,cat,oven,32-10-10,0834_eid_s03_32-10-10_oven_10_n04111531_22715.png
subject-03,1,835,1.22790098190308,knife,knife,1-10-10,0835_eid_s03_1-10-10_knife_10_n03041632_8468.png
subject-03,1,836,1.12395215034485,car,car,1-10-10,0836_eid_s03_1-10-10_car_10_n03100240_9019.png
subject-03,1,837,1.09575295448303,boat,boat,4-10-10,0837_eid_s03_4-10-10_boat_10_n02951358_30184.png
subject-03,1,838,0.857205867767334,chair,chair,2-10-10,0838_eid_s03_2-10-10_chair_10_n03376595_1766.png
subject-03,1,839,1.24120402336121,bear,bicycle,64-10-10,0839_eid_s03_64-10-10_bicycle_10_n03792782_14492.png
subject-03,1,840,0.932752132415771,bottle,bottle,4-10-10,0840_eid_s03_4-10-10_bottle_10_n02823428_4172.png
subject-03,1,841,1.35856008529663,chair,knife,128-10-10,0841_eid_s03_128-10-10_knife_10_n03041632_1556.png
subject-03,1,842,1.0404040813446,knife,knife,8-10-10,0842_eid_s03_8-10-10_knife_10_n03041632_24817.png
subject-03,1,843,1.42617416381836,car,car,16-10-10,0843_eid_s03_16-10-10_car_10_n02814533_7247.png
subject-03,1,844,1.14245104789734,knife,knife,8-10-10,0844_eid_s03_8-10-10_knife_10_n03041632_23803.png
subject-03,1,845,0.932158946990967,oven,oven,1-10-10,0845_eid_s03_1-10-10_oven_10_n04111531_17072.png
subject-03,1,846,1.1756579875946,bear,clock,128-10-10,0846_eid_s03_128-10-10_clock_10_n02708093_7883.png
subject-03,1,847,1.25944209098816,chair,chair,1-10-10,0847_eid_s03_1-10-10_chair_10_n03376595_3824.png
subject-03,1,848,1.33137893676758,bear,bear,64-10-10,0848_eid_s03_64-10-10_bear_10_n02132136_31664.png
subject-03,1,849,1.22721099853516,boat,bird,64-10-10,0849_eid_s03_64-10-10_bird_10_n01532829_20405.png
subject-03,1,850,1.25100207328796,oven,chair,16-10-10,0850_eid_s03_16-10-10_chair_10_n02791124_4294.png
subject-03,1,851,1.37069892883301,chair,clock,64-10-10,0851_eid_s03_64-10-10_clock_10_n03196217_9065.png
subject-03,1,852,0.872482061386108,airplane,airplane,4-10-10,0852_eid_s03_4-10-10_airplane_10_n02690373_10044.png
subject-03,1,853,1.05024003982544,bicycle,bicycle,4-10-10,0853_eid_s03_4-10-10_bicycle_10_n03792782_15627.png
subject-03,1,854,1.17860293388367,elephant,elephant,2-10-10,0854_eid_s03_2-10-10_elephant_10_n02504458_5614.png
subject-03,1,855,0.924144983291626,boat,boat,1-10-10,0855_eid_s03_1-10-10_boat_10_n04273569_1495.png
subject-03,1,856,1.38771295547485,bird,car,128-10-10,0856_eid_s03_128-10-10_car_10_n04285008_12169.png
subject-03,1,857,1.25165009498596,chair,chair,2-10-10,0857_eid_s03_2-10-10_chair_10_n04429376_55747.png
subject-03,1,858,1.28541994094849,elephant,elephant,16-10-10,0858_eid_s03_16-10-10_elephant_10_n02504013_3295.png
subject-03,1,859,1.16330599784851,bird,bird,4-10-10,0859_eid_s03_4-10-10_bird_10_n01558993_4801.png
subject-03,1,860,1.26510691642761,cat,keyboard,128-10-10,0860_eid_s03_128-10-10_keyboard_10_n03085013_24963.png
subject-03,1,861,1.50013399124146,airplane,truck,1-10-10,0861_eid_s03_1-10-10_truck_10_n03417042_11475.png
subject-03,1,862,0.77866792678833,chair,chair,2-10-10,0862_eid_s03_2-10-10_chair_10_n04099969_2020.png
subject-03,1,863,1.38261198997498,bear,chair,128-10-10,0863_eid_s03_128-10-10_chair_10_n03376595_2891.png
subject-03,1,864,0.834686994552612,cat,cat,8-10-10,0864_eid_s03_8-10-10_cat_10_n02123159_7210.png
subject-03,1,865,0.770044088363647,clock,clock,16-10-10,0865_eid_s03_16-10-10_clock_10_n04548280_9700.png
subject-03,1,866,1.00194597244263,bottle,bottle,1-10-10,0866_eid_s03_1-10-10_bottle_10_n03983396_8322.png
subject-03,1,867,1.48366689682007,bottle,bottle,8-10-10,0867_eid_s03_8-10-10_bottle_10_n04560804_4909.png
subject-03,1,868,1.29748010635376,bear,oven,32-10-10,0868_eid_s03_32-10-10_oven_10_n04111531_4879.png
subject-03,1,869,1.25532698631287,bottle,dog,32-10-10,0869_eid_s03_32-10-10_dog_10_n02094114_8202.png
subject-03,1,870,1.35148692131042,boat,bear,8-10-10,0870_eid_s03_8-10-10_bear_10_n02132136_3196.png
subject-03,1,871,1.50011396408081,dog,dog,4-10-10,0871_eid_s03_4-10-10_dog_10_n02102973_13.png
subject-03,1,872,1.03497099876404,car,car,8-10-10,0872_eid_s03_8-10-10_car_10_n04285008_12589.png
subject-03,1,873,1.13666081428528,bottle,airplane,16-10-10,0873_eid_s03_16-10-10_airplane_10_n02690373_17603.png
subject-03,1,874,0.896292924880981,cat,dog,32-10-10,0874_eid_s03_32-10-10_dog_10_n02102040_2743.png
subject-03,1,875,1.00232601165771,truck,truck,2-10-10,0875_eid_s03_2-10-10_truck_10_n03417042_14274.png
subject-03,1,876,0.932276964187622,dog,dog,8-10-10,0876_eid_s03_8-10-10_dog_10_n02105641_10264.png
subject-03,1,877,1.11600804328918,cat,oven,128-10-10,0877_eid_s03_128-10-10_oven_10_n04111531_2796.png
subject-03,1,878,1.5001220703125,bicycle,dog,16-10-10,0878_eid_s03_16-10-10_dog_10_n02109047_14287.png
subject-03,1,879,1.24963903427124,bicycle,boat,8-10-10,0879_eid_s03_8-10-10_boat_10_n03662601_10278.png
subject-03,1,880,0.993242979049683,car,car,2-10-10,0880_eid_s03_2-10-10_car_10_n02814533_59053.png
subject-03,1,881,1.02709913253784,chair,chair,8-10-10,0881_eid_s03_8-10-10_chair_10_n04429376_16923.png
subject-03,1,882,1.10307502746582,bear,bear,4-10-10,0882_eid_s03_4-10-10_bear_10_n02134084_38915.png
subject-03,1,883,1.05261397361755,dog,dog,4-10-10,0883_eid_s03_4-10-10_dog_10_n02097130_4088.png
subject-03,1,884,1.13867998123169,bottle,bottle,8-10-10,0884_eid_s03_8-10-10_bottle_10_n04591713_1616.png
subject-03,1,885,1.44836497306824,bird,bird,128-10-10,0885_eid_s03_128-10-10_bird_10_n01616318_2334.png
subject-03,1,886,1.0622661113739,bicycle,bicycle,2-10-10,0886_eid_s03_2-10-10_bicycle_10_n02835271_634.png
subject-03,1,887,1.37188220024109,dog,airplane,64-10-10,0887_eid_s03_64-10-10_airplane_10_n02690373_4845.png
subject-03,1,888,1.10968995094299,airplane,airplane,8-10-10,0888_eid_s03_8-10-10_airplane_10_n02690373_3032.png
subject-03,1,889,0.881772041320801,clock,clock,2-10-10,0889_eid_s03_2-10-10_clock_10_n04548280_3295.png
subject-03,1,890,1.16147613525391,truck,truck,2-10-10,0890_eid_s03_2-10-10_truck_10_n03796401_13992.png
subject-03,1,891,1.29110813140869,bear,boat,64-10-10,0891_eid_s03_64-10-10_boat_10_n03662601_27960.png
subject-03,1,892,1.33127593994141,chair,dog,128-10-10,0892_eid_s03_128-10-10_dog_10_n02091244_8368.png
subject-03,1,893,1.28909802436829,knife,knife,8-10-10,0893_eid_s03_8-10-10_knife_10_n03041632_21034.png
subject-03,1,894,1.14845609664917,elephant,elephant,4-10-10,0894_eid_s03_4-10-10_elephant_10_n02504458_6185.png
subject-03,1,895,1.09860992431641,elephant,elephant,8-10-10,0895_eid_s03_8-10-10_elephant_10_n02504458_4593.png
subject-03,1,896,0.598343133926392,clock,clock,1-10-10,0896_eid_s03_1-10-10_clock_10_n02708093_8002.png
subject-03,1,897,0.800413131713867,chair,chair,8-10-10,0897_eid_s03_8-10-10_chair_10_n04099969_19966.png
subject-03,1,898,0.675755023956299,cat,cat,1-10-10,0898_eid_s03_1-10-10_cat_10_n02123159_8088.png
subject-03,1,899,1.17361998558044,bird,boat,64-10-10,0899_eid_s03_64-10-10_boat_10_n04612504_4719.png
subject-03,1,900,0.839556932449341,airplane,airplane,8-10-10,0900_eid_s03_8-10-10_airplane_10_n02690373_2856.png
subject-03,1,901,1.13970398902893,bird,bird,8-10-10,0901_eid_s03_8-10-10_bird_10_n02013706_637.png
subject-03,1,902,1.06510496139526,boat,airplane,32-10-10,0902_eid_s03_32-10-10_airplane_10_n02690373_5055.png
subject-03,1,903,1.03887414932251,dog,dog,8-10-10,0903_eid_s03_8-10-10_dog_10_n02097474_15157.png
subject-03,1,904,1.35082602500916,truck,keyboard,16-10-10,0904_eid_s03_16-10-10_keyboard_10_n04505470_6327.png
subject-03,1,905,0.692537069320679,clock,clock,32-10-10,0905_eid_s03_32-10-10_clock_10_n04548280_5937.png
subject-03,1,906,1.12226700782776,cat,bottle,128-10-10,0906_eid_s03_128-10-10_bottle_10_n04560804_22426.png
subject-03,1,907,1.17221689224243,bear,bird,8-10-10,0907_eid_s03_8-10-10_bird_10_n01514859_1421.png
subject-03,1,908,1.31622695922852,car,car,4-10-10,0908_eid_s03_4-10-10_car_10_n02814533_42884.png
subject-03,1,909,1.21778106689453,boat,boat,16-10-10,0909_eid_s03_16-10-10_boat_10_n02951358_33918.png
subject-03,1,910,1.48586106300354,airplane,airplane,4-10-10,0910_eid_s03_4-10-10_airplane_10_n02690373_4335.png
subject-03,1,911,0.959782123565674,chair,chair,8-10-10,0911_eid_s03_8-10-10_chair_10_n03376595_1044.png
subject-03,1,912,0.795307159423828,bicycle,bicycle,1-10-10,0912_eid_s03_1-10-10_bicycle_10_n03792782_33116.png
subject-03,1,913,NaN,na,bicycle,64-10-10,0913_eid_s03_64-10-10_bicycle_10_n03792782_9004.png
subject-03,1,914,NaN,na,boat,16-10-10,0914_eid_s03_16-10-10_boat_10_n03662601_2686.png
subject-03,1,915,0.874770879745483,cat,oven,32-10-10,0915_eid_s03_32-10-10_oven_10_n04111531_11230.png
subject-03,1,916,1.1045389175415,bicycle,bicycle,2-10-10,0916_eid_s03_2-10-10_bicycle_10_n02835271_2625.png
subject-03,1,917,1.37433815002441,dog,truck,32-10-10,0917_eid_s03_32-10-10_truck_10_n03796401_16425.png
subject-03,1,918,1.13211107254028,car,car,4-10-10,0918_eid_s03_4-10-10_car_10_n03100240_17472.png
subject-03,1,919,1.19576501846313,dog,dog,2-10-10,0919_eid_s03_2-10-10_dog_10_n02097209_7628.png
subject-03,1,920,1.00182414054871,cat,cat,4-10-10,0920_eid_s03_4-10-10_cat_10_n02124075_18687.png
subject-03,1,921,1.25555515289307,elephant,elephant,32-10-10,0921_eid_s03_32-10-10_elephant_10_n02504458_2471.png
subject-03,1,922,1.32942295074463,bird,bird,16-10-10,0922_eid_s03_16-10-10_bird_10_n01614925_1683.png
subject-03,1,923,1.17527914047241,cat,bear,64-10-10,0923_eid_s03_64-10-10_bear_10_n02134418_1395.png
subject-03,1,924,1.19315600395203,bear,chair,128-10-10,0924_eid_s03_128-10-10_chair_10_n02791124_3241.png
subject-03,1,925,1.17107391357422,boat,boat,64-10-10,0925_eid_s03_64-10-10_boat_10_n03344393_4012.png
subject-03,1,926,0.988603115081787,cat,clock,128-10-10,0926_eid_s03_128-10-10_clock_10_n04548280_8162.png
subject-03,1,927,1.24474406242371,boat,bear,16-10-10,0927_eid_s03_16-10-10_bear_10_n02134418_2804.png
subject-03,1,928,0.914268970489502,car,car,8-10-10,0928_eid_s03_8-10-10_car_10_n02814533_32253.png
subject-03,1,929,1.05404806137085,truck,truck,1-10-10,0929_eid_s03_1-10-10_truck_10_n03796401_26620.png
subject-03,1,930,0.990246057510376,bird,bird,1-10-10,0930_eid_s03_1-10-10_bird_10_n01614925_7618.png
subject-03,1,931,1.1096179485321,cat,truck,128-10-10,0931_eid_s03_128-10-10_truck_10_n03417042_3351.png
subject-03,1,932,1.11971402168274,truck,truck,2-10-10,0932_eid_s03_2-10-10_truck_10_n04467665_67115.png
subject-03,1,933,1.37134099006653,car,airplane,16-10-10,0933_eid_s03_16-10-10_airplane_10_n02690373_4079.png
subject-03,1,934,1.07109689712524,bear,bear,2-10-10,0934_eid_s03_2-10-10_bear_10_n02134084_2959.png
subject-03,1,935,1.1669180393219,bottle,bottle,32-10-10,0935_eid_s03_32-10-10_bottle_10_n04591713_6024.png
subject-03,1,936,1.01498103141785,cat,cat,4-10-10,0936_eid_s03_4-10-10_cat_10_n02123159_491.png
subject-03,1,937,0.95090913772583,airplane,airplane,1-10-10,0937_eid_s03_1-10-10_airplane_10_n02690373_5465.png
subject-03,1,938,1.4206919670105,chair,boat,64-10-10,0938_eid_s03_64-10-10_boat_10_n03662601_5600.png
subject-03,1,939,1.35055685043335,dog,bicycle,32-10-10,0939_eid_s03_32-10-10_bicycle_10_n03792782_23912.png
subject-03,1,940,1.11001396179199,dog,dog,8-10-10,0940_eid_s03_8-10-10_dog_10_n02086646_6773.png
subject-03,1,941,0.919687032699585,cat,clock,32-10-10,0941_eid_s03_32-10-10_clock_10_n03196217_1337.png
subject-03,1,942,1.23750805854797,cat,truck,64-10-10,0942_eid_s03_64-10-10_truck_10_n03796401_9472.png
subject-03,1,943,1.05343198776245,bear,bear,2-10-10,0943_eid_s03_2-10-10_bear_10_n02133161_6458.png
subject-03,1,944,1.34330916404724,dog,oven,32-10-10,0944_eid_s03_32-10-10_oven_10_n04111531_13018.png
subject-03,1,945,0.953100919723511,bear,bear,2-10-10,0945_eid_s03_2-10-10_bear_10_n02134418_3213.png
subject-03,1,946,0.97121787071228,bicycle,bicycle,16-10-10,0946_eid_s03_16-10-10_bicycle_10_n02835271_14914.png
subject-03,1,947,1.42044281959534,bird,bicycle,64-10-10,0947_eid_s03_64-10-10_bicycle_10_n02835271_9097.png
subject-03,1,948,0.908347129821777,bird,bird,1-10-10,0948_eid_s03_1-10-10_bird_10_n01860187_18561.png
subject-03,1,949,1.21841502189636,car,car,4-10-10,0949_eid_s03_4-10-10_car_10_n04285008_10442.png
subject-03,1,950,0.876260042190552,bicycle,bicycle,16-10-10,0950_eid_s03_16-10-10_bicycle_10_n03792782_15898.png
subject-03,1,951,0.932214975357056,knife,knife,2-10-10,0951_eid_s03_2-10-10_knife_10_n03041632_4806.png
subject-03,1,952,1.13194298744202,dog,dog,1-10-10,0952_eid_s03_1-10-10_dog_10_n02095570_11450.png
subject-03,1,953,1.02578210830688,boat,boat,2-10-10,0953_eid_s03_2-10-10_boat_10_n02951358_34042.png
