subj,Session,trial,rt,object_response,category,condition,imagename
subject-02,1,1,1.01900005340576,clock,clock,4-10-10,0001_eid_s02_4-10-10_clock_10_n04548280_4275.png
subject-02,1,2,0.922889947891235,dog,dog,64-10-10,0002_eid_s02_64-10-10_dog_10_n02107683_5424.png
subject-02,1,3,0.87080717086792,bear,oven,32-10-10,0003_eid_s02_32-10-10_oven_10_n04111531_22715.png
subject-02,1,4,0.744460105895996,cat,truck,32-10-10,0004_eid_s02_32-10-10_truck_10_n03796401_1213.png
subject-02,1,5,0.778362035751343,cat,cat,1-10-10,0005_eid_s02_1-10-10_cat_10_n02123394_7782.png
subject-02,1,6,1.09999299049377,boat,airplane,128-10-10,0006_eid_s02_128-10-10_airplane_10_n02690373_693.png
subject-02,1,7,1.08187007904053,dog,truck,128-10-10,0007_eid_s02_128-10-10_truck_10_n03417042_2478.png
subject-02,1,8,1.34553813934326,oven,car,32-10-10,0008_eid_s02_32-10-10_car_10_n03100240_20061.png
subject-02,1,9,0.781378030776978,clock,clock,16-10-10,0009_eid_s02_16-10-10_clock_10_n02708093_4255.png
subject-02,1,10,1.19537210464478,bear,oven,32-10-10,0010_eid_s02_32-10-10_oven_10_n04111531_11230.png
subject-02,1,11,0.930930137634277,bottle,bottle,2-10-10,0011_eid_s02_2-10-10_bottle_10_n04557648_4008.png
subject-02,1,12,0.946934938430786,knife,chair,1-10-10,0012_eid_s02_1-10-10_chair_10_n03376595_3824.png
subject-02,1,13,0.882766962051392,car,car,2-10-10,0013_eid_s02_2-10-10_car_10_n03100240_17588.png
subject-02,1,14,0.8424232006073,cat,keyboard,4-10-10,0014_eid_s02_4-10-10_keyboard_10_n03085013_23295.png
subject-02,1,15,1.09040403366089,truck,boat,128-10-10,0015_eid_s02_128-10-10_boat_10_n02951358_30474.png
subject-02,1,16,0.75846004486084,bird,bird,8-10-10,0016_eid_s02_8-10-10_bird_10_n02013706_637.png
subject-02,1,17,0.953963994979858,chair,chair,8-10-10,0017_eid_s02_8-10-10_chair_10_n02791124_634.png
subject-02,1,18,0.795780897140503,clock,clock,1-10-10,0018_eid_s02_1-10-10_clock_10_n02708093_8257.png
subject-02,1,19,1.02763700485229,elephant,oven,32-10-10,0019_eid_s02_32-10-10_oven_10_n04111531_6695.png
subject-02,1,20,1.04958200454712,knife,chair,16-10-10,0020_eid_s02_16-10-10_chair_10_n02791124_1140.png
subject-02,1,21,0.819393157958984,cat,elephant,32-10-10,0021_eid_s02_32-10-10_elephant_10_n02504013_12531.png
subject-02,1,22,0.887549877166748,elephant,elephant,4-10-10,0022_eid_s02_4-10-10_elephant_10_n02504458_5539.png
subject-02,1,23,1.50010895729065,dog,car,64-10-10,0023_eid_s02_64-10-10_car_10_n02814533_19373.png
subject-02,1,24,1.41301703453064,chair,chair,32-10-10,0024_eid_s02_32-10-10_chair_10_n02791124_6492.png
subject-02,1,25,1.50003385543823,car,bird,32-10-10,0025_eid_s02_32-10-10_bird_10_n01796340_3845.png
subject-02,1,26,0.82448410987854,cat,oven,128-10-10,0026_eid_s02_128-10-10_oven_10_n04111531_924.png
subject-02,1,27,1.03807497024536,bear,elephant,16-10-10,0027_eid_s02_16-10-10_elephant_10_n02504013_1088.png
subject-02,1,28,1.13987612724304,bicycle,bicycle,1-10-10,0028_eid_s02_1-10-10_bicycle_10_n03792782_13835.png
subject-02,1,29,1.10610699653625,dog,dog,1-10-10,0029_eid_s02_1-10-10_dog_10_n02107142_61109.png
subject-02,1,30,0.921593189239502,bear,bear,1-10-10,0030_eid_s02_1-10-10_bear_10_n02133161_2970.png
subject-02,1,31,0.981496095657349,dog,cat,32-10-10,0031_eid_s02_32-10-10_cat_10_n02123045_12762.png
subject-02,1,32,1.12920093536377,boat,airplane,64-10-10,0032_eid_s02_64-10-10_airplane_10_n02690373_5204.png
subject-02,1,33,1.50005793571472,keyboard,clock,8-10-10,0033_eid_s02_8-10-10_clock_10_n04548280_4599.png
subject-02,1,34,1.11502599716187,bear,bear,1-10-10,0034_eid_s02_1-10-10_bear_10_n02132136_7796.png
subject-02,1,35,0.72649097442627,clock,clock,4-10-10,0035_eid_s02_4-10-10_clock_10_n03196217_8254.png
subject-02,1,36,1.22680187225342,keyboard,keyboard,16-10-10,0036_eid_s02_16-10-10_keyboard_10_n03085013_10659.png
subject-02,1,37,NaN,na,keyboard,16-10-10,0037_eid_s02_16-10-10_keyboard_10_n04505470_647.png
subject-02,1,38,0.942224979400635,car,car,4-10-10,0038_eid_s02_4-10-10_car_10_n02814533_42884.png
subject-02,1,39,1.28390097618103,oven,truck,16-10-10,0039_eid_s02_16-10-10_truck_10_n03417042_6941.png
subject-02,1,40,1.42380213737488,car,keyboard,128-10-10,0040_eid_s02_128-10-10_keyboard_10_n03085013_6862.png
subject-02,1,41,0.85748815536499,bear,bear,2-10-10,0041_eid_s02_2-10-10_bear_10_n02134084_7331.png
subject-02,1,42,1.03541898727417,bicycle,bird,4-10-10,0042_eid_s02_4-10-10_bird_10_n02051845_41380.png
subject-02,1,43,1.31324410438538,oven,bicycle,64-10-10,0043_eid_s02_64-10-10_bicycle_10_n02835271_6137.png
subject-02,1,44,0.927002906799316,keyboard,keyboard,8-10-10,0044_eid_s02_8-10-10_keyboard_10_n03085013_21932.png
subject-02,1,45,1.12926411628723,dog,car,32-10-10,0045_eid_s02_32-10-10_car_10_n02814533_28783.png
subject-02,1,46,0.930706024169922,car,car,1-10-10,0046_eid_s02_1-10-10_car_10_n03100240_16766.png
subject-02,1,47,0.888437986373901,keyboard,bottle,8-10-10,0047_eid_s02_8-10-10_bottle_10_n04591713_2501.png
subject-02,1,48,1.18432188034058,bicycle,boat,1-10-10,0048_eid_s02_1-10-10_boat_10_n03662601_24208.png
subject-02,1,49,1.00198197364807,dog,truck,64-10-10,0049_eid_s02_64-10-10_truck_10_n04467665_66624.png
subject-02,1,50,1.05175399780273,car,chair,8-10-10,0050_eid_s02_8-10-10_chair_10_n02791124_5319.png
subject-02,1,51,1.15372800827026,keyboard,chair,16-10-10,0051_eid_s02_16-10-10_chair_10_n02791124_4294.png
subject-02,1,52,0.995558977127075,airplane,airplane,1-10-10,0052_eid_s02_1-10-10_airplane_10_n02690373_4506.png
subject-02,1,53,1.15537786483765,keyboard,knife,4-10-10,0053_eid_s02_4-10-10_knife_10_n03041632_25331.png
subject-02,1,54,0.901166915893555,bear,bear,64-10-10,0054_eid_s02_64-10-10_bear_10_n02132136_29636.png
subject-02,1,55,1.10293698310852,bottle,bottle,16-10-10,0055_eid_s02_16-10-10_bottle_10_n03937543_7767.png
subject-02,1,56,1.03870701789856,cat,oven,16-10-10,0056_eid_s02_16-10-10_oven_10_n04111531_519.png
subject-02,1,57,0.818702936172485,keyboard,keyboard,8-10-10,0057_eid_s02_8-10-10_keyboard_10_n04505470_4616.png
subject-02,1,58,0.996418952941895,boat,bird,16-10-10,0058_eid_s02_16-10-10_bird_10_n02009229_5090.png
subject-02,1,59,0.940136909484863,airplane,airplane,1-10-10,0059_eid_s02_1-10-10_airplane_10_n02690373_3928.png
subject-02,1,60,0.855963945388794,car,car,2-10-10,0060_eid_s02_2-10-10_car_10_n03100240_4460.png
subject-02,1,61,0.955981969833374,cat,elephant,64-10-10,0061_eid_s02_64-10-10_elephant_10_n02504013_5505.png
subject-02,1,62,0.829916000366211,boat,dog,32-10-10,0062_eid_s02_32-10-10_dog_10_n02102040_7188.png
subject-02,1,63,0.833393812179565,bicycle,bicycle,8-10-10,0063_eid_s02_8-10-10_bicycle_10_n02835271_12477.png
subject-02,1,64,0.987321853637695,airplane,airplane,2-10-10,0064_eid_s02_2-10-10_airplane_10_n02690373_4471.png
subject-02,1,65,1.03315901756287,dog,dog,64-10-10,0065_eid_s02_64-10-10_dog_10_n02106662_24847.png
subject-02,1,66,1.03915095329285,dog,dog,1-10-10,0066_eid_s02_1-10-10_dog_10_n02095570_11450.png
subject-02,1,67,0.768676996231079,clock,clock,1-10-10,0067_eid_s02_1-10-10_clock_10_n04548280_8510.png
subject-02,1,68,0.830348968505859,car,car,4-10-10,0068_eid_s02_4-10-10_car_10_n04285008_12691.png
subject-02,1,69,0.930288076400757,boat,bear,16-10-10,0069_eid_s02_16-10-10_bear_10_n02134084_2844.png
subject-02,1,70,0.806087017059326,cat,cat,1-10-10,0070_eid_s02_1-10-10_cat_10_n02124075_724.png
subject-02,1,71,1.39200592041016,elephant,clock,128-10-10,0071_eid_s02_128-10-10_clock_10_n02708093_7054.png
subject-02,1,72,1.29202699661255,boat,boat,4-10-10,0072_eid_s02_4-10-10_boat_10_n03344393_11788.png
subject-02,1,73,1.25772786140442,cat,chair,64-10-10,0073_eid_s02_64-10-10_chair_10_n02791124_373.png
subject-02,1,74,0.957276105880737,car,chair,4-10-10,0074_eid_s02_4-10-10_chair_10_n03376595_1712.png
subject-02,1,75,0.837114095687866,keyboard,knife,8-10-10,0075_eid_s02_8-10-10_knife_10_n03041632_96714.png
subject-02,1,76,1.10109901428223,truck,truck,16-10-10,0076_eid_s02_16-10-10_truck_10_n03796401_5963.png
subject-02,1,77,0.833012104034424,airplane,airplane,16-10-10,0077_eid_s02_16-10-10_airplane_10_n02690373_5587.png
subject-02,1,78,0.980648994445801,clock,clock,4-10-10,0078_eid_s02_4-10-10_clock_10_n02708093_2869.png
subject-02,1,79,1.19638586044312,keyboard,keyboard,1-10-10,0079_eid_s02_1-10-10_keyboard_10_n03085013_7573.png
subject-02,1,80,1.13218998908997,airplane,boat,16-10-10,0080_eid_s02_16-10-10_boat_10_n03662601_2686.png
subject-02,1,81,1.50013494491577,bear,elephant,128-10-10,0081_eid_s02_128-10-10_elephant_10_n02504458_2026.png
subject-02,1,82,0.629034996032715,clock,clock,4-10-10,0082_eid_s02_4-10-10_clock_10_n04548280_2778.png
subject-02,1,83,0.908725023269653,knife,knife,1-10-10,0083_eid_s02_1-10-10_knife_10_n03041632_52929.png
subject-02,1,84,1.10050296783447,dog,cat,32-10-10,0084_eid_s02_32-10-10_cat_10_n02125311_13152.png
subject-02,1,85,1.18643593788147,bottle,oven,128-10-10,0085_eid_s02_128-10-10_oven_10_n04111531_3191.png
subject-02,1,86,0.93408203125,knife,knife,2-10-10,0086_eid_s02_2-10-10_knife_10_n03041632_37949.png
subject-02,1,87,1.16635990142822,airplane,boat,16-10-10,0087_eid_s02_16-10-10_boat_10_n03662601_5118.png
subject-02,1,88,1.07980608940125,cat,knife,64-10-10,0088_eid_s02_64-10-10_knife_10_n03041632_12537.png
subject-02,1,89,1.21591711044312,cat,oven,32-10-10,0089_eid_s02_32-10-10_oven_10_n04111531_7883.png
subject-02,1,90,0.759550094604492,airplane,airplane,2-10-10,0090_eid_s02_2-10-10_airplane_10_n02690373_5748.png
subject-02,1,91,1.0052170753479,truck,truck,2-10-10,0091_eid_s02_2-10-10_truck_10_n03796401_18976.png
subject-02,1,92,0.849163055419922,keyboard,keyboard,4-10-10,0092_eid_s02_4-10-10_keyboard_10_n03085013_6978.png
subject-02,1,93,1.18277716636658,dog,bear,4-10-10,0093_eid_s02_4-10-10_bear_10_n02132136_24311.png
subject-02,1,94,0.844514131546021,knife,dog,8-10-10,0094_eid_s02_8-10-10_dog_10_n02086079_15773.png
subject-02,1,95,0.948872089385986,bird,boat,64-10-10,0095_eid_s02_64-10-10_boat_10_n04612504_20929.png
subject-02,1,96,1.07261109352112,keyboard,oven,1-10-10,0096_eid_s02_1-10-10_oven_10_n04111531_12080.png
subject-02,1,97,1.0219349861145,oven,oven,2-10-10,0097_eid_s02_2-10-10_oven_10_n04111531_5429.png
subject-02,1,98,0.863774061203003,bird,bird,16-10-10,0098_eid_s02_16-10-10_bird_10_n02006656_5021.png
subject-02,1,99,1.04401898384094,dog,dog,8-10-10,0099_eid_s02_8-10-10_dog_10_n02097474_15157.png
subject-02,1,100,1.02150917053223,dog,dog,8-10-10,0100_eid_s02_8-10-10_dog_10_n02100735_2228.png
subject-02,1,101,0.909332990646362,keyboard,keyboard,2-10-10,0101_eid_s02_2-10-10_keyboard_10_n03085013_23269.png
subject-02,1,102,0.931084871292114,cat,bicycle,16-10-10,0102_eid_s02_16-10-10_bicycle_10_n02835271_18706.png
subject-02,1,103,1.08905100822449,cat,car,128-10-10,0103_eid_s02_128-10-10_car_10_n02814533_40350.png
subject-02,1,104,0.920813083648682,dog,bottle,128-10-10,0104_eid_s02_128-10-10_bottle_10_n02823428_8079.png
subject-02,1,105,1.25675511360168,dog,dog,2-10-10,0105_eid_s02_2-10-10_dog_10_n02108915_6092.png
subject-02,1,106,0.924237966537476,keyboard,keyboard,1-10-10,0106_eid_s02_1-10-10_keyboard_10_n04505470_4621.png
subject-02,1,107,1.18654990196228,bird,chair,32-10-10,0107_eid_s02_32-10-10_chair_10_n04099969_1998.png
subject-02,1,108,0.738009929656982,oven,oven,2-10-10,0108_eid_s02_2-10-10_oven_10_n04111531_6080.png
subject-02,1,109,0.717926025390625,airplane,airplane,4-10-10,0109_eid_s02_4-10-10_airplane_10_n02690373_5797.png
subject-02,1,110,1.1778028011322,cat,chair,4-10-10,0110_eid_s02_4-10-10_chair_10_n02791124_2804.png
subject-02,1,111,0.887320041656494,bottle,bottle,2-10-10,0111_eid_s02_2-10-10_bottle_10_n03937543_4450.png
subject-02,1,112,0.771266937255859,knife,knife,1-10-10,0112_eid_s02_1-10-10_knife_10_n03041632_25656.png
subject-02,1,113,0.9511399269104,bird,bear,8-10-10,0113_eid_s02_8-10-10_bear_10_n02133161_1981.png
subject-02,1,114,0.863067150115967,oven,oven,2-10-10,0114_eid_s02_2-10-10_oven_10_n04111531_5218.png
subject-02,1,115,1.03477787971497,bear,cat,64-10-10,0115_eid_s02_64-10-10_cat_10_n02123159_4051.png
subject-02,1,116,0.992804050445557,cat,bird,32-10-10,0116_eid_s02_32-10-10_bird_10_n01537544_5944.png
subject-02,1,117,0.818485975265503,chair,chair,4-10-10,0117_eid_s02_4-10-10_chair_10_n04099969_8063.png
subject-02,1,118,0.958278179168701,airplane,airplane,1-10-10,0118_eid_s02_1-10-10_airplane_10_n02690373_6144.png
subject-02,1,119,1.06394386291504,elephant,bottle,64-10-10,0119_eid_s02_64-10-10_bottle_10_n04557648_2654.png
subject-02,1,120,1.07179307937622,bear,bicycle,16-10-10,0120_eid_s02_16-10-10_bicycle_10_n03792782_7688.png
subject-02,1,121,1.13202881813049,dog,clock,128-10-10,0121_eid_s02_128-10-10_clock_10_n02708093_496.png
subject-02,1,122,0.817626953125,bear,bear,1-10-10,0122_eid_s02_1-10-10_bear_10_n02132136_10496.png
subject-02,1,123,0.775215148925781,elephant,elephant,1-10-10,0123_eid_s02_1-10-10_elephant_10_n02504458_723.png
subject-02,1,124,0.750919103622437,car,car,16-10-10,0124_eid_s02_16-10-10_car_10_n03100240_23363.png
subject-02,1,125,0.857035875320435,dog,knife,64-10-10,0125_eid_s02_64-10-10_knife_10_n03041632_6708.png
subject-02,1,126,0.760704040527344,car,car,4-10-10,0126_eid_s02_4-10-10_car_10_n04285008_10442.png
subject-02,1,127,0.996622085571289,knife,knife,4-10-10,0127_eid_s02_4-10-10_knife_10_n03041632_29920.png
subject-02,1,128,0.712712049484253,car,car,1-10-10,0128_eid_s02_1-10-10_car_10_n03100240_9019.png
subject-02,1,129,1.08410000801086,bear,car,64-10-10,0129_eid_s02_64-10-10_car_10_n04285008_8017.png
subject-02,1,130,0.768305063247681,elephant,elephant,8-10-10,0130_eid_s02_8-10-10_elephant_10_n02504458_651.png
subject-02,1,131,1.02568221092224,elephant,bird,16-10-10,0131_eid_s02_16-10-10_bird_10_n02002724_578.png
subject-02,1,132,1.02941703796387,cat,bird,8-10-10,0132_eid_s02_8-10-10_bird_10_n01532829_23378.png
subject-02,1,133,0.909614086151123,boat,bear,32-10-10,0133_eid_s02_32-10-10_bear_10_n02134418_409.png
subject-02,1,134,1.02536606788635,keyboard,truck,16-10-10,0134_eid_s02_16-10-10_truck_10_n03417042_10117.png
subject-02,1,135,1.07144498825073,boat,clock,32-10-10,0135_eid_s02_32-10-10_clock_10_n03196217_3167.png
subject-02,1,136,0.996763944625854,boat,airplane,128-10-10,0136_eid_s02_128-10-10_airplane_10_n02690373_17307.png
subject-02,1,137,1.10262489318848,cat,oven,32-10-10,0137_eid_s02_32-10-10_oven_10_n04111531_13018.png
subject-02,1,138,0.726463079452515,elephant,elephant,4-10-10,0138_eid_s02_4-10-10_elephant_10_n02504458_7342.png
subject-02,1,139,0.842314958572388,clock,clock,4-10-10,0139_eid_s02_4-10-10_clock_10_n02708093_31.png
subject-02,1,140,0.832050800323486,cat,cat,32-10-10,0140_eid_s02_32-10-10_cat_10_n02123159_3312.png
subject-02,1,141,0.986059904098511,bear,bicycle,128-10-10,0141_eid_s02_128-10-10_bicycle_10_n03792782_18687.png
subject-02,1,142,0.7637779712677,dog,bicycle,32-10-10,0142_eid_s02_32-10-10_bicycle_10_n03792782_15016.png
subject-02,1,143,1.02766394615173,truck,boat,8-10-10,0143_eid_s02_8-10-10_boat_10_n03662601_10278.png
subject-02,1,144,0.883561849594116,dog,dog,4-10-10,0144_eid_s02_4-10-10_dog_10_n02100583_9672.png
subject-02,1,145,0.985351085662842,cat,keyboard,64-10-10,0145_eid_s02_64-10-10_keyboard_10_n03085013_19317.png
subject-02,1,146,0.795310974121094,bird,bird,1-10-10,0146_eid_s02_1-10-10_bird_10_n01614925_7618.png
subject-02,1,147,0.798843145370483,car,truck,8-10-10,0147_eid_s02_8-10-10_truck_10_n04467665_69882.png
subject-02,1,148,1.05856394767761,dog,elephant,32-10-10,0148_eid_s02_32-10-10_elephant_10_n02504458_5641.png
subject-02,1,149,0.638551950454712,airplane,airplane,4-10-10,0149_eid_s02_4-10-10_airplane_10_n02690373_1023.png
subject-02,1,150,0.982393980026245,cat,keyboard,1-10-10,0150_eid_s02_1-10-10_keyboard_10_n03085013_22790.png
subject-02,1,151,0.766355991363525,car,clock,8-10-10,0151_eid_s02_8-10-10_clock_10_n04548280_1.png
subject-02,1,152,0.793911933898926,clock,clock,8-10-10,0152_eid_s02_8-10-10_clock_10_n04548280_1809.png
subject-02,1,153,1.13765692710876,dog,cat,128-10-10,0153_eid_s02_128-10-10_cat_10_n02123394_5753.png
subject-02,1,154,1.27166604995728,bear,boat,16-10-10,0154_eid_s02_16-10-10_boat_10_n02951358_33918.png
subject-02,1,155,0.879312038421631,cat,cat,64-10-10,0155_eid_s02_64-10-10_cat_10_n02123394_3062.png
subject-02,1,156,0.768899917602539,car,car,4-10-10,0156_eid_s02_4-10-10_car_10_n02814533_4087.png
subject-02,1,157,0.846835136413574,dog,dog,1-10-10,0157_eid_s02_1-10-10_dog_10_n02100735_4949.png
subject-02,1,158,1.17666101455688,cat,chair,64-10-10,0158_eid_s02_64-10-10_chair_10_n03376595_6171.png
subject-02,1,159,0.872941970825195,bear,oven,64-10-10,0159_eid_s02_64-10-10_oven_10_n04111531_9695.png
subject-02,1,160,0.666363000869751,clock,clock,1-10-10,0160_eid_s02_1-10-10_clock_10_n02708093_3996.png
subject-02,1,161,0.912810087203979,knife,knife,8-10-10,0161_eid_s02_8-10-10_knife_10_n03041632_31363.png
subject-02,1,162,0.898638010025024,keyboard,keyboard,4-10-10,0162_eid_s02_4-10-10_keyboard_10_n03085013_4941.png
subject-02,1,163,0.880630016326904,boat,bear,64-10-10,0163_eid_s02_64-10-10_bear_10_n02132136_31664.png
subject-02,1,164,1.07411789894104,bicycle,bicycle,1-10-10,0164_eid_s02_1-10-10_bicycle_10_n03792782_67333.png
subject-02,1,165,0.772053956985474,boat,boat,1-10-10,0165_eid_s02_1-10-10_boat_10_n02951358_3452.png
subject-02,1,166,0.967867136001587,knife,knife,2-10-10,0166_eid_s02_2-10-10_knife_10_n03041632_47743.png
subject-02,1,167,0.853533983230591,clock,clock,4-10-10,0167_eid_s02_4-10-10_clock_10_n02708093_485.png
subject-02,1,168,1.18140196800232,bird,bird,64-10-10,0168_eid_s02_64-10-10_bird_10_n02002556_8585.png
subject-02,1,169,0.715419054031372,airplane,airplane,8-10-10,0169_eid_s02_8-10-10_airplane_10_n02690373_3032.png
subject-02,1,170,0.903104066848755,cat,chair,64-10-10,0170_eid_s02_64-10-10_chair_10_n03376595_4820.png
subject-02,1,171,1.02489995956421,cat,bear,64-10-10,0171_eid_s02_64-10-10_bear_10_n02132136_20009.png
subject-02,1,172,0.722980976104736,cat,cat,8-10-10,0172_eid_s02_8-10-10_cat_10_n02123159_4203.png
subject-02,1,173,0.750874996185303,cat,cat,2-10-10,0173_eid_s02_2-10-10_cat_10_n02123597_7933.png
subject-02,1,174,0.818384885787964,elephant,elephant,1-10-10,0174_eid_s02_1-10-10_elephant_10_n02504013_21311.png
subject-02,1,175,1.05225801467896,bear,oven,128-10-10,0175_eid_s02_128-10-10_oven_10_n04111531_6346.png
subject-02,1,176,0.962028980255127,dog,keyboard,128-10-10,0176_eid_s02_128-10-10_keyboard_10_n03085013_6067.png
subject-02,1,177,0.680284976959229,bicycle,bicycle,1-10-10,0177_eid_s02_1-10-10_bicycle_10_n03792782_70404.png
subject-02,1,178,0.815549850463867,boat,boat,128-10-10,0178_eid_s02_128-10-10_boat_10_n03662601_23903.png
subject-02,1,179,0.84340500831604,bird,bird,32-10-10,0179_eid_s02_32-10-10_bird_10_n01537544_3720.png
subject-02,1,180,0.843567848205566,oven,oven,2-10-10,0180_eid_s02_2-10-10_oven_10_n04111531_13625.png
subject-02,1,181,0.95895791053772,knife,bottle,16-10-10,0181_eid_s02_16-10-10_bottle_10_n04591713_1174.png
subject-02,1,182,0.839225053787231,car,car,4-10-10,0182_eid_s02_4-10-10_car_10_n03100240_17472.png
subject-02,1,183,0.806617021560669,cat,bottle,128-10-10,0183_eid_s02_128-10-10_bottle_10_n03937543_2269.png
subject-02,1,184,0.694576025009155,clock,clock,1-10-10,0184_eid_s02_1-10-10_clock_10_n02708093_57.png
subject-02,1,185,0.954154014587402,dog,chair,128-10-10,0185_eid_s02_128-10-10_chair_10_n02791124_1059.png
subject-02,1,186,0.848122119903564,keyboard,knife,16-10-10,0186_eid_s02_16-10-10_knife_10_n03041632_13478.png
subject-02,1,187,0.851834058761597,bicycle,bicycle,16-10-10,0187_eid_s02_16-10-10_bicycle_10_n02835271_794.png
subject-02,1,188,1.04364991188049,boat,oven,16-10-10,0188_eid_s02_16-10-10_oven_10_n04111531_2433.png
subject-02,1,189,0.761639833450317,bird,bird,8-10-10,0189_eid_s02_8-10-10_bird_10_n01532829_13864.png
subject-02,1,190,0.905677080154419,knife,knife,8-10-10,0190_eid_s02_8-10-10_knife_10_n03041632_24817.png
subject-02,1,191,1.22317314147949,boat,knife,32-10-10,0191_eid_s02_32-10-10_knife_10_n03041632_43975.png
subject-02,1,192,0.691086053848267,cat,clock,32-10-10,0192_eid_s02_32-10-10_clock_10_n03196217_1337.png
subject-02,1,193,0.727009057998657,bear,bear,16-10-10,0193_eid_s02_16-10-10_bear_10_n02132136_32838.png
subject-02,1,194,0.756686210632324,keyboard,keyboard,2-10-10,0194_eid_s02_2-10-10_keyboard_10_n03085013_23552.png
subject-02,1,195,0.840405941009521,cat,keyboard,32-10-10,0195_eid_s02_32-10-10_keyboard_10_n04505470_7659.png
subject-02,1,196,0.916240930557251,dog,chair,32-10-10,0196_eid_s02_32-10-10_chair_10_n04429376_7123.png
subject-02,1,197,1.49438619613647,boat,elephant,2-10-10,0197_eid_s02_2-10-10_elephant_10_n02504013_6731.png
subject-02,1,198,1.06797790527344,car,car,8-10-10,0198_eid_s02_8-10-10_car_10_n04285008_1795.png
subject-02,1,199,0.775675058364868,cat,bottle,64-10-10,0199_eid_s02_64-10-10_bottle_10_n04560804_2776.png
subject-02,1,200,1.20974278450012,knife,knife,1-10-10,0200_eid_s02_1-10-10_knife_10_n03041632_98864.png
subject-02,1,201,0.841353893280029,dog,knife,64-10-10,0201_eid_s02_64-10-10_knife_10_n03041632_1964.png
subject-02,1,202,0.843054056167603,cat,airplane,64-10-10,0202_eid_s02_64-10-10_airplane_10_n02690373_18412.png
subject-02,1,203,1.05306911468506,bear,dog,1-10-10,0203_eid_s02_1-10-10_dog_10_n02111500_1393.png
subject-02,1,204,0.900948047637939,boat,boat,1-10-10,0204_eid_s02_1-10-10_boat_10_n02951358_1470.png
subject-02,1,205,0.696699857711792,keyboard,keyboard,2-10-10,0205_eid_s02_2-10-10_keyboard_10_n03085013_8932.png
subject-02,1,206,0.702188014984131,boat,boat,1-10-10,0206_eid_s02_1-10-10_boat_10_n03344393_6103.png
subject-02,1,207,0.793989896774292,bicycle,bicycle,4-10-10,0207_eid_s02_4-10-10_bicycle_10_n03792782_4207.png
subject-02,1,208,0.698344945907593,car,car,1-10-10,0208_eid_s02_1-10-10_car_10_n04285008_1661.png
subject-02,1,209,0.695723056793213,chair,chair,2-10-10,0209_eid_s02_2-10-10_chair_10_n03376595_1766.png
subject-02,1,210,0.677833080291748,cat,cat,1-10-10,0210_eid_s02_1-10-10_cat_10_n02123159_12734.png
subject-02,1,211,1.19157695770264,keyboard,keyboard,32-10-10,0211_eid_s02_32-10-10_keyboard_10_n03085013_15995.png
subject-02,1,212,0.983301877975464,bicycle,bicycle,2-10-10,0212_eid_s02_2-10-10_bicycle_10_n02835271_1573.png
subject-02,1,213,0.935236930847168,bicycle,bicycle,1-10-10,0213_eid_s02_1-10-10_bicycle_10_n03792782_35904.png
subject-02,1,214,0.778831958770752,cat,elephant,64-10-10,0214_eid_s02_64-10-10_elephant_10_n02504458_3689.png
subject-02,1,215,0.792771100997925,boat,car,128-10-10,0215_eid_s02_128-10-10_car_10_n04285008_8727.png
subject-02,1,216,0.806359052658081,cat,cat,4-10-10,0216_eid_s02_4-10-10_cat_10_n02123597_2030.png
subject-02,1,217,0.782245874404907,bottle,bottle,1-10-10,0217_eid_s02_1-10-10_bottle_10_n04579145_6818.png
subject-02,1,218,0.896032094955444,airplane,airplane,8-10-10,0218_eid_s02_8-10-10_airplane_10_n02690373_2856.png
subject-02,1,219,0.735761165618896,cat,dog,128-10-10,0219_eid_s02_128-10-10_dog_10_n02108551_5950.png
subject-02,1,220,0.717755079269409,cat,cat,2-10-10,0220_eid_s02_2-10-10_cat_10_n02125311_30349.png
subject-02,1,221,1.05354595184326,bird,airplane,64-10-10,0221_eid_s02_64-10-10_airplane_10_n02690373_614.png
subject-02,1,222,1.0497260093689,cat,airplane,128-10-10,0222_eid_s02_128-10-10_airplane_10_n02690373_7651.png
subject-02,1,223,0.883112907409668,boat,boat,4-10-10,0223_eid_s02_4-10-10_boat_10_n03662601_10589.png
subject-02,1,224,1.13931894302368,cat,dog,128-10-10,0224_eid_s02_128-10-10_dog_10_n02094114_3395.png
subject-02,1,225,0.840697050094604,cat,cat,2-10-10,0225_eid_s02_2-10-10_cat_10_n02123045_2364.png
subject-02,1,226,1.00056195259094,elephant,elephant,2-10-10,0226_eid_s02_2-10-10_elephant_10_n02504458_12705.png
subject-02,1,227,0.768784046173096,boat,car,128-10-10,0227_eid_s02_128-10-10_car_10_n04285008_2653.png
subject-02,1,228,0.774349927902222,bicycle,bicycle,2-10-10,0228_eid_s02_2-10-10_bicycle_10_n02835271_15038.png
subject-02,1,229,1.14605188369751,airplane,truck,2-10-10,0229_eid_s02_2-10-10_truck_10_n04467665_67115.png
subject-02,1,230,0.896245002746582,bicycle,bicycle,1-10-10,0230_eid_s02_1-10-10_bicycle_10_n03792782_13324.png
subject-02,1,231,0.841754913330078,cat,cat,32-10-10,0231_eid_s02_32-10-10_cat_10_n02124075_3609.png
subject-02,1,232,0.933454990386963,cat,cat,1-10-10,0232_eid_s02_1-10-10_cat_10_n02123159_8088.png
subject-02,1,233,0.749344110488892,keyboard,keyboard,8-10-10,0233_eid_s02_8-10-10_keyboard_10_n03085013_7971.png
subject-02,1,234,0.903365135192871,airplane,airplane,2-10-10,0234_eid_s02_2-10-10_airplane_10_n02690373_9266.png
subject-02,1,235,0.934980869293213,elephant,elephant,2-10-10,0235_eid_s02_2-10-10_elephant_10_n02504013_2075.png
subject-02,1,236,0.960735082626343,keyboard,keyboard,2-10-10,0236_eid_s02_2-10-10_keyboard_10_n03085013_4780.png
subject-02,1,237,0.754542112350464,cat,bird,32-10-10,0237_eid_s02_32-10-10_bird_10_n02056570_10127.png
subject-02,1,238,1.09029412269592,bottle,bottle,2-10-10,0238_eid_s02_2-10-10_bottle_10_n03983396_795.png
subject-02,1,239,0.866312026977539,cat,truck,32-10-10,0239_eid_s02_32-10-10_truck_10_n03417042_27326.png
subject-02,1,240,0.75625205039978,boat,boat,4-10-10,0240_eid_s02_4-10-10_boat_10_n04273569_1023.png
subject-02,1,241,0.941340923309326,elephant,elephant,2-10-10,0241_eid_s02_2-10-10_elephant_10_n02504013_3409.png
subject-02,1,242,0.88293194770813,cat,bottle,64-10-10,0242_eid_s02_64-10-10_bottle_10_n03983396_16257.png
subject-02,1,243,0.692905902862549,bird,bird,2-10-10,0243_eid_s02_2-10-10_bird_10_n01614925_9764.png
subject-02,1,244,0.762615919113159,bicycle,boat,8-10-10,0244_eid_s02_8-10-10_boat_10_n03662601_4734.png
subject-02,1,245,0.916617870330811,boat,dog,16-10-10,0245_eid_s02_16-10-10_dog_10_n02113023_1980.png
subject-02,1,246,0.720376014709473,bear,keyboard,64-10-10,0246_eid_s02_64-10-10_keyboard_10_n04505470_1581.png
subject-02,1,247,0.780081987380981,cat,bottle,128-10-10,0247_eid_s02_128-10-10_bottle_10_n04560804_3495.png
subject-02,1,248,0.90379810333252,cat,dog,32-10-10,0248_eid_s02_32-10-10_dog_10_n02102040_2743.png
subject-02,1,249,0.933634042739868,elephant,dog,128-10-10,0249_eid_s02_128-10-10_dog_10_n02091244_8368.png
subject-02,1,250,0.723609924316406,bicycle,bicycle,8-10-10,0250_eid_s02_8-10-10_bicycle_10_n02835271_19955.png
subject-02,1,251,1.06364893913269,keyboard,bottle,8-10-10,0251_eid_s02_8-10-10_bottle_10_n03983396_4879.png
subject-02,1,252,0.827134847640991,airplane,airplane,64-10-10,0252_eid_s02_64-10-10_airplane_10_n02690373_10931.png
subject-02,1,253,1.00480508804321,knife,knife,2-10-10,0253_eid_s02_2-10-10_knife_10_n03041632_42472.png
subject-02,1,254,0.850801944732666,bird,car,16-10-10,0254_eid_s02_16-10-10_car_10_n03100240_17289.png
subject-02,1,255,0.880547046661377,keyboard,boat,2-10-10,0255_eid_s02_2-10-10_boat_10_n04273569_12725.png
subject-02,1,256,0.77649712562561,truck,truck,2-10-10,0256_eid_s02_2-10-10_truck_10_n04467665_30756.png
subject-02,1,257,0.884581804275513,bird,boat,16-10-10,0257_eid_s02_16-10-10_boat_10_n02951358_10431.png
subject-02,1,258,0.960108041763306,boat,bicycle,128-10-10,0258_eid_s02_128-10-10_bicycle_10_n03792782_3299.png
subject-02,1,259,0.895766973495483,knife,knife,16-10-10,0259_eid_s02_16-10-10_knife_10_n03041632_19620.png
subject-02,1,260,0.865698099136353,cat,oven,64-10-10,0260_eid_s02_64-10-10_oven_10_n04111531_5906.png
subject-02,1,261,1.26760697364807,bear,bird,64-10-10,0261_eid_s02_64-10-10_bird_10_n01860187_21300.png
subject-02,1,262,1.01334095001221,boat,dog,128-10-10,0262_eid_s02_128-10-10_dog_10_n02100877_7049.png
subject-02,1,263,0.910964012145996,cat,clock,64-10-10,0263_eid_s02_64-10-10_clock_10_n03196217_10578.png
subject-02,1,264,1.14889287948608,dog,dog,4-10-10,0264_eid_s02_4-10-10_dog_10_n02102973_13.png
subject-02,1,265,0.882560968399048,cat,keyboard,128-10-10,0265_eid_s02_128-10-10_keyboard_10_n04505470_6955.png
subject-02,1,266,1.50013995170593,dog,boat,16-10-10,0266_eid_s02_16-10-10_boat_10_n03662601_83.png
subject-02,1,267,1.14259815216064,dog,bear,1-10-10,0267_eid_s02_1-10-10_bear_10_n02134418_4685.png
subject-02,1,268,0.882542848587036,bird,bird,8-10-10,0268_eid_s02_8-10-10_bird_10_n01843065_148.png
subject-02,1,269,0.772297143936157,cat,bicycle,128-10-10,0269_eid_s02_128-10-10_bicycle_10_n03792782_50972.png
subject-02,1,270,0.738116025924683,boat,truck,128-10-10,0270_eid_s02_128-10-10_truck_10_n03417042_3351.png
subject-02,1,271,0.713616847991943,bear,bottle,64-10-10,0271_eid_s02_64-10-10_bottle_10_n02823428_23181.png
subject-02,1,272,1.10327410697937,elephant,bird,128-10-10,0272_eid_s02_128-10-10_bird_10_n01833805_8028.png
subject-02,1,273,0.875143051147461,bottle,bottle,2-10-10,0273_eid_s02_2-10-10_bottle_10_n04591713_6905.png
subject-02,1,274,0.872967004776001,bear,oven,32-10-10,0274_eid_s02_32-10-10_oven_10_n04111531_1362.png
subject-02,1,275,1.37680888175964,knife,knife,8-10-10,0275_eid_s02_8-10-10_knife_10_n03041632_40508.png
subject-02,1,276,0.716670036315918,bird,bird,4-10-10,0276_eid_s02_4-10-10_bird_10_n02009912_645.png
subject-02,1,277,0.676238059997559,elephant,elephant,2-10-10,0277_eid_s02_2-10-10_elephant_10_n02504013_10390.png
subject-02,1,278,0.942207813262939,chair,chair,8-10-10,0278_eid_s02_8-10-10_chair_10_n03376595_1044.png
subject-02,1,279,0.849964141845703,dog,dog,4-10-10,0279_eid_s02_4-10-10_dog_10_n02105641_8188.png
subject-02,1,280,1.1759078502655,dog,bird,64-10-10,0280_eid_s02_64-10-10_bird_10_n01560419_3399.png
subject-02,1,281,1.01952219009399,boat,car,64-10-10,0281_eid_s02_64-10-10_car_10_n04285008_6102.png
subject-02,1,282,0.741565942764282,bird,bird,1-10-10,0282_eid_s02_1-10-10_bird_10_n02009229_5765.png
subject-02,1,283,0.785621166229248,bird,bird,2-10-10,0283_eid_s02_2-10-10_bird_10_n02009912_18125.png
subject-02,1,284,0.799525022506714,chair,chair,2-10-10,0284_eid_s02_2-10-10_chair_10_n04099969_2020.png
subject-02,1,285,0.797258853912354,boat,boat,1-10-10,0285_eid_s02_1-10-10_boat_10_n03662601_21775.png
subject-02,1,286,0.835088968276978,boat,bicycle,128-10-10,0286_eid_s02_128-10-10_bicycle_10_n03792782_4210.png
subject-02,1,287,0.87061595916748,cat,truck,32-10-10,0287_eid_s02_32-10-10_truck_10_n03796401_16425.png
subject-02,1,288,1.07435703277588,dog,oven,8-10-10,0288_eid_s02_8-10-10_oven_10_n04111531_46651.png
subject-02,1,289,1.02616500854492,bird,bird,64-10-10,0289_eid_s02_64-10-10_bird_10_n01601694_13787.png
subject-02,1,290,0.84998607635498,airplane,airplane,128-10-10,0290_eid_s02_128-10-10_airplane_10_n02690373_3553.png
subject-02,1,291,0.985689878463745,cat,knife,64-10-10,0291_eid_s02_64-10-10_knife_10_n03041632_52702.png
subject-02,1,292,1.04789090156555,truck,truck,4-10-10,0292_eid_s02_4-10-10_truck_10_n04467665_24566.png
subject-02,1,293,0.989550828933716,car,car,2-10-10,0293_eid_s02_2-10-10_car_10_n03100240_7066.png
subject-02,1,294,0.939193964004517,clock,clock,2-10-10,0294_eid_s02_2-10-10_clock_10_n03196217_8139.png
subject-02,1,295,1.03893089294434,elephant,elephant,32-10-10,0295_eid_s02_32-10-10_elephant_10_n02504458_2471.png
subject-02,1,296,1.16097116470337,keyboard,keyboard,2-10-10,0296_eid_s02_2-10-10_keyboard_10_n03085013_22713.png
subject-02,1,297,0.939129114151001,knife,knife,8-10-10,0297_eid_s02_8-10-10_knife_10_n03041632_23803.png
subject-02,1,298,0.842736005783081,dog,dog,8-10-10,0298_eid_s02_8-10-10_dog_10_n02101388_24945.png
subject-02,1,299,0.86428689956665,cat,clock,128-10-10,0299_eid_s02_128-10-10_clock_10_n02708093_725.png
subject-02,1,300,0.766062021255493,boat,bicycle,128-10-10,0300_eid_s02_128-10-10_bicycle_10_n02835271_26639.png
subject-02,1,301,1.21594977378845,keyboard,bear,16-10-10,0301_eid_s02_16-10-10_bear_10_n02133161_958.png
subject-02,1,302,0.806067943572998,knife,dog,1-10-10,0302_eid_s02_1-10-10_dog_10_n02088466_1769.png
subject-02,1,303,0.757540941238403,bicycle,bicycle,4-10-10,0303_eid_s02_4-10-10_bicycle_10_n03792782_15627.png
subject-02,1,304,0.739290952682495,dog,dog,2-10-10,0304_eid_s02_2-10-10_dog_10_n02097209_7628.png
subject-02,1,305,0.699093103408813,clock,clock,2-10-10,0305_eid_s02_2-10-10_clock_10_n02708093_6820.png
subject-02,1,306,1.01526999473572,knife,bottle,4-10-10,0306_eid_s02_4-10-10_bottle_10_n04560804_31443.png
subject-02,1,307,NaN,na,boat,32-10-10,0307_eid_s02_32-10-10_boat_10_n03344393_897.png
subject-02,1,308,0.842941999435425,dog,dog,16-10-10,0308_eid_s02_16-10-10_dog_10_n02094433_1863.png
subject-02,1,309,1.09254503250122,cat,bird,16-10-10,0309_eid_s02_16-10-10_bird_10_n02033041_7229.png
subject-02,1,310,1.02004790306091,bear,boat,64-10-10,0310_eid_s02_64-10-10_boat_10_n03662601_27960.png
subject-02,1,311,0.842034816741943,bear,bear,1-10-10,0311_eid_s02_1-10-10_bear_10_n02133161_5653.png
subject-02,1,312,0.817729949951172,cat,bird,64-10-10,0312_eid_s02_64-10-10_bird_10_n01860187_15592.png
subject-02,1,313,1.19152903556824,bear,oven,16-10-10,0313_eid_s02_16-10-10_oven_10_n04111531_3314.png
subject-02,1,314,0.867654085159302,bicycle,bicycle,4-10-10,0314_eid_s02_4-10-10_bicycle_10_n03792782_7518.png
subject-02,1,315,0.885183095932007,bird,airplane,16-10-10,0315_eid_s02_16-10-10_airplane_10_n02690373_17603.png
subject-02,1,316,0.82898211479187,cat,boat,128-10-10,0316_eid_s02_128-10-10_boat_10_n03662601_33830.png
subject-02,1,317,0.760880947113037,car,car,8-10-10,0317_eid_s02_8-10-10_car_10_n03100240_1072.png
subject-02,1,318,1.0247700214386,bird,bear,16-10-10,0318_eid_s02_16-10-10_bear_10_n02134418_2714.png
subject-02,1,319,1.044597864151,cat,airplane,128-10-10,0319_eid_s02_128-10-10_airplane_10_n02690373_9309.png
subject-02,1,320,0.934153079986572,bird,bird,8-10-10,0320_eid_s02_8-10-10_bird_10_n01514859_1421.png
subject-02,1,321,0.926597833633423,keyboard,keyboard,1-10-10,0321_eid_s02_1-10-10_keyboard_10_n03085013_22719.png
subject-02,1,322,0.99230694770813,bird,chair,64-10-10,0322_eid_s02_64-10-10_chair_10_n02791124_1358.png
subject-02,1,323,0.886207103729248,car,car,8-10-10,0323_eid_s02_8-10-10_car_10_n03100240_1262.png
subject-02,1,324,0.881875038146973,airplane,airplane,4-10-10,0324_eid_s02_4-10-10_airplane_10_n02690373_18460.png
subject-02,1,325,0.785892963409424,car,bicycle,8-10-10,0325_eid_s02_8-10-10_bicycle_10_n02835271_419.png
subject-02,1,326,0.991468191146851,bear,car,128-10-10,0326_eid_s02_128-10-10_car_10_n02814533_13533.png
subject-02,1,327,1.44332098960876,knife,truck,64-10-10,0327_eid_s02_64-10-10_truck_10_n03417042_18072.png
subject-02,1,328,1.0954921245575,dog,bottle,128-10-10,0328_eid_s02_128-10-10_bottle_10_n04557648_11046.png
subject-02,1,329,1.30509901046753,cat,clock,32-10-10,0329_eid_s02_32-10-10_clock_10_n04548280_7354.png
subject-02,1,330,1.21271896362305,dog,dog,1-10-10,0330_eid_s02_1-10-10_dog_10_n02098105_4676.png
subject-02,1,331,0.778460025787354,truck,truck,1-10-10,0331_eid_s02_1-10-10_truck_10_n04467665_4840.png
subject-02,1,332,0.664420127868652,keyboard,keyboard,8-10-10,0332_eid_s02_8-10-10_keyboard_10_n04505470_4414.png
subject-02,1,333,NaN,na,knife,2-10-10,0333_eid_s02_2-10-10_knife_10_n03041632_4806.png
subject-02,1,334,0.768296003341675,truck,truck,1-10-10,0334_eid_s02_1-10-10_truck_10_n04467665_72639.png
subject-02,1,335,0.945896863937378,airplane,airplane,8-10-10,0335_eid_s02_8-10-10_airplane_10_n02690373_1663.png
subject-02,1,336,0.911736965179443,bear,bear,8-10-10,0336_eid_s02_8-10-10_bear_10_n02134418_1712.png
subject-02,1,337,0.963441133499146,dog,bottle,128-10-10,0337_eid_s02_128-10-10_bottle_10_n02823428_5961.png
subject-02,1,338,0.781681060791016,keyboard,oven,4-10-10,0338_eid_s02_4-10-10_oven_10_n04111531_3555.png
subject-02,1,339,0.959316968917847,airplane,airplane,4-10-10,0339_eid_s02_4-10-10_airplane_10_n02690373_3859.png
subject-02,1,340,0.837065935134888,bear,clock,64-10-10,0340_eid_s02_64-10-10_clock_10_n02708093_5127.png
subject-02,1,341,0.850645065307617,airplane,airplane,4-10-10,0341_eid_s02_4-10-10_airplane_10_n02690373_4335.png
subject-02,1,342,1.39667391777039,bottle,knife,8-10-10,0342_eid_s02_8-10-10_knife_10_n03041632_19098.png
subject-02,1,343,0.808414936065674,dog,dog,4-10-10,0343_eid_s02_4-10-10_dog_10_n02086079_2896.png
subject-02,1,344,0.868119955062866,bear,boat,128-10-10,0344_eid_s02_128-10-10_boat_10_n02951358_17867.png
subject-02,1,345,0.882031202316284,bear,bicycle,64-10-10,0345_eid_s02_64-10-10_bicycle_10_n03792782_9004.png
subject-02,1,346,0.839838981628418,car,car,1-10-10,0346_eid_s02_1-10-10_car_10_n02814533_73067.png
subject-02,1,347,0.939635038375854,bear,boat,32-10-10,0347_eid_s02_32-10-10_boat_10_n03662601_21699.png
subject-02,1,348,0.751777172088623,car,car,8-10-10,0348_eid_s02_8-10-10_car_10_n04285008_9464.png
subject-02,1,349,0.859354019165039,cat,chair,128-10-10,0349_eid_s02_128-10-10_chair_10_n02791124_15934.png
subject-02,1,350,1.00552201271057,dog,bear,64-10-10,0350_eid_s02_64-10-10_bear_10_n02134084_22150.png
subject-02,1,351,1.08908700942993,bear,boat,16-10-10,0351_eid_s02_16-10-10_boat_10_n03662601_26231.png
subject-02,1,352,0.82069993019104,cat,bicycle,32-10-10,0352_eid_s02_32-10-10_bicycle_10_n02835271_43.png
subject-02,1,353,0.71634316444397,airplane,airplane,8-10-10,0353_eid_s02_8-10-10_airplane_10_n02690373_4586.png
subject-02,1,354,0.884198904037476,keyboard,clock,8-10-10,0354_eid_s02_8-10-10_clock_10_n03196217_4912.png
subject-02,1,355,1.04652118682861,dog,cat,64-10-10,0355_eid_s02_64-10-10_cat_10_n02124075_20957.png
subject-02,1,356,0.990021944046021,bear,bird,16-10-10,0356_eid_s02_16-10-10_bird_10_n01818515_4663.png
subject-02,1,357,1.03584694862366,bird,elephant,1-10-10,0357_eid_s02_1-10-10_elephant_10_n02504013_8105.png
subject-02,1,358,0.829673051834106,bear,keyboard,128-10-10,0358_eid_s02_128-10-10_keyboard_10_n03085013_3257.png
subject-02,1,359,0.865375995635986,bicycle,bicycle,8-10-10,0359_eid_s02_8-10-10_bicycle_10_n02835271_8105.png
subject-02,1,360,1.03513503074646,dog,elephant,32-10-10,0360_eid_s02_32-10-10_elephant_10_n02504013_2020.png
subject-02,1,361,1.03327989578247,airplane,airplane,1-10-10,0361_eid_s02_1-10-10_airplane_10_n02690373_13324.png
subject-02,1,362,0.912822008132935,boat,knife,64-10-10,0362_eid_s02_64-10-10_knife_10_n03041632_55953.png
subject-02,1,363,0.752681970596313,car,car,8-10-10,0363_eid_s02_8-10-10_car_10_n04285008_11704.png
subject-02,1,364,0.688401937484741,clock,clock,4-10-10,0364_eid_s02_4-10-10_clock_10_n02708093_6850.png
subject-02,1,365,0.740550994873047,cat,chair,8-10-10,0365_eid_s02_8-10-10_chair_10_n04429376_16923.png
subject-02,1,366,0.768032073974609,airplane,knife,16-10-10,0366_eid_s02_16-10-10_knife_10_n03041632_45569.png
subject-02,1,367,0.937960147857666,keyboard,keyboard,2-10-10,0367_eid_s02_2-10-10_keyboard_10_n03085013_24648.png
subject-02,1,368,0.927760124206543,dog,oven,128-10-10,0368_eid_s02_128-10-10_oven_10_n04111531_15635.png
subject-02,1,369,0.971894025802612,cat,keyboard,32-10-10,0369_eid_s02_32-10-10_keyboard_10_n04505470_4486.png
subject-02,1,370,0.937423229217529,car,truck,4-10-10,0370_eid_s02_4-10-10_truck_10_n03417042_7204.png
subject-02,1,371,0.897024154663086,bottle,bottle,4-10-10,0371_eid_s02_4-10-10_bottle_10_n03983396_3028.png
subject-02,1,372,1.01928091049194,airplane,boat,8-10-10,0372_eid_s02_8-10-10_boat_10_n04612504_30617.png
subject-02,1,373,1.01703500747681,boat,elephant,128-10-10,0373_eid_s02_128-10-10_elephant_10_n02504458_3091.png
subject-02,1,374,1.46078395843506,bear,truck,64-10-10,0374_eid_s02_64-10-10_truck_10_n04467665_13898.png
subject-02,1,375,0.838665008544922,clock,clock,1-10-10,0375_eid_s02_1-10-10_clock_10_n02708093_5758.png
subject-02,1,376,0.734194040298462,cat,knife,128-10-10,0376_eid_s02_128-10-10_knife_10_n03041632_21017.png
subject-02,1,377,0.603963851928711,clock,clock,2-10-10,0377_eid_s02_2-10-10_clock_10_n04548280_2616.png
subject-02,1,378,0.82778787612915,elephant,elephant,2-10-10,0378_eid_s02_2-10-10_elephant_10_n02504013_8522.png
subject-02,1,379,0.895725011825562,airplane,airplane,1-10-10,0379_eid_s02_1-10-10_airplane_10_n02690373_5465.png
subject-02,1,380,0.885343074798584,dog,dog,16-10-10,0380_eid_s02_16-10-10_dog_10_n02099601_10407.png
subject-02,1,381,0.85333514213562,bear,car,128-10-10,0381_eid_s02_128-10-10_car_10_n04285008_3150.png
subject-02,1,382,0.919007062911987,bear,cat,16-10-10,0382_eid_s02_16-10-10_cat_10_n02123159_6954.png
subject-02,1,383,0.776968955993652,keyboard,keyboard,16-10-10,0383_eid_s02_16-10-10_keyboard_10_n04505470_3234.png
subject-02,1,384,1.072594165802,dog,bicycle,32-10-10,0384_eid_s02_32-10-10_bicycle_10_n03792782_14935.png
subject-02,1,385,0.950654983520508,cat,clock,64-10-10,0385_eid_s02_64-10-10_clock_10_n03196217_8072.png
subject-02,1,386,0.822299957275391,bear,bear,8-10-10,0386_eid_s02_8-10-10_bear_10_n02134084_22349.png
subject-02,1,387,0.878335952758789,bear,dog,2-10-10,0387_eid_s02_2-10-10_dog_10_n02093647_6358.png
subject-02,1,388,0.805808067321777,chair,chair,1-10-10,0388_eid_s02_1-10-10_chair_10_n03376595_6865.png
subject-02,1,389,1.36368799209595,bird,bird,2-10-10,0389_eid_s02_2-10-10_bird_10_n02009912_20610.png
subject-02,1,390,0.737630844116211,elephant,elephant,1-10-10,0390_eid_s02_1-10-10_elephant_10_n02504458_220.png
subject-02,1,391,0.837218999862671,bear,car,64-10-10,0391_eid_s02_64-10-10_car_10_n04285008_12101.png
subject-02,1,392,0.713408946990967,bicycle,bicycle,1-10-10,0392_eid_s02_1-10-10_bicycle_10_n03792782_11115.png
subject-02,1,393,0.678985118865967,cat,cat,4-10-10,0393_eid_s02_4-10-10_cat_10_n02123045_1902.png
subject-02,1,394,0.669096946716309,cat,cat,32-10-10,0394_eid_s02_32-10-10_cat_10_n02123394_571.png
subject-02,1,395,1.05678701400757,bear,bicycle,16-10-10,0395_eid_s02_16-10-10_bicycle_10_n02835271_23173.png
subject-02,1,396,0.710325956344604,elephant,elephant,2-10-10,0396_eid_s02_2-10-10_elephant_10_n02504013_2832.png
subject-02,1,397,0.770271062850952,dog,dog,64-10-10,0397_eid_s02_64-10-10_dog_10_n02096294_2233.png
subject-02,1,398,1.13598322868347,airplane,airplane,64-10-10,0398_eid_s02_64-10-10_airplane_10_n02690373_2217.png
subject-02,1,399,1.06395316123962,cat,knife,128-10-10,0399_eid_s02_128-10-10_knife_10_n03041632_20770.png
subject-02,1,400,0.747670888900757,oven,clock,64-10-10,0400_eid_s02_64-10-10_clock_10_n03196217_9065.png
subject-02,1,401,1.04465293884277,cat,chair,64-10-10,0401_eid_s02_64-10-10_chair_10_n04429376_11956.png
subject-02,1,402,1.39425301551819,oven,oven,2-10-10,0402_eid_s02_2-10-10_oven_10_n04111531_3193.png
subject-02,1,403,0.844408988952637,oven,elephant,16-10-10,0403_eid_s02_16-10-10_elephant_10_n02504458_4708.png
subject-02,1,404,0.989969968795776,bear,keyboard,128-10-10,0404_eid_s02_128-10-10_keyboard_10_n03085013_5568.png
subject-02,1,405,1.02768898010254,bicycle,bicycle,1-10-10,0405_eid_s02_1-10-10_bicycle_10_n03792782_33116.png
subject-02,1,406,1.3134388923645,dog,oven,8-10-10,0406_eid_s02_8-10-10_oven_10_n04111531_15710.png
subject-02,1,407,0.967400074005127,knife,knife,2-10-10,0407_eid_s02_2-10-10_knife_10_n03041632_4279.png
subject-02,1,408,0.785167932510376,chair,chair,1-10-10,0408_eid_s02_1-10-10_chair_10_n02791124_3570.png
subject-02,1,409,0.897207021713257,dog,dog,8-10-10,0409_eid_s02_8-10-10_dog_10_n02086646_6773.png
subject-02,1,410,1.1391019821167,bird,bicycle,32-10-10,0410_eid_s02_32-10-10_bicycle_10_n02835271_13505.png
subject-02,1,411,1.15256905555725,dog,dog,8-10-10,0411_eid_s02_8-10-10_dog_10_n02102040_994.png
subject-02,1,412,0.712650060653687,bird,bird,1-10-10,0412_eid_s02_1-10-10_bird_10_n02025239_5287.png
subject-02,1,413,0.970518112182617,bear,cat,128-10-10,0413_eid_s02_128-10-10_cat_10_n02123045_7829.png
subject-02,1,414,0.742637157440186,airplane,airplane,4-10-10,0414_eid_s02_4-10-10_airplane_10_n02690373_6516.png
subject-02,1,415,1.016037940979,cat,oven,128-10-10,0415_eid_s02_128-10-10_oven_10_n04111531_2796.png
subject-02,1,416,0.70788311958313,cat,cat,4-10-10,0416_eid_s02_4-10-10_cat_10_n02124075_14881.png
subject-02,1,417,1.05965399742126,dog,boat,8-10-10,0417_eid_s02_8-10-10_boat_10_n02951358_34653.png
subject-02,1,418,0.779442071914673,truck,truck,8-10-10,0418_eid_s02_8-10-10_truck_10_n03796401_24341.png
subject-02,1,419,0.863088846206665,elephant,elephant,8-10-10,0419_eid_s02_8-10-10_elephant_10_n02504458_3342.png
subject-02,1,420,0.883006811141968,bottle,bottle,2-10-10,0420_eid_s02_2-10-10_bottle_10_n02823428_7810.png
subject-02,1,421,1.03693103790283,dog,bear,32-10-10,0421_eid_s02_32-10-10_bear_10_n02134084_6854.png
subject-02,1,422,0.892712831497192,bottle,bottle,2-10-10,0422_eid_s02_2-10-10_bottle_10_n04579145_3415.png
subject-02,1,423,1.16641807556152,dog,cat,32-10-10,0423_eid_s02_32-10-10_cat_10_n02123159_1598.png
subject-02,1,424,1.03632497787476,truck,car,16-10-10,0424_eid_s02_16-10-10_car_10_n04285008_10802.png
subject-02,1,425,0.7359619140625,keyboard,keyboard,2-10-10,0425_eid_s02_2-10-10_keyboard_10_n03085013_13005.png
subject-02,1,426,0.757725954055786,knife,knife,16-10-10,0426_eid_s02_16-10-10_knife_10_n03041632_56172.png
subject-02,1,427,1.30166101455688,bird,cat,1-10-10,0427_eid_s02_1-10-10_cat_10_n02125311_35338.png
subject-02,1,428,1.24530982971191,oven,oven,2-10-10,0428_eid_s02_2-10-10_oven_10_n04111531_8818.png
subject-02,1,429,0.739171028137207,cat,cat,2-10-10,0429_eid_s02_2-10-10_cat_10_n02123045_3593.png
subject-02,1,430,0.933001041412354,car,car,32-10-10,0430_eid_s02_32-10-10_car_10_n04285008_8838.png
subject-02,1,431,1.2488489151001,knife,chair,8-10-10,0431_eid_s02_8-10-10_chair_10_n02791124_5191.png
subject-02,1,432,0.864670038223267,dog,bicycle,64-10-10,0432_eid_s02_64-10-10_bicycle_10_n02835271_18361.png
subject-02,1,433,0.924585819244385,car,car,8-10-10,0433_eid_s02_8-10-10_car_10_n02814533_39807.png
subject-02,1,434,0.74226713180542,keyboard,keyboard,1-10-10,0434_eid_s02_1-10-10_keyboard_10_n04505470_2389.png
subject-02,1,435,0.786137104034424,cat,cat,128-10-10,0435_eid_s02_128-10-10_cat_10_n02123394_1757.png
subject-02,1,436,0.687921047210693,boat,boat,4-10-10,0436_eid_s02_4-10-10_boat_10_n03662601_81.png
subject-02,1,437,0.921709060668945,knife,bottle,8-10-10,0437_eid_s02_8-10-10_bottle_10_n03937543_4763.png
subject-02,1,438,0.754151821136475,bear,bear,4-10-10,0438_eid_s02_4-10-10_bear_10_n02132136_2771.png
subject-02,1,439,1.01757001876831,dog,knife,32-10-10,0439_eid_s02_32-10-10_knife_10_n03041632_44212.png
subject-02,1,440,0.945204973220825,bird,bird,2-10-10,0440_eid_s02_2-10-10_bird_10_n01855672_9673.png
subject-02,1,441,1.11302304267883,truck,truck,2-10-10,0441_eid_s02_2-10-10_truck_10_n04467665_55499.png
subject-02,1,442,0.845180988311768,cat,keyboard,128-10-10,0442_eid_s02_128-10-10_keyboard_10_n03085013_24963.png
subject-02,1,443,0.773045063018799,airplane,airplane,16-10-10,0443_eid_s02_16-10-10_airplane_10_n02690373_4183.png
subject-02,1,444,1.45076012611389,oven,oven,1-10-10,0444_eid_s02_1-10-10_oven_10_n04111531_2385.png
subject-02,1,445,0.846182107925415,keyboard,oven,8-10-10,0445_eid_s02_8-10-10_oven_10_n04111531_20511.png
subject-02,1,446,1.43828821182251,cat,chair,128-10-10,0446_eid_s02_128-10-10_chair_10_n02791124_2343.png
subject-02,1,447,1.28776288032532,bird,chair,64-10-10,0447_eid_s02_64-10-10_chair_10_n04099969_4541.png
subject-02,1,448,1.37970399856567,bear,clock,16-10-10,0448_eid_s02_16-10-10_clock_10_n04548280_8668.png
subject-02,1,449,0.861742973327637,dog,dog,2-10-10,0449_eid_s02_2-10-10_dog_10_n02108551_13160.png
subject-02,1,450,0.859529972076416,bear,car,128-10-10,0450_eid_s02_128-10-10_car_10_n04285008_12169.png
subject-02,1,451,0.68917989730835,chair,chair,1-10-10,0451_eid_s02_1-10-10_chair_10_n03376595_787.png
subject-02,1,452,1.01708102226257,knife,knife,2-10-10,0452_eid_s02_2-10-10_knife_10_n03041632_7064.png
subject-02,1,453,1.34273791313171,knife,knife,32-10-10,0453_eid_s02_32-10-10_knife_10_n03041632_5302.png
subject-02,1,454,0.854660987854004,bear,bear,128-10-10,0454_eid_s02_128-10-10_bear_10_n02132136_3873.png
subject-02,1,455,0.898370981216431,dog,knife,8-10-10,0455_eid_s02_8-10-10_knife_10_n03041632_11326.png
subject-02,1,456,0.912235021591187,boat,bird,128-10-10,0456_eid_s02_128-10-10_bird_10_n02033041_617.png
subject-02,1,457,0.958131074905396,bear,clock,128-10-10,0457_eid_s02_128-10-10_clock_10_n02708093_7883.png
subject-02,1,458,0.852015018463135,keyboard,keyboard,16-10-10,0458_eid_s02_16-10-10_keyboard_10_n03085013_10660.png
subject-02,1,459,1.06944394111633,knife,knife,1-10-10,0459_eid_s02_1-10-10_knife_10_n03041632_89391.png
subject-02,1,460,0.927397012710571,dog,bottle,64-10-10,0460_eid_s02_64-10-10_bottle_10_n03983396_8982.png
subject-02,1,461,0.955178022384644,dog,dog,4-10-10,0461_eid_s02_4-10-10_dog_10_n02091032_8315.png
subject-02,1,462,1.00912499427795,bear,boat,128-10-10,0462_eid_s02_128-10-10_boat_10_n02951358_9550.png
subject-02,1,463,0.960755109786987,truck,truck,4-10-10,0463_eid_s02_4-10-10_truck_10_n03417042_6420.png
subject-02,1,464,0.886591911315918,bear,bear,8-10-10,0464_eid_s02_8-10-10_bear_10_n02132136_6266.png
subject-02,1,465,0.902411937713623,elephant,elephant,8-10-10,0465_eid_s02_8-10-10_elephant_10_n02504458_4448.png
subject-02,1,466,0.672323942184448,car,car,2-10-10,0466_eid_s02_2-10-10_car_10_n03100240_5308.png
subject-02,1,467,0.786113023757935,bear,car,64-10-10,0467_eid_s02_64-10-10_car_10_n04285008_3280.png
subject-02,1,468,0.900094032287598,cat,cat,8-10-10,0468_eid_s02_8-10-10_cat_10_n02123045_10834.png
subject-02,1,469,0.823769092559814,boat,boat,32-10-10,0469_eid_s02_32-10-10_boat_10_n04273569_5679.png
subject-02,1,470,0.869513034820557,dog,dog,1-10-10,0470_eid_s02_1-10-10_dog_10_n02092339_1691.png
subject-02,1,471,1.18544507026672,dog,knife,64-10-10,0471_eid_s02_64-10-10_knife_10_n03041632_33424.png
subject-02,1,472,1.1312530040741,elephant,bottle,32-10-10,0472_eid_s02_32-10-10_bottle_10_n03983396_4321.png
subject-02,1,473,0.84700608253479,bird,bird,1-10-10,0473_eid_s02_1-10-10_bird_10_n01855032_4905.png
subject-02,1,474,1.00892901420593,bear,oven,4-10-10,0474_eid_s02_4-10-10_oven_10_n04111531_9712.png
subject-02,1,475,0.84275221824646,bicycle,bicycle,8-10-10,0475_eid_s02_8-10-10_bicycle_10_n02835271_12782.png
subject-02,1,476,0.964539051055908,knife,knife,2-10-10,0476_eid_s02_2-10-10_knife_10_n03041632_51339.png
subject-02,1,477,0.860261917114258,dog,elephant,128-10-10,0477_eid_s02_128-10-10_elephant_10_n02504458_5333.png
subject-02,1,478,0.788328886032104,car,car,2-10-10,0478_eid_s02_2-10-10_car_10_n04285008_16701.png
subject-02,1,479,0.817918062210083,bear,truck,32-10-10,0479_eid_s02_32-10-10_truck_10_n03417042_18152.png
subject-02,1,480,1.26971983909607,car,car,2-10-10,0480_eid_s02_2-10-10_car_10_n04285008_4640.png
subject-02,1,481,0.768468141555786,airplane,airplane,1-10-10,0481_eid_s02_1-10-10_airplane_10_n02690373_18848.png
subject-02,1,482,0.952152013778687,elephant,boat,32-10-10,0482_eid_s02_32-10-10_boat_10_n03662601_1158.png
subject-02,1,483,0.668105840682983,bird,bird,2-10-10,0483_eid_s02_2-10-10_bird_10_n02027492_10281.png
subject-02,1,484,1.24782991409302,dog,cat,16-10-10,0484_eid_s02_16-10-10_cat_10_n02123045_5157.png
subject-02,1,485,0.759963989257812,boat,boat,8-10-10,0485_eid_s02_8-10-10_boat_10_n04273569_3401.png
subject-02,1,486,0.631314992904663,clock,clock,1-10-10,0486_eid_s02_1-10-10_clock_10_n02708093_798.png
subject-02,1,487,0.6772780418396,car,car,32-10-10,0487_eid_s02_32-10-10_car_10_n04285008_12333.png
subject-02,1,488,0.933061838150024,cat,clock,64-10-10,0488_eid_s02_64-10-10_clock_10_n02708093_5126.png
subject-02,1,489,0.654906988143921,airplane,airplane,8-10-10,0489_eid_s02_8-10-10_airplane_10_n02690373_8461.png
subject-02,1,490,0.81302809715271,keyboard,keyboard,16-10-10,0490_eid_s02_16-10-10_keyboard_10_n04505470_1067.png
subject-02,1,491,1.08266687393188,elephant,elephant,4-10-10,0491_eid_s02_4-10-10_elephant_10_n02504458_7258.png
subject-02,1,492,0.742426872253418,elephant,elephant,16-10-10,0492_eid_s02_16-10-10_elephant_10_n02504013_2619.png
subject-02,1,493,0.868051052093506,chair,chair,8-10-10,0493_eid_s02_8-10-10_chair_10_n04099969_4374.png
subject-02,1,494,0.761945962905884,cat,truck,128-10-10,0494_eid_s02_128-10-10_truck_10_n03417042_10154.png
subject-02,1,495,0.939721822738647,chair,chair,4-10-10,0495_eid_s02_4-10-10_chair_10_n04429376_30620.png
subject-02,1,496,0.713686943054199,chair,chair,2-10-10,0496_eid_s02_2-10-10_chair_10_n04429376_55747.png
subject-02,1,497,1.08568692207336,bird,clock,128-10-10,0497_eid_s02_128-10-10_clock_10_n04548280_8841.png
subject-02,1,498,0.761269092559814,boat,elephant,64-10-10,0498_eid_s02_64-10-10_elephant_10_n02504013_7209.png
subject-02,1,499,0.651027917861938,cat,keyboard,128-10-10,0499_eid_s02_128-10-10_keyboard_10_n03085013_19882.png
subject-02,1,500,0.76272988319397,knife,knife,4-10-10,0500_eid_s02_4-10-10_knife_10_n03041632_40450.png
subject-02,1,501,1.2148129940033,knife,keyboard,32-10-10,0501_eid_s02_32-10-10_keyboard_10_n03085013_23814.png
subject-02,1,502,0.750782012939453,dog,dog,8-10-10,0502_eid_s02_8-10-10_dog_10_n02105641_10264.png
subject-02,1,503,1.01834607124329,elephant,elephant,8-10-10,0503_eid_s02_8-10-10_elephant_10_n02504458_4593.png
subject-02,1,504,0.700073003768921,cat,cat,8-10-10,0504_eid_s02_8-10-10_cat_10_n02123597_13890.png
subject-02,1,505,0.865962982177734,bear,chair,128-10-10,0505_eid_s02_128-10-10_chair_10_n02791124_3241.png
subject-02,1,506,0.673759937286377,dog,bear,32-10-10,0506_eid_s02_32-10-10_bear_10_n02134418_4050.png
subject-02,1,507,0.695554971694946,cat,knife,32-10-10,0507_eid_s02_32-10-10_knife_10_n03041632_2630.png
subject-02,1,508,0.677174091339111,airplane,airplane,4-10-10,0508_eid_s02_4-10-10_airplane_10_n02690373_166.png
subject-02,1,509,0.939443111419678,knife,knife,1-10-10,0509_eid_s02_1-10-10_knife_10_n03041632_9488.png
subject-02,1,510,1.08697700500488,boat,bird,8-10-10,0510_eid_s02_8-10-10_bird_10_n01582220_4708.png
subject-02,1,511,0.880661010742188,airplane,boat,128-10-10,0511_eid_s02_128-10-10_boat_10_n04273569_1482.png
subject-02,1,512,0.730613946914673,keyboard,keyboard,2-10-10,0512_eid_s02_2-10-10_keyboard_10_n04505470_4624.png
subject-02,1,513,0.876268148422241,elephant,elephant,16-10-10,0513_eid_s02_16-10-10_elephant_10_n02504458_3458.png
subject-02,1,514,0.842388868331909,dog,dog,16-10-10,0514_eid_s02_16-10-10_dog_10_n02086646_7544.png
subject-02,1,515,0.887969970703125,bear,bottle,128-10-10,0515_eid_s02_128-10-10_bottle_10_n04560804_15963.png
subject-02,1,516,0.86990213394165,boat,bear,8-10-10,0516_eid_s02_8-10-10_bear_10_n02132136_2203.png
subject-02,1,517,0.699522972106934,cat,oven,32-10-10,0517_eid_s02_32-10-10_oven_10_n04111531_101.png
subject-02,1,518,0.697487831115723,bicycle,bicycle,4-10-10,0518_eid_s02_4-10-10_bicycle_10_n03792782_37777.png
subject-02,1,519,0.909085035324097,airplane,boat,16-10-10,0519_eid_s02_16-10-10_boat_10_n03662601_2980.png
subject-02,1,520,0.725070953369141,car,car,4-10-10,0520_eid_s02_4-10-10_car_10_n04285008_2081.png
subject-02,1,521,1.09914493560791,dog,bottle,32-10-10,0521_eid_s02_32-10-10_bottle_10_n03937543_2209.png
subject-02,1,522,0.764729976654053,bird,bird,1-10-10,0522_eid_s02_1-10-10_bird_10_n01860187_18561.png
subject-02,1,523,0.802551031112671,clock,clock,16-10-10,0523_eid_s02_16-10-10_clock_10_n04548280_3219.png
subject-02,1,524,0.714224100112915,cat,knife,32-10-10,0524_eid_s02_32-10-10_knife_10_n03041632_26340.png
subject-02,1,525,0.780089139938354,elephant,elephant,16-10-10,0525_eid_s02_16-10-10_elephant_10_n02504013_8563.png
subject-02,1,526,0.93590784072876,knife,knife,1-10-10,0526_eid_s02_1-10-10_knife_10_n03041632_32350.png
subject-02,1,527,0.799804925918579,bird,airplane,32-10-10,0527_eid_s02_32-10-10_airplane_10_n02690373_6831.png
subject-02,1,528,0.813505172729492,boat,boat,1-10-10,0528_eid_s02_1-10-10_boat_10_n03344393_9268.png
subject-02,1,529,1.2176570892334,dog,bottle,64-10-10,0529_eid_s02_64-10-10_bottle_10_n02823428_6418.png
subject-02,1,530,1.03535294532776,boat,boat,4-10-10,0530_eid_s02_4-10-10_boat_10_n03344393_732.png
subject-02,1,531,0.963245153427124,dog,boat,64-10-10,0531_eid_s02_64-10-10_boat_10_n04612504_14480.png
subject-02,1,532,1.17874789237976,airplane,boat,64-10-10,0532_eid_s02_64-10-10_boat_10_n03344393_4012.png
subject-02,1,533,1.06853699684143,dog,dog,16-10-10,0533_eid_s02_16-10-10_dog_10_n02088238_12552.png
subject-02,1,534,0.930424213409424,car,bicycle,64-10-10,0534_eid_s02_64-10-10_bicycle_10_n02835271_9097.png
subject-02,1,535,0.896295070648193,dog,bottle,32-10-10,0535_eid_s02_32-10-10_bottle_10_n04591713_7561.png
subject-02,1,536,0.907904148101807,bear,knife,16-10-10,0536_eid_s02_16-10-10_knife_10_n03041632_25772.png
subject-02,1,537,0.929727077484131,cat,chair,64-10-10,0537_eid_s02_64-10-10_chair_10_n03376595_2393.png
subject-02,1,538,0.769707918167114,bear,clock,128-10-10,0538_eid_s02_128-10-10_clock_10_n03196217_9380.png
subject-02,1,539,0.861406087875366,chair,chair,1-10-10,0539_eid_s02_1-10-10_chair_10_n04099969_3611.png
subject-02,1,540,0.671552896499634,clock,clock,1-10-10,0540_eid_s02_1-10-10_clock_10_n04548280_748.png
subject-02,1,541,0.757123947143555,boat,boat,4-10-10,0541_eid_s02_4-10-10_boat_10_n04273569_1388.png
subject-02,1,542,0.972833871841431,dog,keyboard,128-10-10,0542_eid_s02_128-10-10_keyboard_10_n03085013_19775.png
subject-02,1,543,0.74260687828064,keyboard,keyboard,8-10-10,0543_eid_s02_8-10-10_keyboard_10_n04505470_4458.png
subject-02,1,544,0.780459880828857,cat,cat,8-10-10,0544_eid_s02_8-10-10_cat_10_n02123597_10941.png
subject-02,1,545,0.542750835418701,clock,clock,2-10-10,0545_eid_s02_2-10-10_clock_10_n04548280_7083.png
subject-02,1,546,0.812046051025391,dog,dog,4-10-10,0546_eid_s02_4-10-10_dog_10_n02111500_4875.png
subject-02,1,547,0.833924770355225,knife,knife,1-10-10,0547_eid_s02_1-10-10_knife_10_n03041632_8468.png
subject-02,1,548,0.925806999206543,bear,cat,128-10-10,0548_eid_s02_128-10-10_cat_10_n02124075_8320.png
subject-02,1,549,0.797600984573364,chair,chair,1-10-10,0549_eid_s02_1-10-10_chair_10_n03376595_14729.png
subject-02,1,550,0.905462980270386,knife,knife,32-10-10,0550_eid_s02_32-10-10_knife_10_n03041632_3717.png
subject-02,1,551,0.947200059890747,cat,keyboard,16-10-10,0551_eid_s02_16-10-10_keyboard_10_n04505470_6327.png
subject-02,1,552,1.1092369556427,boat,boat,32-10-10,0552_eid_s02_32-10-10_boat_10_n04612504_8719.png
subject-02,1,553,0.942883968353271,dog,bicycle,16-10-10,0553_eid_s02_16-10-10_bicycle_10_n02835271_4742.png
subject-02,1,554,0.908674001693726,elephant,elephant,1-10-10,0554_eid_s02_1-10-10_elephant_10_n02504458_3885.png
subject-02,1,555,1.11067199707031,bear,chair,128-10-10,0555_eid_s02_128-10-10_chair_10_n03376595_5972.png
subject-02,1,556,0.942180871963501,car,car,128-10-10,0556_eid_s02_128-10-10_car_10_n03100240_3858.png
subject-02,1,557,0.993997097015381,bird,airplane,16-10-10,0557_eid_s02_16-10-10_airplane_10_n02690373_9423.png
subject-02,1,558,1.22579908370972,dog,bicycle,64-10-10,0558_eid_s02_64-10-10_bicycle_10_n02835271_15617.png
subject-02,1,559,0.823786020278931,cat,cat,32-10-10,0559_eid_s02_32-10-10_cat_10_n02123045_10171.png
subject-02,1,560,0.947422981262207,dog,clock,64-10-10,0560_eid_s02_64-10-10_clock_10_n02708093_6560.png
subject-02,1,561,1.30777597427368,boat,bicycle,64-10-10,0561_eid_s02_64-10-10_bicycle_10_n03792782_14492.png
subject-02,1,562,0.881739854812622,car,car,4-10-10,0562_eid_s02_4-10-10_car_10_n03100240_8702.png
subject-02,1,563,1.08746600151062,bear,bear,32-10-10,0563_eid_s02_32-10-10_bear_10_n02132136_8754.png
subject-02,1,564,0.897202014923096,elephant,bear,4-10-10,0564_eid_s02_4-10-10_bear_10_n02132136_1646.png
subject-02,1,565,0.760888814926147,clock,chair,4-10-10,0565_eid_s02_4-10-10_chair_10_n04429376_57014.png
subject-02,1,566,0.938599824905396,oven,truck,64-10-10,0566_eid_s02_64-10-10_truck_10_n03417042_5406.png
subject-02,1,567,0.780606031417847,bottle,cat,128-10-10,0567_eid_s02_128-10-10_cat_10_n02123045_1438.png
subject-02,1,568,0.674165964126587,clock,clock,2-10-10,0568_eid_s02_2-10-10_clock_10_n04548280_3341.png
subject-02,1,569,1.05214190483093,dog,bird,16-10-10,0569_eid_s02_16-10-10_bird_10_n01531178_18032.png
subject-02,1,570,0.931939125061035,bear,chair,64-10-10,0570_eid_s02_64-10-10_chair_10_n04429376_6147.png
subject-02,1,571,0.991873025894165,cat,car,128-10-10,0571_eid_s02_128-10-10_car_10_n04285008_2560.png
subject-02,1,572,0.777647972106934,bear,bear,2-10-10,0572_eid_s02_2-10-10_bear_10_n02134084_2959.png
subject-02,1,573,0.885546922683716,dog,cat,16-10-10,0573_eid_s02_16-10-10_cat_10_n02123045_15476.png
subject-02,1,574,0.717514038085938,airplane,airplane,2-10-10,0574_eid_s02_2-10-10_airplane_10_n02690373_9247.png
subject-02,1,575,0.887040853500366,cat,keyboard,64-10-10,0575_eid_s02_64-10-10_keyboard_10_n04505470_1651.png
subject-02,1,576,0.89275598526001,bear,dog,32-10-10,0576_eid_s02_32-10-10_dog_10_n02096294_1498.png
subject-02,1,577,0.840655088424683,bird,bottle,32-10-10,0577_eid_s02_32-10-10_bottle_10_n04591713_6024.png
subject-02,1,578,0.774554014205933,bicycle,bicycle,2-10-10,0578_eid_s02_2-10-10_bicycle_10_n02835271_634.png
subject-02,1,579,1.03015899658203,bicycle,bicycle,4-10-10,0579_eid_s02_4-10-10_bicycle_10_n03792782_9432.png
subject-02,1,580,0.974433898925781,dog,keyboard,32-10-10,0580_eid_s02_32-10-10_keyboard_10_n04505470_5036.png
subject-02,1,581,0.979892015457153,bear,cat,64-10-10,0581_eid_s02_64-10-10_cat_10_n02123159_7270.png
subject-02,1,582,0.813932180404663,airplane,airplane,2-10-10,0582_eid_s02_2-10-10_airplane_10_n02690373_19074.png
subject-02,1,583,0.887485980987549,knife,bottle,1-10-10,0583_eid_s02_1-10-10_bottle_10_n03983396_4165.png
subject-02,1,584,0.759162187576294,clock,clock,2-10-10,0584_eid_s02_2-10-10_clock_10_n02708093_5551.png
subject-02,1,585,0.959242105484009,dog,bear,32-10-10,0585_eid_s02_32-10-10_bear_10_n02133161_7688.png
subject-02,1,586,1.18312096595764,knife,oven,4-10-10,0586_eid_s02_4-10-10_oven_10_n04111531_8959.png
subject-02,1,587,0.866980075836182,bear,bear,128-10-10,0587_eid_s02_128-10-10_bear_10_n02132136_1624.png
subject-02,1,588,1.18687891960144,airplane,boat,32-10-10,0588_eid_s02_32-10-10_boat_10_n02951358_31973.png
subject-02,1,589,0.87036919593811,car,truck,1-10-10,0589_eid_s02_1-10-10_truck_10_n03796401_2552.png
subject-02,1,590,0.822321891784668,cat,cat,2-10-10,0590_eid_s02_2-10-10_cat_10_n02124075_17347.png
subject-02,1,591,0.782061100006104,oven,oven,1-10-10,0591_eid_s02_1-10-10_oven_10_n04111531_6172.png
subject-02,1,592,0.715935945510864,cat,bottle,16-10-10,0592_eid_s02_16-10-10_bottle_10_n03983396_486.png
subject-02,1,593,1.05165195465088,bottle,clock,128-10-10,0593_eid_s02_128-10-10_clock_10_n02708093_2845.png
subject-02,1,594,0.789676904678345,boat,boat,1-10-10,0594_eid_s02_1-10-10_boat_10_n04612504_214.png
subject-02,1,595,0.755218029022217,airplane,airplane,4-10-10,0595_eid_s02_4-10-10_airplane_10_n02690373_1489.png
subject-02,1,596,1.01902318000793,cat,clock,16-10-10,0596_eid_s02_16-10-10_clock_10_n04548280_6337.png
subject-02,1,597,1.00910496711731,bear,boat,32-10-10,0597_eid_s02_32-10-10_boat_10_n03344393_6978.png
subject-02,1,598,0.906911849975586,cat,dog,64-10-10,0598_eid_s02_64-10-10_dog_10_n02088364_14369.png
subject-02,1,599,0.924950122833252,bottle,bottle,4-10-10,0599_eid_s02_4-10-10_bottle_10_n04579145_1856.png
subject-02,1,600,1.24021816253662,bird,oven,64-10-10,0600_eid_s02_64-10-10_oven_10_n04111531_14126.png
subject-02,1,601,0.706156015396118,clock,clock,4-10-10,0601_eid_s02_4-10-10_clock_10_n03196217_8706.png
subject-02,1,602,0.897857904434204,keyboard,keyboard,16-10-10,0602_eid_s02_16-10-10_keyboard_10_n04505470_4854.png
subject-02,1,603,0.817857980728149,chair,chair,1-10-10,0603_eid_s02_1-10-10_chair_10_n04099969_24378.png
subject-02,1,604,0.80750298500061,dog,dog,4-10-10,0604_eid_s02_4-10-10_dog_10_n02086079_4143.png
subject-02,1,605,0.757797956466675,truck,truck,2-10-10,0605_eid_s02_2-10-10_truck_10_n04467665_20700.png
subject-02,1,606,1.31116700172424,bottle,boat,16-10-10,0606_eid_s02_16-10-10_boat_10_n02951358_2013.png
subject-02,1,607,0.697213888168335,car,car,16-10-10,0607_eid_s02_16-10-10_car_10_n02814533_7247.png
subject-02,1,608,0.772850036621094,cat,dog,128-10-10,0608_eid_s02_128-10-10_dog_10_n02096294_1260.png
subject-02,1,609,1.05871987342834,airplane,elephant,64-10-10,0609_eid_s02_64-10-10_elephant_10_n02504458_1985.png
subject-02,1,610,1.06243801116943,dog,oven,32-10-10,0610_eid_s02_32-10-10_oven_10_n04111531_4879.png
subject-02,1,611,0.89423394203186,elephant,elephant,4-10-10,0611_eid_s02_4-10-10_elephant_10_n02504013_13766.png
subject-02,1,612,0.896083116531372,bear,bottle,16-10-10,0612_eid_s02_16-10-10_bottle_10_n04557648_3599.png
subject-02,1,613,0.969897985458374,car,truck,32-10-10,0613_eid_s02_32-10-10_truck_10_n03417042_3228.png
subject-02,1,614,0.879647970199585,dog,keyboard,64-10-10,0614_eid_s02_64-10-10_keyboard_10_n03085013_19891.png
subject-02,1,615,0.729432106018066,bird,bird,8-10-10,0615_eid_s02_8-10-10_bird_10_n01601694_5060.png
subject-02,1,616,0.73565411567688,cat,bear,32-10-10,0616_eid_s02_32-10-10_bear_10_n02132136_9557.png
subject-02,1,617,0.719105005264282,bear,bear,8-10-10,0617_eid_s02_8-10-10_bear_10_n02133161_1244.png
subject-02,1,618,0.891288042068481,boat,boat,1-10-10,0618_eid_s02_1-10-10_boat_10_n03344393_1178.png
subject-02,1,619,1.02297616004944,bear,bird,32-10-10,0619_eid_s02_32-10-10_bird_10_n01824575_12101.png
subject-02,1,620,0.830726861953735,elephant,chair,16-10-10,0620_eid_s02_16-10-10_chair_10_n02791124_146.png
subject-02,1,621,0.946299076080322,keyboard,bottle,16-10-10,0621_eid_s02_16-10-10_bottle_10_n04557648_2052.png
subject-02,1,622,1.12408399581909,bottle,bottle,16-10-10,0622_eid_s02_16-10-10_bottle_10_n03983396_11402.png
subject-02,1,623,1.14402389526367,cat,cat,8-10-10,0623_eid_s02_8-10-10_cat_10_n02123159_13604.png
subject-02,1,624,0.819617986679077,bottle,bottle,16-10-10,0624_eid_s02_16-10-10_bottle_10_n04579145_5777.png
subject-02,1,625,1.23768305778503,bird,chair,64-10-10,0625_eid_s02_64-10-10_chair_10_n02791124_3656.png
subject-02,1,626,0.913286924362183,bear,bird,128-10-10,0626_eid_s02_128-10-10_bird_10_n02013706_6676.png
subject-02,1,627,NaN,na,bottle,32-10-10,0627_eid_s02_32-10-10_bottle_10_n03937543_1658.png
subject-02,1,628,0.95907998085022,dog,dog,1-10-10,0628_eid_s02_1-10-10_dog_10_n02105641_10948.png
subject-02,1,629,1.00095391273499,bear,clock,128-10-10,0629_eid_s02_128-10-10_clock_10_n03196217_11714.png
subject-02,1,630,0.724708080291748,bird,bird,4-10-10,0630_eid_s02_4-10-10_bird_10_n01824575_4470.png
subject-02,1,631,0.884797096252441,cat,keyboard,64-10-10,0631_eid_s02_64-10-10_keyboard_10_n04505470_1040.png
subject-02,1,632,0.882520914077759,bird,bird,4-10-10,0632_eid_s02_4-10-10_bird_10_n01530575_35977.png
subject-02,1,633,0.818305969238281,dog,dog,2-10-10,0633_eid_s02_2-10-10_dog_10_n02110806_5427.png
subject-02,1,634,0.776093006134033,cat,cat,8-10-10,0634_eid_s02_8-10-10_cat_10_n02125311_2923.png
subject-02,1,635,0.967832088470459,bear,bear,16-10-10,0635_eid_s02_16-10-10_bear_10_n02133161_1234.png
subject-02,1,636,1.50006198883057,chair,chair,16-10-10,0636_eid_s02_16-10-10_chair_10_n04429376_11720.png
subject-02,1,637,1.03754496574402,oven,oven,1-10-10,0637_eid_s02_1-10-10_oven_10_n04111531_4749.png
subject-02,1,638,0.67719292640686,airplane,airplane,16-10-10,0638_eid_s02_16-10-10_airplane_10_n02690373_10402.png
subject-02,1,639,0.793247938156128,oven,oven,4-10-10,0639_eid_s02_4-10-10_oven_10_n04111531_2116.png
subject-02,1,640,0.734853029251099,cat,cat,4-10-10,0640_eid_s02_4-10-10_cat_10_n02123159_491.png
subject-02,1,641,0.807844877243042,bear,bear,1-10-10,0641_eid_s02_1-10-10_bear_10_n02132136_7647.png
subject-02,1,642,1.02148103713989,bird,dog,32-10-10,0642_eid_s02_32-10-10_dog_10_n02088466_9891.png
subject-02,1,643,0.941376924514771,truck,truck,2-10-10,0643_eid_s02_2-10-10_truck_10_n03417042_3789.png
subject-02,1,644,0.759186983108521,bicycle,bicycle,8-10-10,0644_eid_s02_8-10-10_bicycle_10_n02835271_12173.png
subject-02,1,645,0.999029874801636,cat,cat,4-10-10,0645_eid_s02_4-10-10_cat_10_n02123159_273.png
subject-02,1,646,0.644715070724487,car,car,8-10-10,0646_eid_s02_8-10-10_car_10_n04285008_12589.png
subject-02,1,647,0.728398084640503,bird,bird,16-10-10,0647_eid_s02_16-10-10_bird_10_n01616318_8488.png
subject-02,1,648,0.966311931610107,elephant,bottle,64-10-10,0648_eid_s02_64-10-10_bottle_10_n04557648_11440.png
subject-02,1,649,0.702363014221191,cat,bird,32-10-10,0649_eid_s02_32-10-10_bird_10_n02009912_5714.png
subject-02,1,650,1.02046918869019,bicycle,knife,1-10-10,0650_eid_s02_1-10-10_knife_10_n03041632_31849.png
subject-02,1,651,0.713859796524048,cat,keyboard,128-10-10,0651_eid_s02_128-10-10_keyboard_10_n03085013_23030.png
subject-02,1,652,0.725794076919556,bicycle,bicycle,16-10-10,0652_eid_s02_16-10-10_bicycle_10_n03792782_15898.png
subject-02,1,653,0.829538106918335,boat,boat,2-10-10,0653_eid_s02_2-10-10_boat_10_n03344393_2254.png
subject-02,1,654,0.76337718963623,cat,cat,1-10-10,0654_eid_s02_1-10-10_cat_10_n02123394_2347.png
subject-02,1,655,1.20342016220093,dog,bear,32-10-10,0655_eid_s02_32-10-10_bear_10_n02134084_20500.png
subject-02,1,656,0.816847085952759,chair,chair,1-10-10,0656_eid_s02_1-10-10_chair_10_n03376595_6938.png
subject-02,1,657,0.900806903839111,bottle,elephant,64-10-10,0657_eid_s02_64-10-10_elephant_10_n02504013_978.png
subject-02,1,658,0.764863014221191,bear,oven,64-10-10,0658_eid_s02_64-10-10_oven_10_n04111531_1818.png
subject-02,1,659,0.888383865356445,cat,oven,16-10-10,0659_eid_s02_16-10-10_oven_10_n04111531_8181.png
subject-02,1,660,1.02854704856873,bird,oven,64-10-10,0660_eid_s02_64-10-10_oven_10_n04111531_7356.png
subject-02,1,661,1.17994403839111,cat,clock,8-10-10,0661_eid_s02_8-10-10_clock_10_n03196217_6689.png
subject-02,1,662,0.739835977554321,bear,bicycle,64-10-10,0662_eid_s02_64-10-10_bicycle_10_n02835271_19019.png
subject-02,1,663,0.705666065216064,airplane,airplane,8-10-10,0663_eid_s02_8-10-10_airplane_10_n02690373_1563.png
subject-02,1,664,0.885229110717773,chair,chair,16-10-10,0664_eid_s02_16-10-10_chair_10_n02791124_9736.png
subject-02,1,665,0.687350034713745,bear,bear,2-10-10,0665_eid_s02_2-10-10_bear_10_n02134418_8516.png
subject-02,1,666,1.10691905021667,dog,airplane,32-10-10,0666_eid_s02_32-10-10_airplane_10_n02690373_5055.png
subject-02,1,667,0.994584083557129,dog,elephant,16-10-10,0667_eid_s02_16-10-10_elephant_10_n02504458_361.png
subject-02,1,668,0.952559947967529,bird,bird,1-10-10,0668_eid_s02_1-10-10_bird_10_n01537544_26417.png
subject-02,1,669,0.764250993728638,knife,knife,16-10-10,0669_eid_s02_16-10-10_knife_10_n03041632_37513.png
subject-02,1,670,1.04817008972168,elephant,chair,128-10-10,0670_eid_s02_128-10-10_chair_10_n04099969_5233.png
subject-02,1,671,1.16995787620544,dog,chair,32-10-10,0671_eid_s02_32-10-10_chair_10_n03376595_8995.png
subject-02,1,672,1.46398186683655,oven,clock,16-10-10,0672_eid_s02_16-10-10_clock_10_n04548280_6989.png
subject-02,1,673,0.725739002227783,cat,cat,16-10-10,0673_eid_s02_16-10-10_cat_10_n02123045_3568.png
subject-02,1,674,0.769776105880737,bear,elephant,128-10-10,0674_eid_s02_128-10-10_elephant_10_n02504458_8414.png
subject-02,1,675,0.743546009063721,boat,boat,8-10-10,0675_eid_s02_8-10-10_boat_10_n04273569_31172.png
subject-02,1,676,0.629059076309204,boat,boat,8-10-10,0676_eid_s02_8-10-10_boat_10_n04612504_8073.png
subject-02,1,677,0.758988857269287,bottle,bottle,2-10-10,0677_eid_s02_2-10-10_bottle_10_n02823428_4097.png
subject-02,1,678,0.65504002571106,bear,bird,64-10-10,0678_eid_s02_64-10-10_bird_10_n01797886_5310.png
subject-02,1,679,0.714675188064575,clock,clock,4-10-10,0679_eid_s02_4-10-10_clock_10_n04548280_10183.png
subject-02,1,680,0.720706939697266,boat,boat,8-10-10,0680_eid_s02_8-10-10_boat_10_n04273569_2667.png
subject-02,1,681,0.850593090057373,elephant,elephant,8-10-10,0681_eid_s02_8-10-10_elephant_10_n02504458_6931.png
subject-02,1,682,0.694080114364624,bird,bird,2-10-10,0682_eid_s02_2-10-10_bird_10_n01530575_5747.png
subject-02,1,683,0.781698226928711,cat,oven,32-10-10,0683_eid_s02_32-10-10_oven_10_n04111531_5350.png
subject-02,1,684,0.73970103263855,knife,knife,1-10-10,0684_eid_s02_1-10-10_knife_10_n03041632_16172.png
subject-02,1,685,0.799348115921021,bear,bear,1-10-10,0685_eid_s02_1-10-10_bear_10_n02134418_16.png
subject-02,1,686,0.891191005706787,cat,oven,8-10-10,0686_eid_s02_8-10-10_oven_10_n04111531_4809.png
subject-02,1,687,1.02108597755432,keyboard,keyboard,1-10-10,0687_eid_s02_1-10-10_keyboard_10_n04505470_4668.png
subject-02,1,688,0.836872100830078,oven,keyboard,32-10-10,0688_eid_s02_32-10-10_keyboard_10_n03085013_20216.png
subject-02,1,689,0.840770959854126,elephant,boat,128-10-10,0689_eid_s02_128-10-10_boat_10_n02951358_14346.png
subject-02,1,690,0.868740081787109,bear,bottle,128-10-10,0690_eid_s02_128-10-10_bottle_10_n02823428_3414.png
subject-02,1,691,0.952491998672485,boat,boat,64-10-10,0691_eid_s02_64-10-10_boat_10_n03662601_5600.png
subject-02,1,692,0.754307985305786,bird,bird,4-10-10,0692_eid_s02_4-10-10_bird_10_n01560419_5466.png
subject-02,1,693,0.775899171829224,car,car,1-10-10,0693_eid_s02_1-10-10_car_10_n02814533_81090.png
subject-02,1,694,0.851795196533203,elephant,elephant,4-10-10,0694_eid_s02_4-10-10_elephant_10_n02504458_63.png
subject-02,1,695,0.763640165328979,bear,knife,64-10-10,0695_eid_s02_64-10-10_knife_10_n03041632_25257.png
subject-02,1,696,1.23333096504211,knife,chair,16-10-10,0696_eid_s02_16-10-10_chair_10_n02791124_15383.png
subject-02,1,697,0.809220790863037,dog,bottle,128-10-10,0697_eid_s02_128-10-10_bottle_10_n04560804_22426.png
subject-02,1,698,0.88308310508728,boat,boat,64-10-10,0698_eid_s02_64-10-10_boat_10_n03662601_2120.png
subject-02,1,699,0.881074190139771,bear,truck,64-10-10,0699_eid_s02_64-10-10_truck_10_n03417042_7588.png
subject-02,1,700,0.740631818771362,cat,oven,128-10-10,0700_eid_s02_128-10-10_oven_10_n04111531_9779.png
subject-02,1,701,0.840450048446655,truck,truck,1-10-10,0701_eid_s02_1-10-10_truck_10_n04467665_4825.png
subject-02,1,702,1.2602059841156,knife,knife,4-10-10,0702_eid_s02_4-10-10_knife_10_n03041632_52848.png
subject-02,1,703,0.942139148712158,airplane,airplane,32-10-10,0703_eid_s02_32-10-10_airplane_10_n02690373_10926.png
subject-02,1,704,0.812030076980591,bear,bird,1-10-10,0704_eid_s02_1-10-10_bird_10_n02002724_19618.png
subject-02,1,705,0.807642936706543,bottle,knife,128-10-10,0705_eid_s02_128-10-10_knife_10_n03041632_379.png
subject-02,1,706,0.875396013259888,keyboard,keyboard,32-10-10,0706_eid_s02_32-10-10_keyboard_10_n03085013_20601.png
subject-02,1,707,1.23733520507812,car,elephant,1-10-10,0707_eid_s02_1-10-10_elephant_10_n02504458_7063.png
subject-02,1,708,1.09543800354004,clock,keyboard,1-10-10,0708_eid_s02_1-10-10_keyboard_10_n03085013_22942.png
subject-02,1,709,1.00282001495361,bear,bird,128-10-10,0709_eid_s02_128-10-10_bird_10_n01843065_5080.png
subject-02,1,710,0.930863857269287,elephant,oven,64-10-10,0710_eid_s02_64-10-10_oven_10_n04111531_25647.png
subject-02,1,711,0.978759050369263,oven,bottle,4-10-10,0711_eid_s02_4-10-10_bottle_10_n03937543_5799.png
subject-02,1,712,0.934492111206055,boat,car,32-10-10,0712_eid_s02_32-10-10_car_10_n02814533_49630.png
subject-02,1,713,0.830315828323364,cat,airplane,32-10-10,0713_eid_s02_32-10-10_airplane_10_n02690373_4588.png
subject-02,1,714,1.50004696846008,airplane,bicycle,32-10-10,0714_eid_s02_32-10-10_bicycle_10_n02835271_6122.png
subject-02,1,715,0.692058086395264,cat,cat,4-10-10,0715_eid_s02_4-10-10_cat_10_n02123394_768.png
subject-02,1,716,0.965668916702271,dog,cat,64-10-10,0716_eid_s02_64-10-10_cat_10_n02123394_2635.png
subject-02,1,717,0.755591869354248,cat,cat,1-10-10,0717_eid_s02_1-10-10_cat_10_n02123394_6269.png
subject-02,1,718,0.993561983108521,bear,boat,128-10-10,0718_eid_s02_128-10-10_boat_10_n02951358_3188.png
subject-02,1,719,0.813019037246704,truck,truck,4-10-10,0719_eid_s02_4-10-10_truck_10_n04467665_68331.png
subject-02,1,720,1.02091979980469,dog,dog,2-10-10,0720_eid_s02_2-10-10_dog_10_n02092002_2008.png
subject-02,1,721,0.741043090820312,bicycle,knife,16-10-10,0721_eid_s02_16-10-10_knife_10_n03041632_29427.png
subject-02,1,722,0.672990083694458,bear,bear,2-10-10,0722_eid_s02_2-10-10_bear_10_n02132136_9433.png
subject-02,1,723,0.678786993026733,cat,bottle,128-10-10,0723_eid_s02_128-10-10_bottle_10_n04557648_6010.png
subject-02,1,724,0.964553117752075,dog,boat,32-10-10,0724_eid_s02_32-10-10_boat_10_n03344393_3498.png
subject-02,1,725,1.0105619430542,bear,elephant,64-10-10,0725_eid_s02_64-10-10_elephant_10_n02504458_5178.png
subject-02,1,726,1.06406998634338,airplane,boat,64-10-10,0726_eid_s02_64-10-10_boat_10_n04612504_4719.png
subject-02,1,727,0.967982053756714,bear,bear,64-10-10,0727_eid_s02_64-10-10_bear_10_n02132136_2120.png
subject-02,1,728,0.728175163269043,boat,boat,2-10-10,0728_eid_s02_2-10-10_boat_10_n02951358_1910.png
subject-02,1,729,1.16958498954773,dog,oven,16-10-10,0729_eid_s02_16-10-10_oven_10_n04111531_4900.png
subject-02,1,730,0.731338024139404,cat,cat,1-10-10,0730_eid_s02_1-10-10_cat_10_n02123597_7142.png
subject-02,1,731,0.697179794311523,chair,chair,2-10-10,0731_eid_s02_2-10-10_chair_10_n04099969_14851.png
subject-02,1,732,0.825416088104248,dog,dog,1-10-10,0732_eid_s02_1-10-10_dog_10_n02113624_1691.png
subject-02,1,733,0.698961019515991,airplane,airplane,16-10-10,0733_eid_s02_16-10-10_airplane_10_n02690373_6834.png
subject-02,1,734,0.757083892822266,car,cat,128-10-10,0734_eid_s02_128-10-10_cat_10_n02123045_991.png
subject-02,1,735,0.704449892044067,chair,oven,1-10-10,0735_eid_s02_1-10-10_oven_10_n04111531_3126.png
subject-02,1,736,0.812376022338867,bear,dog,128-10-10,0736_eid_s02_128-10-10_dog_10_n02110958_15217.png
subject-02,1,737,0.84200119972229,bicycle,bicycle,2-10-10,0737_eid_s02_2-10-10_bicycle_10_n03792782_25352.png
subject-02,1,738,0.901906967163086,bear,bicycle,32-10-10,0738_eid_s02_32-10-10_bicycle_10_n02835271_12926.png
subject-02,1,739,1.00778388977051,truck,truck,1-10-10,0739_eid_s02_1-10-10_truck_10_n03417042_29384.png
subject-02,1,740,0.771802186965942,truck,truck,4-10-10,0740_eid_s02_4-10-10_truck_10_n04467665_10025.png
subject-02,1,741,0.85127592086792,bird,dog,8-10-10,0741_eid_s02_8-10-10_dog_10_n02102040_2216.png
subject-02,1,742,1.10912299156189,car,car,16-10-10,0742_eid_s02_16-10-10_car_10_n03100240_3528.png
subject-02,1,743,0.915128946304321,bicycle,bicycle,2-10-10,0743_eid_s02_2-10-10_bicycle_10_n02835271_3215.png
subject-02,1,744,1.12082982063293,knife,chair,16-10-10,0744_eid_s02_16-10-10_chair_10_n04099969_101.png
subject-02,1,745,0.91270112991333,airplane,airplane,64-10-10,0745_eid_s02_64-10-10_airplane_10_n02690373_2026.png
subject-02,1,746,1.09044885635376,dog,dog,64-10-10,0746_eid_s02_64-10-10_dog_10_n02092002_11459.png
subject-02,1,747,1.0022668838501,cat,truck,16-10-10,0747_eid_s02_16-10-10_truck_10_n04467665_11776.png
subject-02,1,748,0.854087114334106,cat,knife,128-10-10,0748_eid_s02_128-10-10_knife_10_n03041632_7982.png
subject-02,1,749,1.12577486038208,elephant,airplane,128-10-10,0749_eid_s02_128-10-10_airplane_10_n02690373_9963.png
subject-02,1,750,0.877892971038818,bear,chair,32-10-10,0750_eid_s02_32-10-10_chair_10_n04429376_1058.png
subject-02,1,751,0.899595022201538,airplane,truck,64-10-10,0751_eid_s02_64-10-10_truck_10_n03796401_10276.png
subject-02,1,752,0.913264989852905,airplane,bird,128-10-10,0752_eid_s02_128-10-10_bird_10_n01592084_7569.png
subject-02,1,753,0.893501043319702,car,car,16-10-10,0753_eid_s02_16-10-10_car_10_n02814533_43040.png
subject-02,1,754,0.82291579246521,car,car,32-10-10,0754_eid_s02_32-10-10_car_10_n02814533_42059.png
subject-02,1,755,0.773051023483276,cat,cat,128-10-10,0755_eid_s02_128-10-10_cat_10_n02123159_1596.png
subject-02,1,756,0.75516414642334,car,car,16-10-10,0756_eid_s02_16-10-10_car_10_n04285008_5562.png
subject-02,1,757,0.750442028045654,cat,bear,128-10-10,0757_eid_s02_128-10-10_bear_10_n02133161_1197.png
subject-02,1,758,1.04839611053467,oven,clock,128-10-10,0758_eid_s02_128-10-10_clock_10_n03196217_11199.png
subject-02,1,759,1.03812313079834,dog,elephant,32-10-10,0759_eid_s02_32-10-10_elephant_10_n02504458_11618.png
subject-02,1,760,0.691955089569092,bicycle,bicycle,4-10-10,0760_eid_s02_4-10-10_bicycle_10_n02835271_3732.png
subject-02,1,761,0.767755031585693,boat,boat,2-10-10,0761_eid_s02_2-10-10_boat_10_n03662601_11972.png
subject-02,1,762,0.787733793258667,car,car,16-10-10,0762_eid_s02_16-10-10_car_10_n04285008_10893.png
subject-02,1,763,0.917215824127197,boat,airplane,32-10-10,0763_eid_s02_32-10-10_airplane_10_n02690373_7908.png
subject-02,1,764,0.860940933227539,bear,dog,32-10-10,0764_eid_s02_32-10-10_dog_10_n02111277_21812.png
subject-02,1,765,0.848922967910767,bicycle,boat,2-10-10,0765_eid_s02_2-10-10_boat_10_n03344393_12262.png
subject-02,1,766,1.01275706291199,cat,clock,64-10-10,0766_eid_s02_64-10-10_clock_10_n02708093_7810.png
subject-02,1,767,0.964354038238525,boat,chair,32-10-10,0767_eid_s02_32-10-10_chair_10_n03376595_8964.png
subject-02,1,768,0.82063889503479,bicycle,bicycle,1-10-10,0768_eid_s02_1-10-10_bicycle_10_n03792782_16817.png
subject-02,1,769,0.978053092956543,boat,oven,128-10-10,0769_eid_s02_128-10-10_oven_10_n04111531_12769.png
subject-02,1,770,0.689826011657715,cat,cat,16-10-10,0770_eid_s02_16-10-10_cat_10_n02123394_270.png
subject-02,1,771,0.68772292137146,airplane,airplane,8-10-10,0771_eid_s02_8-10-10_airplane_10_n02690373_1360.png
subject-02,1,772,1.11968612670898,dog,keyboard,64-10-10,0772_eid_s02_64-10-10_keyboard_10_n04505470_5059.png
subject-02,1,773,0.837387084960938,keyboard,keyboard,32-10-10,0773_eid_s02_32-10-10_keyboard_10_n04505470_5173.png
subject-02,1,774,0.969255924224854,bear,oven,64-10-10,0774_eid_s02_64-10-10_oven_10_n04111531_8421.png
subject-02,1,775,0.899208068847656,airplane,airplane,128-10-10,0775_eid_s02_128-10-10_airplane_10_n02690373_4873.png
subject-02,1,776,1.10102701187134,cat,knife,16-10-10,0776_eid_s02_16-10-10_knife_10_n03041632_15099.png
subject-02,1,777,1.05898904800415,airplane,bird,64-10-10,0777_eid_s02_64-10-10_bird_10_n01532829_20405.png
subject-02,1,778,0.7745201587677,cat,cat,2-10-10,0778_eid_s02_2-10-10_cat_10_n02124075_5953.png
subject-02,1,779,1.06242513656616,bird,bird,16-10-10,0779_eid_s02_16-10-10_bird_10_n02017213_1619.png
subject-02,1,780,1.06210684776306,dog,dog,4-10-10,0780_eid_s02_4-10-10_dog_10_n02113712_5816.png
subject-02,1,781,0.9339599609375,bear,elephant,64-10-10,0781_eid_s02_64-10-10_elephant_10_n02504013_2974.png
subject-02,1,782,0.76804780960083,cat,knife,128-10-10,0782_eid_s02_128-10-10_knife_10_n03041632_11285.png
subject-02,1,783,0.803462982177734,cat,cat,8-10-10,0783_eid_s02_8-10-10_cat_10_n02124075_15378.png
subject-02,1,784,1.45135307312012,chair,keyboard,16-10-10,0784_eid_s02_16-10-10_keyboard_10_n03085013_24402.png
subject-02,1,785,0.743185043334961,airplane,airplane,1-10-10,0785_eid_s02_1-10-10_airplane_10_n02690373_4839.png
subject-02,1,786,0.961296081542969,airplane,airplane,16-10-10,0786_eid_s02_16-10-10_airplane_10_n02690373_4079.png
subject-02,1,787,0.808976888656616,bear,bear,2-10-10,0787_eid_s02_2-10-10_bear_10_n02134084_4818.png
subject-02,1,788,1.23086190223694,oven,boat,64-10-10,0788_eid_s02_64-10-10_boat_10_n04273569_13401.png
subject-02,1,789,1.4125030040741,elephant,bicycle,128-10-10,0789_eid_s02_128-10-10_bicycle_10_n03792782_3892.png
subject-02,1,790,0.914373874664307,elephant,elephant,8-10-10,0790_eid_s02_8-10-10_elephant_10_n02504013_10351.png
subject-02,1,791,0.988016843795776,oven,oven,1-10-10,0791_eid_s02_1-10-10_oven_10_n04111531_17072.png
subject-02,1,792,0.715873956680298,cat,cat,8-10-10,0792_eid_s02_8-10-10_cat_10_n02123597_8890.png
subject-02,1,793,0.755988121032715,bear,clock,128-10-10,0793_eid_s02_128-10-10_clock_10_n04548280_8162.png
subject-02,1,794,0.911465167999268,elephant,elephant,4-10-10,0794_eid_s02_4-10-10_elephant_10_n02504458_6185.png
subject-02,1,795,0.805667161941528,dog,dog,2-10-10,0795_eid_s02_2-10-10_dog_10_n02102177_7637.png
subject-02,1,796,0.731077194213867,keyboard,keyboard,2-10-10,0796_eid_s02_2-10-10_keyboard_10_n04505470_4368.png
subject-02,1,797,0.846965074539185,bear,elephant,128-10-10,0797_eid_s02_128-10-10_elephant_10_n02504458_6799.png
subject-02,1,798,0.654815196990967,elephant,elephant,1-10-10,0798_eid_s02_1-10-10_elephant_10_n02504458_6611.png
subject-02,1,799,0.684371948242188,bear,bear,2-10-10,0799_eid_s02_2-10-10_bear_10_n02134418_551.png
subject-02,1,800,0.992139101028442,dog,oven,4-10-10,0800_eid_s02_4-10-10_oven_10_n04111531_11499.png
subject-02,1,801,1.50005888938904,keyboard,cat,2-10-10,0801_eid_s02_2-10-10_cat_10_n02124075_15345.png
subject-02,1,802,0.515119075775146,car,car,16-10-10,0802_eid_s02_16-10-10_car_10_n02814533_69750.png
subject-02,1,803,1.03447198867798,dog,dog,16-10-10,0803_eid_s02_16-10-10_dog_10_n02104029_8137.png
subject-02,1,804,1.12622117996216,cat,chair,16-10-10,0804_eid_s02_16-10-10_chair_10_n03376595_5304.png
subject-02,1,805,0.777976036071777,oven,oven,1-10-10,0805_eid_s02_1-10-10_oven_10_n04111531_10339.png
subject-02,1,806,1.13586378097534,bicycle,chair,32-10-10,0806_eid_s02_32-10-10_chair_10_n04099969_18744.png
subject-02,1,807,0.686002016067505,bottle,bottle,4-10-10,0807_eid_s02_4-10-10_bottle_10_n02823428_4172.png
subject-02,1,808,0.79348087310791,cat,cat,16-10-10,0808_eid_s02_16-10-10_cat_10_n02123045_11955.png
subject-02,1,809,1.18354105949402,truck,oven,64-10-10,0809_eid_s02_64-10-10_oven_10_n04111531_5351.png
subject-02,1,810,0.643158912658691,bird,bird,8-10-10,0810_eid_s02_8-10-10_bird_10_n01532829_1278.png
subject-02,1,811,0.813199996948242,cat,bicycle,32-10-10,0811_eid_s02_32-10-10_bicycle_10_n03792782_23912.png
subject-02,1,812,0.88101601600647,bear,truck,128-10-10,0812_eid_s02_128-10-10_truck_10_n04467665_15235.png
subject-02,1,813,0.812530994415283,boat,boat,2-10-10,0813_eid_s02_2-10-10_boat_10_n02951358_29724.png
subject-02,1,814,0.866472005844116,dog,bottle,64-10-10,0814_eid_s02_64-10-10_bottle_10_n02823428_7316.png
subject-02,1,815,0.750441074371338,airplane,airplane,64-10-10,0815_eid_s02_64-10-10_airplane_10_n02690373_5100.png
subject-02,1,816,1.10389399528503,knife,truck,1-10-10,0816_eid_s02_1-10-10_truck_10_n03417042_11475.png
subject-02,1,817,1.09402894973755,dog,bicycle,64-10-10,0817_eid_s02_64-10-10_bicycle_10_n03792782_6030.png
subject-02,1,818,1.1296820640564,airplane,chair,32-10-10,0818_eid_s02_32-10-10_chair_10_n04099969_25327.png
subject-02,1,819,0.865521907806396,boat,boat,32-10-10,0819_eid_s02_32-10-10_boat_10_n03344393_3355.png
subject-02,1,820,0.961416006088257,elephant,truck,128-10-10,0820_eid_s02_128-10-10_truck_10_n04467665_12867.png
subject-02,1,821,0.769131898880005,bear,car,32-10-10,0821_eid_s02_32-10-10_car_10_n02814533_46403.png
subject-02,1,822,0.857018947601318,dog,cat,32-10-10,0822_eid_s02_32-10-10_cat_10_n02125311_57758.png
subject-02,1,823,0.848720073699951,boat,airplane,2-10-10,0823_eid_s02_2-10-10_airplane_10_n02690373_111.png
subject-02,1,824,1.34657001495361,airplane,truck,32-10-10,0824_eid_s02_32-10-10_truck_10_n04467665_50806.png
subject-02,1,825,0.806653022766113,car,truck,8-10-10,0825_eid_s02_8-10-10_truck_10_n03796401_5227.png
subject-02,1,826,0.890233993530273,bird,bird,4-10-10,0826_eid_s02_4-10-10_bird_10_n01833805_202.png
subject-02,1,827,1.09185695648193,airplane,bottle,64-10-10,0827_eid_s02_64-10-10_bottle_10_n03937543_4863.png
subject-02,1,828,0.775766849517822,bottle,bottle,16-10-10,0828_eid_s02_16-10-10_bottle_10_n02823428_4282.png
subject-02,1,829,0.879637002944946,cat,bear,64-10-10,0829_eid_s02_64-10-10_bear_10_n02132136_3102.png
subject-02,1,830,0.963361978530884,bear,bicycle,64-10-10,0830_eid_s02_64-10-10_bicycle_10_n03792782_11921.png
subject-02,1,831,0.653289079666138,bird,bird,4-10-10,0831_eid_s02_4-10-10_bird_10_n01534433_10234.png
subject-02,1,832,0.74300217628479,oven,oven,1-10-10,0832_eid_s02_1-10-10_oven_10_n04111531_10436.png
subject-02,1,833,0.823147773742676,boat,cat,32-10-10,0833_eid_s02_32-10-10_cat_10_n02123597_13623.png
subject-02,1,834,0.93853497505188,car,knife,32-10-10,0834_eid_s02_32-10-10_knife_10_n03041632_10109.png
subject-02,1,835,1.03881978988647,dog,dog,16-10-10,0835_eid_s02_16-10-10_dog_10_n02093991_4515.png
subject-02,1,836,0.762305021286011,cat,bird,8-10-10,0836_eid_s02_8-10-10_bird_10_n02002724_1484.png
subject-02,1,837,1.0201461315155,dog,truck,16-10-10,0837_eid_s02_16-10-10_truck_10_n03417042_5381.png
subject-02,1,838,0.891681909561157,keyboard,keyboard,8-10-10,0838_eid_s02_8-10-10_keyboard_10_n03085013_18785.png
subject-02,1,839,0.866167068481445,chair,chair,4-10-10,0839_eid_s02_4-10-10_chair_10_n04099969_17866.png
subject-02,1,840,1.02745389938354,airplane,dog,32-10-10,0840_eid_s02_32-10-10_dog_10_n02107312_2933.png
subject-02,1,841,1.0033848285675,bear,bicycle,128-10-10,0841_eid_s02_128-10-10_bicycle_10_n02835271_2651.png
subject-02,1,842,1.08316802978516,airplane,boat,4-10-10,0842_eid_s02_4-10-10_boat_10_n03344393_1422.png
subject-02,1,843,0.827075958251953,keyboard,keyboard,4-10-10,0843_eid_s02_4-10-10_keyboard_10_n03085013_19842.png
subject-02,1,844,0.989243984222412,truck,truck,4-10-10,0844_eid_s02_4-10-10_truck_10_n04467665_31539.png
subject-02,1,845,0.882755994796753,clock,clock,8-10-10,0845_eid_s02_8-10-10_clock_10_n03196217_6831.png
subject-02,1,846,0.918462038040161,oven,boat,8-10-10,0846_eid_s02_8-10-10_boat_10_n03662601_12670.png
subject-02,1,847,1.00032091140747,oven,bottle,1-10-10,0847_eid_s02_1-10-10_bottle_10_n04560804_17045.png
subject-02,1,848,1.31197905540466,airplane,airplane,16-10-10,0848_eid_s02_16-10-10_airplane_10_n02690373_10001.png
subject-02,1,849,0.876312971115112,clock,clock,2-10-10,0849_eid_s02_2-10-10_clock_10_n03196217_1499.png
subject-02,1,850,0.943639993667603,bicycle,knife,4-10-10,0850_eid_s02_4-10-10_knife_10_n03041632_27929.png
subject-02,1,851,0.979645967483521,elephant,elephant,64-10-10,0851_eid_s02_64-10-10_elephant_10_n02504458_12776.png
subject-02,1,852,0.835378885269165,bear,bear,4-10-10,0852_eid_s02_4-10-10_bear_10_n02134084_5274.png
subject-02,1,853,0.78712797164917,keyboard,oven,1-10-10,0853_eid_s02_1-10-10_oven_10_n04111531_8398.png
subject-02,1,854,1.08904695510864,chair,chair,8-10-10,0854_eid_s02_8-10-10_chair_10_n02791124_381.png
subject-02,1,855,0.866863012313843,bottle,bottle,2-10-10,0855_eid_s02_2-10-10_bottle_10_n03937543_1413.png
subject-02,1,856,1.25460195541382,bear,bear,2-10-10,0856_eid_s02_2-10-10_bear_10_n02134418_4754.png
subject-02,1,857,0.962329864501953,truck,truck,8-10-10,0857_eid_s02_8-10-10_truck_10_n04467665_3710.png
subject-02,1,858,0.824331998825073,car,bear,64-10-10,0858_eid_s02_64-10-10_bear_10_n02134418_1395.png
subject-02,1,859,1.04035401344299,bear,elephant,32-10-10,0859_eid_s02_32-10-10_elephant_10_n02504458_4187.png
subject-02,1,860,1.17398500442505,keyboard,oven,4-10-10,0860_eid_s02_4-10-10_oven_10_n04111531_523.png
subject-02,1,861,0.795713901519775,cat,dog,64-10-10,0861_eid_s02_64-10-10_dog_10_n02113712_8182.png
subject-02,1,862,1.23728108406067,cat,bird,32-10-10,0862_eid_s02_32-10-10_bird_10_n01819313_1422.png
subject-02,1,863,1.03914713859558,keyboard,oven,4-10-10,0863_eid_s02_4-10-10_oven_10_n04111531_3076.png
subject-02,1,864,0.825200080871582,oven,oven,8-10-10,0864_eid_s02_8-10-10_oven_10_n04111531_22041.png
subject-02,1,865,0.848840951919556,bear,keyboard,64-10-10,0865_eid_s02_64-10-10_keyboard_10_n03085013_20218.png
subject-02,1,866,0.756724119186401,cat,cat,2-10-10,0866_eid_s02_2-10-10_cat_10_n02125311_9364.png
subject-02,1,867,0.874489068984985,knife,knife,2-10-10,0867_eid_s02_2-10-10_knife_10_n03041632_39952.png
subject-02,1,868,0.708173036575317,keyboard,keyboard,4-10-10,0868_eid_s02_4-10-10_keyboard_10_n03085013_22949.png
subject-02,1,869,1.06246089935303,clock,car,1-10-10,0869_eid_s02_1-10-10_car_10_n03100240_18270.png
subject-02,1,870,0.755878925323486,clock,clock,4-10-10,0870_eid_s02_4-10-10_clock_10_n02708093_6673.png
subject-02,1,871,0.985810041427612,bottle,bottle,4-10-10,0871_eid_s02_4-10-10_bottle_10_n04560804_8841.png
subject-02,1,872,1.23986792564392,bottle,boat,16-10-10,0872_eid_s02_16-10-10_boat_10_n04273569_17671.png
subject-02,1,873,1.2371940612793,bird,truck,32-10-10,0873_eid_s02_32-10-10_truck_10_n04467665_70894.png
subject-02,1,874,0.803606986999512,chair,chair,2-10-10,0874_eid_s02_2-10-10_chair_10_n02791124_8866.png
subject-02,1,875,0.940972089767456,cat,cat,4-10-10,0875_eid_s02_4-10-10_cat_10_n02125311_27989.png
subject-02,1,876,0.648715972900391,bird,bird,2-10-10,0876_eid_s02_2-10-10_bird_10_n01622779_6563.png
subject-02,1,877,0.748982906341553,boat,dog,128-10-10,0877_eid_s02_128-10-10_dog_10_n02099601_7103.png
subject-02,1,878,0.830325841903687,dog,dog,2-10-10,0878_eid_s02_2-10-10_dog_10_n02110185_11605.png
subject-02,1,879,0.844211101531982,airplane,boat,64-10-10,0879_eid_s02_64-10-10_boat_10_n04273569_30203.png
subject-02,1,880,0.715970039367676,bear,dog,128-10-10,0880_eid_s02_128-10-10_dog_10_n02110063_14116.png
subject-02,1,881,0.896149873733521,car,car,2-10-10,0881_eid_s02_2-10-10_car_10_n02814533_59053.png
subject-02,1,882,0.921856880187988,bear,oven,128-10-10,0882_eid_s02_128-10-10_oven_10_n04111531_9304.png
subject-02,1,883,1.02383804321289,cat,airplane,128-10-10,0883_eid_s02_128-10-10_airplane_10_n02690373_9946.png
subject-02,1,884,0.857705116271973,car,car,4-10-10,0884_eid_s02_4-10-10_car_10_n03100240_2235.png
subject-02,1,885,0.697503089904785,truck,truck,2-10-10,0885_eid_s02_2-10-10_truck_10_n03796401_6966.png
subject-02,1,886,0.899211168289185,bear,keyboard,64-10-10,0886_eid_s02_64-10-10_keyboard_10_n04505470_7388.png
subject-02,1,887,0.819154024124146,knife,knife,2-10-10,0887_eid_s02_2-10-10_knife_10_n03041632_927.png
subject-02,1,888,0.89284086227417,elephant,elephant,2-10-10,0888_eid_s02_2-10-10_elephant_10_n02504458_5614.png
subject-02,1,889,0.832754850387573,cat,dog,64-10-10,0889_eid_s02_64-10-10_dog_10_n02109525_46113.png
subject-02,1,890,0.712849855422974,cat,dog,32-10-10,0890_eid_s02_32-10-10_dog_10_n02099849_4640.png
subject-02,1,891,0.680217027664185,keyboard,keyboard,2-10-10,0891_eid_s02_2-10-10_keyboard_10_n03085013_24087.png
subject-02,1,892,0.696269989013672,cat,cat,4-10-10,0892_eid_s02_4-10-10_cat_10_n02124075_15405.png
subject-02,1,893,1.05584192276001,airplane,airplane,64-10-10,0893_eid_s02_64-10-10_airplane_10_n02690373_757.png
subject-02,1,894,0.747634887695312,bird,bird,2-10-10,0894_eid_s02_2-10-10_bird_10_n02006656_611.png
subject-02,1,895,0.929425954818726,cat,dog,16-10-10,0895_eid_s02_16-10-10_dog_10_n02095314_5363.png
subject-02,1,896,0.737207174301147,elephant,elephant,1-10-10,0896_eid_s02_1-10-10_elephant_10_n02504013_6211.png
subject-02,1,897,1.03707385063171,cat,clock,32-10-10,0897_eid_s02_32-10-10_clock_10_n03196217_3951.png
subject-02,1,898,0.822962045669556,cat,cat,8-10-10,0898_eid_s02_8-10-10_cat_10_n02123159_7210.png
subject-02,1,899,0.776903867721558,keyboard,keyboard,4-10-10,0899_eid_s02_4-10-10_keyboard_10_n04505470_3122.png
subject-02,1,900,0.874789953231812,airplane,airplane,4-10-10,0900_eid_s02_4-10-10_airplane_10_n02690373_4866.png
subject-02,1,901,0.7065749168396,bicycle,bicycle,2-10-10,0901_eid_s02_2-10-10_bicycle_10_n02835271_2625.png
subject-02,1,902,0.868190050125122,keyboard,keyboard,32-10-10,0902_eid_s02_32-10-10_keyboard_10_n04505470_5009.png
subject-02,1,903,0.967988967895508,cat,chair,32-10-10,0903_eid_s02_32-10-10_chair_10_n03376595_7275.png
subject-02,1,904,0.727991819381714,elephant,elephant,4-10-10,0904_eid_s02_4-10-10_elephant_10_n02504013_14440.png
subject-02,1,905,0.773751020431519,bird,bird,16-10-10,0905_eid_s02_16-10-10_bird_10_n02018207_16716.png
subject-02,1,906,0.683379888534546,bottle,bottle,2-10-10,0906_eid_s02_2-10-10_bottle_10_n03983396_16741.png
subject-02,1,907,1.08727598190308,bottle,bottle,1-10-10,0907_eid_s02_1-10-10_bottle_10_n04591713_4291.png
subject-02,1,908,0.881083965301514,chair,chair,4-10-10,0908_eid_s02_4-10-10_chair_10_n03376595_12433.png
subject-02,1,909,0.771214008331299,bicycle,bicycle,4-10-10,0909_eid_s02_4-10-10_bicycle_10_n03792782_25019.png
subject-02,1,910,0.746824979782104,cat,car,64-10-10,0910_eid_s02_64-10-10_car_10_n03100240_3267.png
subject-02,1,911,0.856547832489014,bear,bear,4-10-10,0911_eid_s02_4-10-10_bear_10_n02132136_20162.png
subject-02,1,912,0.844704866409302,bear,elephant,128-10-10,0912_eid_s02_128-10-10_elephant_10_n02504458_6823.png
subject-02,1,913,0.856405019760132,dog,bicycle,32-10-10,0913_eid_s02_32-10-10_bicycle_10_n02835271_27014.png
subject-02,1,914,1.01001000404358,bird,bear,128-10-10,0914_eid_s02_128-10-10_bear_10_n02134418_12733.png
subject-02,1,915,0.881900072097778,bear,bear,4-10-10,0915_eid_s02_4-10-10_bear_10_n02132136_6434.png
subject-02,1,916,0.841428995132446,clock,clock,1-10-10,0916_eid_s02_1-10-10_clock_10_n03196217_71.png
subject-02,1,917,0.759415864944458,keyboard,keyboard,1-10-10,0917_eid_s02_1-10-10_keyboard_10_n04505470_2881.png
subject-02,1,918,0.851079940795898,bear,knife,64-10-10,0918_eid_s02_64-10-10_knife_10_n03041632_25603.png
subject-02,1,919,0.808911085128784,dog,bear,64-10-10,0919_eid_s02_64-10-10_bear_10_n02134084_622.png
subject-02,1,920,0.884933948516846,chair,chair,4-10-10,0920_eid_s02_4-10-10_chair_10_n04099969_1792.png
subject-02,1,921,0.97665810585022,knife,knife,2-10-10,0921_eid_s02_2-10-10_knife_10_n03041632_21818.png
subject-02,1,922,0.794723987579346,car,car,4-10-10,0922_eid_s02_4-10-10_car_10_n03100240_5709.png
subject-02,1,923,0.706305027008057,cat,truck,128-10-10,0923_eid_s02_128-10-10_truck_10_n04467665_67909.png
subject-02,1,924,0.756117105484009,bird,bird,1-10-10,0924_eid_s02_1-10-10_bird_10_n01531178_14959.png
subject-02,1,925,0.805845975875854,bear,bear,128-10-10,0925_eid_s02_128-10-10_bear_10_n02133161_2164.png
subject-02,1,926,0.794156074523926,elephant,elephant,2-10-10,0926_eid_s02_2-10-10_elephant_10_n02504013_466.png
subject-02,1,927,0.987813949584961,elephant,bicycle,128-10-10,0927_eid_s02_128-10-10_bicycle_10_n03792782_4083.png
subject-02,1,928,0.723634958267212,boat,boat,1-10-10,0928_eid_s02_1-10-10_boat_10_n04273569_1495.png
subject-02,1,929,1.02918982505798,airplane,airplane,1-10-10,0929_eid_s02_1-10-10_airplane_10_n02690373_17764.png
subject-02,1,930,0.846827030181885,bear,bird,128-10-10,0930_eid_s02_128-10-10_bird_10_n02018207_29704.png
subject-02,1,931,1.02300500869751,bear,chair,128-10-10,0931_eid_s02_128-10-10_chair_10_n03376595_2891.png
subject-02,1,932,0.88441801071167,cat,knife,128-10-10,0932_eid_s02_128-10-10_knife_10_n03041632_1556.png
subject-02,1,933,0.816295146942139,elephant,keyboard,128-10-10,0933_eid_s02_128-10-10_keyboard_10_n03085013_10367.png
subject-02,1,934,1.14229702949524,cat,oven,16-10-10,0934_eid_s02_16-10-10_oven_10_n04111531_8852.png
subject-02,1,935,0.849905014038086,car,car,2-10-10,0935_eid_s02_2-10-10_car_10_n02814533_9812.png
subject-02,1,936,1.04777002334595,bear,bottle,32-10-10,0936_eid_s02_32-10-10_bottle_10_n04560804_2181.png
subject-02,1,937,0.841806888580322,elephant,cat,64-10-10,0937_eid_s02_64-10-10_cat_10_n02125311_30452.png
subject-02,1,938,1.44545197486877,dog,elephant,64-10-10,0938_eid_s02_64-10-10_elephant_10_n02504013_4485.png
subject-02,1,939,0.799437046051025,truck,truck,2-10-10,0939_eid_s02_2-10-10_truck_10_n03796401_13992.png
subject-02,1,940,0.937114953994751,bird,bear,64-10-10,0940_eid_s02_64-10-10_bear_10_n02133161_3533.png
subject-02,1,941,0.852797031402588,dog,clock,64-10-10,0941_eid_s02_64-10-10_clock_10_n03196217_6289.png
subject-02,1,942,0.882666826248169,bear,oven,32-10-10,0942_eid_s02_32-10-10_oven_10_n04111531_12830.png
subject-02,1,943,0.988599061965942,elephant,car,128-10-10,0943_eid_s02_128-10-10_car_10_n04285008_15218.png
subject-02,1,944,1.33024597167969,bear,elephant,64-10-10,0944_eid_s02_64-10-10_elephant_10_n02504013_7322.png
subject-02,1,945,0.765890121459961,bicycle,bicycle,8-10-10,0945_eid_s02_8-10-10_bicycle_10_n03792782_17430.png
subject-02,1,946,0.819962978363037,truck,truck,1-10-10,0946_eid_s02_1-10-10_truck_10_n03796401_26620.png
subject-02,1,947,0.711656093597412,airplane,truck,16-10-10,0947_eid_s02_16-10-10_truck_10_n04467665_2144.png
subject-02,1,948,0.873477935791016,airplane,keyboard,4-10-10,0948_eid_s02_4-10-10_keyboard_10_n03085013_3812.png
subject-02,1,949,0.821489095687866,bear,dog,128-10-10,0949_eid_s02_128-10-10_dog_10_n02086910_13835.png
subject-02,1,950,1.43325686454773,dog,airplane,32-10-10,0950_eid_s02_32-10-10_airplane_10_n02690373_3492.png
subject-02,1,951,1.07920503616333,cat,knife,32-10-10,0951_eid_s02_32-10-10_knife_10_n03041632_95293.png
subject-02,1,952,0.913115978240967,boat,airplane,32-10-10,0952_eid_s02_32-10-10_airplane_10_n02690373_5253.png
