subj,Session,trial,rt,object_response,category,condition,imagename
subject-04,1,1,1.50014805793762,bird,bottle,64-10-10,0001_eid_s04_64-10-10_bottle_10_n03983396_8982.png
subject-04,1,2,1.18441414833069,bird,oven,16-10-10,0002_eid_s04_16-10-10_oven_10_n04111531_2433.png
subject-04,1,3,0.961952924728394,boat,boat,8-10-10,0003_eid_s04_8-10-10_boat_10_n03662601_12323.png
subject-04,1,4,1.20574498176575,car,boat,8-10-10,0004_eid_s04_8-10-10_boat_10_n03662601_10278.png
subject-04,1,5,1.06354689598083,elephant,elephant,8-10-10,0005_eid_s04_8-10-10_elephant_10_n02504458_4448.png
subject-04,1,6,0.78150200843811,clock,clock,1-10-10,0006_eid_s04_1-10-10_clock_10_n04548280_4562.png
subject-04,1,7,0.931164979934692,oven,oven,2-10-10,0007_eid_s04_2-10-10_oven_10_n04111531_5429.png
subject-04,1,8,1.32530689239502,dog,dog,1-10-10,0008_eid_s04_1-10-10_dog_10_n02105641_10948.png
subject-04,1,9,0.813001155853271,clock,clock,16-10-10,0009_eid_s04_16-10-10_clock_10_n02708093_4255.png
subject-04,1,10,1.09649300575256,clock,clock,4-10-10,0010_eid_s04_4-10-10_clock_10_n04548280_4275.png
subject-04,1,11,1.01240801811218,elephant,elephant,16-10-10,0011_eid_s04_16-10-10_elephant_10_n02504458_3458.png
subject-04,1,12,1.03433799743652,elephant,bird,64-10-10,0012_eid_s04_64-10-10_bird_10_n01797886_5310.png
subject-04,1,13,0.924263954162598,bird,bear,8-10-10,0013_eid_s04_8-10-10_bear_10_n02133161_1981.png
subject-04,1,14,0.996062040328979,cat,dog,64-10-10,0014_eid_s04_64-10-10_dog_10_n02092002_11459.png
subject-04,1,15,1.41779899597168,oven,bottle,128-10-10,0015_eid_s04_128-10-10_bottle_10_n02823428_8079.png
subject-04,1,16,1.03556609153748,keyboard,chair,1-10-10,0016_eid_s04_1-10-10_chair_10_n03376595_6938.png
subject-04,1,17,0.935632944107056,boat,boat,1-10-10,0017_eid_s04_1-10-10_boat_10_n04612504_214.png
subject-04,1,18,0.967140197753906,elephant,elephant,32-10-10,0018_eid_s04_32-10-10_elephant_10_n02504013_12531.png
subject-04,1,19,1.31909489631653,bear,boat,16-10-10,0019_eid_s04_16-10-10_boat_10_n03662601_26231.png
subject-04,1,20,1.50005698204041,knife,oven,8-10-10,0020_eid_s04_8-10-10_oven_10_n04111531_13456.png
subject-04,1,21,1.02671098709106,cat,oven,64-10-10,0021_eid_s04_64-10-10_oven_10_n04111531_1922.png
subject-04,1,22,1.34653902053833,cat,truck,8-10-10,0022_eid_s04_8-10-10_truck_10_n03417042_19047.png
subject-04,1,23,1.28454804420471,boat,car,32-10-10,0023_eid_s04_32-10-10_car_10_n02814533_42059.png
subject-04,1,24,1.26400804519653,clock,clock,4-10-10,0024_eid_s04_4-10-10_clock_10_n03196217_8706.png
subject-04,1,25,1.46389102935791,clock,clock,8-10-10,0025_eid_s04_8-10-10_clock_10_n02708093_899.png
subject-04,1,26,1.43560791015625,bottle,bottle,8-10-10,0026_eid_s04_8-10-10_bottle_10_n04560804_15379.png
subject-04,1,27,1.1177339553833,car,car,4-10-10,0027_eid_s04_4-10-10_car_10_n03100240_17472.png
subject-04,1,28,1.4656081199646,cat,dog,64-10-10,0028_eid_s04_64-10-10_dog_10_n02109525_46113.png
subject-04,1,29,0.867344856262207,cat,keyboard,128-10-10,0029_eid_s04_128-10-10_keyboard_10_n03085013_24963.png
subject-04,1,30,1.45700812339783,cat,bird,128-10-10,0030_eid_s04_128-10-10_bird_10_n01843065_5080.png
subject-04,1,31,1.3045699596405,car,car,8-10-10,0031_eid_s04_8-10-10_car_10_n04285008_1795.png
subject-04,1,32,1.5001118183136,cat,chair,64-10-10,0032_eid_s04_64-10-10_chair_10_n02791124_5845.png
subject-04,1,33,NaN,na,dog,32-10-10,0033_eid_s04_32-10-10_dog_10_n02107312_2933.png
subject-04,1,34,NaN,na,bear,16-10-10,0034_eid_s04_16-10-10_bear_10_n02134418_2804.png
subject-04,1,35,1.26213693618774,cat,bear,64-10-10,0035_eid_s04_64-10-10_bear_10_n02134084_22150.png
subject-04,1,36,1.12590718269348,dog,dog,8-10-10,0036_eid_s04_8-10-10_dog_10_n02100735_2228.png
subject-04,1,37,0.847651958465576,cat,cat,4-10-10,0037_eid_s04_4-10-10_cat_10_n02124075_14881.png
subject-04,1,38,1.3475341796875,truck,truck,4-10-10,0038_eid_s04_4-10-10_truck_10_n04467665_67057.png
subject-04,1,39,1.48523712158203,bear,oven,4-10-10,0039_eid_s04_4-10-10_oven_10_n04111531_11499.png
subject-04,1,40,0.885094881057739,keyboard,keyboard,2-10-10,0040_eid_s04_2-10-10_keyboard_10_n04505470_4624.png
subject-04,1,41,0.726830005645752,boat,boat,2-10-10,0041_eid_s04_2-10-10_boat_10_n04273569_72.png
subject-04,1,42,1.2227668762207,car,car,8-10-10,0042_eid_s04_8-10-10_car_10_n02814533_32253.png
subject-04,1,43,1.08642983436584,clock,clock,4-10-10,0043_eid_s04_4-10-10_clock_10_n02708093_2869.png
subject-04,1,44,NaN,na,bear,2-10-10,0044_eid_s04_2-10-10_bear_10_n02134418_8516.png
subject-04,1,45,1.4223051071167,boat,airplane,16-10-10,0045_eid_s04_16-10-10_airplane_10_n02690373_10001.png
subject-04,1,46,1.10210800170898,clock,clock,4-10-10,0046_eid_s04_4-10-10_clock_10_n02708093_485.png
subject-04,1,47,1.04572916030884,car,car,4-10-10,0047_eid_s04_4-10-10_car_10_n04285008_2081.png
subject-04,1,48,1.11160612106323,clock,bicycle,128-10-10,0048_eid_s04_128-10-10_bicycle_10_n03792782_4083.png
subject-04,1,49,1.14357113838196,clock,bear,128-10-10,0049_eid_s04_128-10-10_bear_10_n02133161_10184.png
subject-04,1,50,NaN,na,elephant,8-10-10,0050_eid_s04_8-10-10_elephant_10_n02504458_651.png
subject-04,1,51,0.855309009552002,clock,clock,16-10-10,0051_eid_s04_16-10-10_clock_10_n04548280_8668.png
subject-04,1,52,0.88289213180542,cat,cat,128-10-10,0052_eid_s04_128-10-10_cat_10_n02123394_1757.png
subject-04,1,53,1.37054300308228,elephant,cat,1-10-10,0053_eid_s04_1-10-10_cat_10_n02125311_35338.png
subject-04,1,54,1.36651396751404,keyboard,oven,4-10-10,0054_eid_s04_4-10-10_oven_10_n04111531_3555.png
subject-04,1,55,0.774638891220093,cat,cat,4-10-10,0055_eid_s04_4-10-10_cat_10_n02123045_1902.png
subject-04,1,56,1.04418301582336,cat,dog,128-10-10,0056_eid_s04_128-10-10_dog_10_n02110063_14116.png
subject-04,1,57,1.50002598762512,truck,truck,1-10-10,0057_eid_s04_1-10-10_truck_10_n03417042_8076.png
subject-04,1,58,1.50007009506226,knife,chair,16-10-10,0058_eid_s04_16-10-10_chair_10_n02791124_1140.png
subject-04,1,59,1.50012516975403,airplane,oven,4-10-10,0059_eid_s04_4-10-10_oven_10_n04111531_2116.png
subject-04,1,60,1.50008702278137,clock,bear,16-10-10,0060_eid_s04_16-10-10_bear_10_n02134418_3828.png
subject-04,1,61,1.08318591117859,bicycle,bicycle,1-10-10,0061_eid_s04_1-10-10_bicycle_10_n03792782_16817.png
subject-04,1,62,1.36081695556641,bear,dog,32-10-10,0062_eid_s04_32-10-10_dog_10_n02096294_1498.png
subject-04,1,63,1.13683199882507,car,car,1-10-10,0063_eid_s04_1-10-10_car_10_n02814533_13977.png
subject-04,1,64,1.27267503738403,cat,dog,128-10-10,0064_eid_s04_128-10-10_dog_10_n02091244_8368.png
subject-04,1,65,1.30439186096191,bird,chair,32-10-10,0065_eid_s04_32-10-10_chair_10_n03376595_8964.png
subject-04,1,66,1.30025506019592,car,car,16-10-10,0066_eid_s04_16-10-10_car_10_n02814533_43040.png
subject-04,1,67,1.45007705688477,cat,oven,32-10-10,0067_eid_s04_32-10-10_oven_10_n04111531_11230.png
subject-04,1,68,1.27386903762817,knife,knife,2-10-10,0068_eid_s04_2-10-10_knife_10_n03041632_7064.png
subject-04,1,69,1.50017499923706,knife,bicycle,4-10-10,0069_eid_s04_4-10-10_bicycle_10_n02835271_17326.png
subject-04,1,70,1.18582606315613,elephant,elephant,4-10-10,0070_eid_s04_4-10-10_elephant_10_n02504013_19769.png
subject-04,1,71,1.15963006019592,cat,boat,64-10-10,0071_eid_s04_64-10-10_boat_10_n04273569_13401.png
subject-04,1,72,0.959012985229492,bicycle,bicycle,8-10-10,0072_eid_s04_8-10-10_bicycle_10_n02835271_12173.png
subject-04,1,73,1.00086212158203,keyboard,keyboard,2-10-10,0073_eid_s04_2-10-10_keyboard_10_n03085013_23269.png
subject-04,1,74,1.33299708366394,dog,dog,8-10-10,0074_eid_s04_8-10-10_dog_10_n02101388_24945.png
subject-04,1,75,1.02873206138611,elephant,truck,64-10-10,0075_eid_s04_64-10-10_truck_10_n04467665_13898.png
subject-04,1,76,1.2883780002594,bird,oven,32-10-10,0076_eid_s04_32-10-10_oven_10_n04111531_7883.png
subject-04,1,77,1.25058197975159,elephant,bear,32-10-10,0077_eid_s04_32-10-10_bear_10_n02134418_3470.png
subject-04,1,78,1.27613496780396,cat,cat,128-10-10,0078_eid_s04_128-10-10_cat_10_n02123045_1438.png
subject-04,1,79,1.50010204315186,bird,oven,128-10-10,0079_eid_s04_128-10-10_oven_10_n04111531_12769.png
subject-04,1,80,1.0196590423584,oven,oven,2-10-10,0080_eid_s04_2-10-10_oven_10_n04111531_8818.png
subject-04,1,81,NaN,na,chair,4-10-10,0081_eid_s04_4-10-10_chair_10_n03376595_1712.png
subject-04,1,82,0.864418029785156,boat,boat,16-10-10,0082_eid_s04_16-10-10_boat_10_n02951358_33918.png
subject-04,1,83,1.13215398788452,oven,bird,4-10-10,0083_eid_s04_4-10-10_bird_10_n01560419_5466.png
subject-04,1,84,0.854083061218262,elephant,elephant,8-10-10,0084_eid_s04_8-10-10_elephant_10_n02504013_4957.png
subject-04,1,85,1.0976881980896,dog,truck,16-10-10,0085_eid_s04_16-10-10_truck_10_n04467665_11776.png
subject-04,1,86,1.06569504737854,elephant,cat,64-10-10,0086_eid_s04_64-10-10_cat_10_n02123159_4051.png
subject-04,1,87,0.837451934814453,cat,cat,1-10-10,0087_eid_s04_1-10-10_cat_10_n02123394_7782.png
subject-04,1,88,1.10516500473022,bird,bicycle,32-10-10,0088_eid_s04_32-10-10_bicycle_10_n02835271_6122.png
subject-04,1,89,0.711153030395508,cat,cat,16-10-10,0089_eid_s04_16-10-10_cat_10_n02123159_2455.png
subject-04,1,90,1.32079100608826,bird,airplane,16-10-10,0090_eid_s04_16-10-10_airplane_10_n02690373_10395.png
subject-04,1,91,0.946624994277954,clock,knife,16-10-10,0091_eid_s04_16-10-10_knife_10_n03041632_15099.png
subject-04,1,92,0.852624177932739,elephant,elephant,32-10-10,0092_eid_s04_32-10-10_elephant_10_n02504458_3730.png
subject-04,1,93,0.974534034729004,boat,knife,16-10-10,0093_eid_s04_16-10-10_knife_10_n03041632_18995.png
subject-04,1,94,0.850232124328613,keyboard,bottle,8-10-10,0094_eid_s04_8-10-10_bottle_10_n03983396_1985.png
subject-04,1,95,1.08629393577576,oven,bicycle,32-10-10,0095_eid_s04_32-10-10_bicycle_10_n03792782_14935.png
subject-04,1,96,0.951769113540649,boat,boat,4-10-10,0096_eid_s04_4-10-10_boat_10_n03344393_4214.png
subject-04,1,97,1.21775388717651,elephant,dog,2-10-10,0097_eid_s04_2-10-10_dog_10_n02093647_6358.png
subject-04,1,98,1.50002408027649,cat,boat,128-10-10,0098_eid_s04_128-10-10_boat_10_n02951358_9550.png
subject-04,1,99,0.951255083084106,bird,bird,2-10-10,0099_eid_s04_2-10-10_bird_10_n02027492_10281.png
subject-04,1,100,1.24100995063782,car,bird,128-10-10,0100_eid_s04_128-10-10_bird_10_n01796340_18591.png
subject-04,1,101,1.20894503593445,bear,knife,16-10-10,0101_eid_s04_16-10-10_knife_10_n03041632_32177.png
subject-04,1,102,1.50007200241089,truck,knife,128-10-10,0102_eid_s04_128-10-10_knife_10_n03041632_20770.png
subject-04,1,103,1.48655486106873,bear,bottle,16-10-10,0103_eid_s04_16-10-10_bottle_10_n04591713_1174.png
subject-04,1,104,1.24442982673645,bear,keyboard,16-10-10,0104_eid_s04_16-10-10_keyboard_10_n03085013_21397.png
subject-04,1,105,0.80848503112793,clock,clock,16-10-10,0105_eid_s04_16-10-10_clock_10_n04548280_3219.png
subject-04,1,106,0.742028951644897,cat,oven,64-10-10,0106_eid_s04_64-10-10_oven_10_n04111531_8421.png
subject-04,1,107,1.34775400161743,keyboard,bicycle,128-10-10,0107_eid_s04_128-10-10_bicycle_10_n03792782_4210.png
subject-04,1,108,1.13156700134277,bear,cat,2-10-10,0108_eid_s04_2-10-10_cat_10_n02125311_9318.png
subject-04,1,109,1.23936796188354,bicycle,dog,128-10-10,0109_eid_s04_128-10-10_dog_10_n02086910_13835.png
subject-04,1,110,1.07114100456238,bird,oven,32-10-10,0110_eid_s04_32-10-10_oven_10_n04111531_1362.png
subject-04,1,111,0.854915857315063,knife,knife,4-10-10,0111_eid_s04_4-10-10_knife_10_n03041632_41381.png
subject-04,1,112,1.28080606460571,keyboard,clock,64-10-10,0112_eid_s04_64-10-10_clock_10_n03196217_10578.png
subject-04,1,113,1.01867890357971,bird,car,128-10-10,0113_eid_s04_128-10-10_car_10_n03100240_3858.png
subject-04,1,114,1.45853590965271,dog,bird,128-10-10,0114_eid_s04_128-10-10_bird_10_n01616318_2334.png
subject-04,1,115,1.09449505805969,elephant,truck,128-10-10,0115_eid_s04_128-10-10_truck_10_n04467665_6814.png
subject-04,1,116,1.06224513053894,bird,bottle,16-10-10,0116_eid_s04_16-10-10_bottle_10_n04557648_1360.png
subject-04,1,117,1.24200105667114,boat,airplane,64-10-10,0117_eid_s04_64-10-10_airplane_10_n02690373_4845.png
subject-04,1,118,1.34593200683594,oven,bear,64-10-10,0118_eid_s04_64-10-10_bear_10_n02132136_6002.png
subject-04,1,119,0.88169002532959,oven,chair,2-10-10,0119_eid_s04_2-10-10_chair_10_n04429376_55747.png
subject-04,1,120,0.733700037002563,bear,bear,8-10-10,0120_eid_s04_8-10-10_bear_10_n02133161_1244.png
subject-04,1,121,0.859126091003418,boat,boat,2-10-10,0121_eid_s04_2-10-10_boat_10_n02951358_29724.png
subject-04,1,122,0.828886985778809,elephant,elephant,16-10-10,0122_eid_s04_16-10-10_elephant_10_n02504013_8563.png
subject-04,1,123,0.810800075531006,airplane,airplane,2-10-10,0123_eid_s04_2-10-10_airplane_10_n02690373_4042.png
subject-04,1,124,1.07054305076599,airplane,chair,32-10-10,0124_eid_s04_32-10-10_chair_10_n03376595_8995.png
subject-04,1,125,1.25826907157898,chair,oven,1-10-10,0125_eid_s04_1-10-10_oven_10_n04111531_12080.png
subject-04,1,126,1.30210208892822,bottle,airplane,16-10-10,0126_eid_s04_16-10-10_airplane_10_n02690373_10402.png
subject-04,1,127,1.26228284835815,bird,keyboard,128-10-10,0127_eid_s04_128-10-10_keyboard_10_n03085013_5568.png
subject-04,1,128,0.859738111495972,keyboard,boat,1-10-10,0128_eid_s04_1-10-10_boat_10_n03662601_24208.png
subject-04,1,129,0.957823038101196,airplane,airplane,128-10-10,0129_eid_s04_128-10-10_airplane_10_n02690373_3553.png
subject-04,1,130,1.5001277923584,cat,oven,64-10-10,0130_eid_s04_64-10-10_oven_10_n04111531_1818.png
subject-04,1,131,1.021164894104,boat,boat,4-10-10,0131_eid_s04_4-10-10_boat_10_n03344393_11788.png
subject-04,1,132,0.853183031082153,car,car,16-10-10,0132_eid_s04_16-10-10_car_10_n04285008_10893.png
subject-04,1,133,0.966840028762817,elephant,elephant,2-10-10,0133_eid_s04_2-10-10_elephant_10_n02504013_3409.png
subject-04,1,134,0.970800161361694,cat,chair,128-10-10,0134_eid_s04_128-10-10_chair_10_n02791124_1059.png
subject-04,1,135,0.706578969955444,keyboard,keyboard,8-10-10,0135_eid_s04_8-10-10_keyboard_10_n03085013_21066.png
subject-04,1,136,0.822316884994507,elephant,elephant,32-10-10,0136_eid_s04_32-10-10_elephant_10_n02504458_2471.png
subject-04,1,137,0.934231042861938,bicycle,bicycle,2-10-10,0137_eid_s04_2-10-10_bicycle_10_n03792782_25352.png
subject-04,1,138,1.40986204147339,oven,clock,8-10-10,0138_eid_s04_8-10-10_clock_10_n04548280_1.png
subject-04,1,139,0.941867113113403,bird,keyboard,64-10-10,0139_eid_s04_64-10-10_keyboard_10_n04505470_5059.png
subject-04,1,140,1.00575995445251,bicycle,bicycle,4-10-10,0140_eid_s04_4-10-10_bicycle_10_n03792782_15627.png
subject-04,1,141,1.5001380443573,dog,bear,2-10-10,0141_eid_s04_2-10-10_bear_10_n02134084_4818.png
subject-04,1,142,1.36540699005127,elephant,bottle,32-10-10,0142_eid_s04_32-10-10_bottle_10_n04579145_2303.png
subject-04,1,143,0.733092069625854,cat,cat,16-10-10,0143_eid_s04_16-10-10_cat_10_n02123597_14771.png
subject-04,1,144,0.941009044647217,bear,oven,8-10-10,0144_eid_s04_8-10-10_oven_10_n04111531_458.png
subject-04,1,145,1.03067803382874,car,car,2-10-10,0145_eid_s04_2-10-10_car_10_n02814533_62992.png
subject-04,1,146,0.988538980484009,cat,chair,64-10-10,0146_eid_s04_64-10-10_chair_10_n04429376_6147.png
subject-04,1,147,0.934286117553711,bottle,bird,32-10-10,0147_eid_s04_32-10-10_bird_10_n01819313_1422.png
subject-04,1,148,0.680114984512329,keyboard,keyboard,8-10-10,0148_eid_s04_8-10-10_keyboard_10_n03085013_7971.png
subject-04,1,149,1.14602994918823,bird,truck,32-10-10,0149_eid_s04_32-10-10_truck_10_n03417042_27326.png
subject-04,1,150,0.737756967544556,chair,chair,2-10-10,0150_eid_s04_2-10-10_chair_10_n03376595_7709.png
subject-04,1,151,0.871545076370239,elephant,bear,1-10-10,0151_eid_s04_1-10-10_bear_10_n02134418_4685.png
subject-04,1,152,0.727170944213867,elephant,elephant,2-10-10,0152_eid_s04_2-10-10_elephant_10_n02504013_2075.png
subject-04,1,153,1.50001883506775,clock,cat,16-10-10,0153_eid_s04_16-10-10_cat_10_n02123394_12.png
subject-04,1,154,1.09326791763306,bird,elephant,32-10-10,0154_eid_s04_32-10-10_elephant_10_n02504458_5839.png
subject-04,1,155,1.38883209228516,bicycle,bird,128-10-10,0155_eid_s04_128-10-10_bird_10_n01582220_359.png
subject-04,1,156,1.18454790115356,boat,bird,2-10-10,0156_eid_s04_2-10-10_bird_10_n02009912_20610.png
subject-04,1,157,NaN,na,knife,8-10-10,0157_eid_s04_8-10-10_knife_10_n03041632_31363.png
subject-04,1,158,1.33643102645874,bicycle,bicycle,128-10-10,0158_eid_s04_128-10-10_bicycle_10_n03792782_3892.png
subject-04,1,159,1.09020709991455,cat,boat,16-10-10,0159_eid_s04_16-10-10_boat_10_n03662601_83.png
subject-04,1,160,1.191899061203,oven,clock,8-10-10,0160_eid_s04_8-10-10_clock_10_n04548280_1809.png
subject-04,1,161,1.0430212020874,truck,truck,2-10-10,0161_eid_s04_2-10-10_truck_10_n03796401_18976.png
subject-04,1,162,1.05288410186768,boat,car,64-10-10,0162_eid_s04_64-10-10_car_10_n04285008_6102.png
subject-04,1,163,1.17255997657776,oven,knife,8-10-10,0163_eid_s04_8-10-10_knife_10_n03041632_21034.png
subject-04,1,164,0.77879810333252,boat,airplane,32-10-10,0164_eid_s04_32-10-10_airplane_10_n02690373_8123.png
subject-04,1,165,1.19432401657104,airplane,dog,8-10-10,0165_eid_s04_8-10-10_dog_10_n02097474_15157.png
subject-04,1,166,0.88202691078186,keyboard,keyboard,8-10-10,0166_eid_s04_8-10-10_keyboard_10_n04505470_4414.png
subject-04,1,167,1.22388195991516,chair,chair,1-10-10,0167_eid_s04_1-10-10_chair_10_n04099969_3611.png
subject-04,1,168,0.95970892906189,bird,dog,2-10-10,0168_eid_s04_2-10-10_dog_10_n02085936_2225.png
subject-04,1,169,1.43346405029297,bird,elephant,64-10-10,0169_eid_s04_64-10-10_elephant_10_n02504013_5505.png
subject-04,1,170,0.949648141860962,cat,bicycle,64-10-10,0170_eid_s04_64-10-10_bicycle_10_n02835271_15617.png
subject-04,1,171,0.763297080993652,airplane,airplane,1-10-10,0171_eid_s04_1-10-10_airplane_10_n02690373_5465.png
subject-04,1,172,0.834970951080322,airplane,airplane,16-10-10,0172_eid_s04_16-10-10_airplane_10_n02690373_4079.png
subject-04,1,173,NaN,na,knife,8-10-10,0173_eid_s04_8-10-10_knife_10_n03041632_49363.png
subject-04,1,174,1.3488187789917,bear,truck,32-10-10,0174_eid_s04_32-10-10_truck_10_n03417042_3228.png
subject-04,1,175,1.28645086288452,cat,airplane,64-10-10,0175_eid_s04_64-10-10_airplane_10_n02690373_614.png
subject-04,1,176,1.40630006790161,clock,dog,8-10-10,0176_eid_s04_8-10-10_dog_10_n02086079_15773.png
subject-04,1,177,1.27397608757019,bottle,bird,16-10-10,0177_eid_s04_16-10-10_bird_10_n02018207_16716.png
subject-04,1,178,1.18372297286987,cat,cat,16-10-10,0178_eid_s04_16-10-10_cat_10_n02123045_5157.png
subject-04,1,179,0.729794025421143,bottle,bottle,1-10-10,0179_eid_s04_1-10-10_bottle_10_n04579145_6818.png
subject-04,1,180,0.709650039672852,chair,chair,4-10-10,0180_eid_s04_4-10-10_chair_10_n03376595_6107.png
subject-04,1,181,1.29734492301941,truck,truck,2-10-10,0181_eid_s04_2-10-10_truck_10_n03417042_3789.png
subject-04,1,182,1.05707097053528,airplane,bear,2-10-10,0182_eid_s04_2-10-10_bear_10_n02134418_4754.png
subject-04,1,183,1.36885905265808,cat,dog,32-10-10,0183_eid_s04_32-10-10_dog_10_n02088466_9891.png
subject-04,1,184,1.15472197532654,cat,clock,64-10-10,0184_eid_s04_64-10-10_clock_10_n02708093_7810.png
subject-04,1,185,0.944483041763306,cat,airplane,64-10-10,0185_eid_s04_64-10-10_airplane_10_n02690373_2217.png
subject-04,1,186,1.17039203643799,cat,bottle,128-10-10,0186_eid_s04_128-10-10_bottle_10_n04560804_3495.png
subject-04,1,187,0.702213048934937,boat,boat,8-10-10,0187_eid_s04_8-10-10_boat_10_n04273569_31172.png
subject-04,1,188,NaN,na,keyboard,1-10-10,0188_eid_s04_1-10-10_keyboard_10_n03085013_22790.png
subject-04,1,189,0.869848012924194,cat,cat,8-10-10,0189_eid_s04_8-10-10_cat_10_n02123045_8409.png
subject-04,1,190,NaN,na,boat,1-10-10,0190_eid_s04_1-10-10_boat_10_n03344393_6103.png
subject-04,1,191,1.17952108383179,bird,bird,32-10-10,0191_eid_s04_32-10-10_bird_10_n02056570_10127.png
subject-04,1,192,0.695264101028442,airplane,airplane,1-10-10,0192_eid_s04_1-10-10_airplane_10_n02690373_4839.png
subject-04,1,193,1.08895587921143,elephant,bottle,128-10-10,0193_eid_s04_128-10-10_bottle_10_n04560804_15963.png
subject-04,1,194,1.03479981422424,keyboard,boat,4-10-10,0194_eid_s04_4-10-10_boat_10_n03344393_1422.png
subject-04,1,195,0.910648107528687,bird,bird,4-10-10,0195_eid_s04_4-10-10_bird_10_n01534433_10234.png
subject-04,1,196,1.29436302185059,dog,dog,2-10-10,0196_eid_s04_2-10-10_dog_10_n02092002_2008.png
subject-04,1,197,1.40630102157593,bird,bird,8-10-10,0197_eid_s04_8-10-10_bird_10_n01601694_5060.png
subject-04,1,198,0.976179122924805,car,car,8-10-10,0198_eid_s04_8-10-10_car_10_n04285008_12589.png
subject-04,1,199,0.781988143920898,airplane,airplane,8-10-10,0199_eid_s04_8-10-10_airplane_10_n02690373_8304.png
subject-04,1,200,0.907828092575073,elephant,elephant,2-10-10,0200_eid_s04_2-10-10_elephant_10_n02504458_12705.png
subject-04,1,201,1.50004887580872,elephant,bird,1-10-10,0201_eid_s04_1-10-10_bird_10_n02002724_19618.png
subject-04,1,202,1.1834180355072,airplane,airplane,8-10-10,0202_eid_s04_8-10-10_airplane_10_n02690373_4586.png
subject-04,1,203,1.04521083831787,cat,elephant,64-10-10,0203_eid_s04_64-10-10_elephant_10_n02504013_7322.png
subject-04,1,204,0.647400140762329,clock,clock,16-10-10,0204_eid_s04_16-10-10_clock_10_n02708093_3006.png
subject-04,1,205,0.768909931182861,cat,clock,64-10-10,0205_eid_s04_64-10-10_clock_10_n03196217_6289.png
subject-04,1,206,1.41498184204102,cat,oven,128-10-10,0206_eid_s04_128-10-10_oven_10_n04111531_6346.png
subject-04,1,207,NaN,na,truck,4-10-10,0207_eid_s04_4-10-10_truck_10_n03417042_7204.png
subject-04,1,208,NaN,na,elephant,16-10-10,0208_eid_s04_16-10-10_elephant_10_n02504013_3295.png
subject-04,1,209,1.39787006378174,airplane,truck,8-10-10,0209_eid_s04_8-10-10_truck_10_n03796401_1150.png
subject-04,1,210,0.939718961715698,elephant,bird,64-10-10,0210_eid_s04_64-10-10_bird_10_n01860187_21300.png
subject-04,1,211,1.05370807647705,cat,truck,16-10-10,0211_eid_s04_16-10-10_truck_10_n03417042_10117.png
subject-04,1,212,1.02738499641418,elephant,elephant,64-10-10,0212_eid_s04_64-10-10_elephant_10_n02504458_5178.png
subject-04,1,213,0.865232944488525,bottle,bottle,2-10-10,0213_eid_s04_2-10-10_bottle_10_n03937543_1413.png
subject-04,1,214,1.11117720603943,chair,oven,2-10-10,0214_eid_s04_2-10-10_oven_10_n04111531_8082.png
subject-04,1,215,1.10714983940125,cat,oven,16-10-10,0215_eid_s04_16-10-10_oven_10_n04111531_3314.png
subject-04,1,216,1.19690084457397,bird,chair,128-10-10,0216_eid_s04_128-10-10_chair_10_n03376595_2891.png
subject-04,1,217,0.972588062286377,cat,bear,128-10-10,0217_eid_s04_128-10-10_bear_10_n02133161_1944.png
subject-04,1,218,1.16842484474182,airplane,boat,4-10-10,0218_eid_s04_4-10-10_boat_10_n03344393_732.png
subject-04,1,219,1.27414417266846,bicycle,bicycle,8-10-10,0219_eid_s04_8-10-10_bicycle_10_n02835271_12782.png
subject-04,1,220,1.4063618183136,cat,oven,64-10-10,0220_eid_s04_64-10-10_oven_10_n04111531_5906.png
subject-04,1,221,1.13981103897095,cat,bird,16-10-10,0221_eid_s04_16-10-10_bird_10_n01531178_18032.png
subject-04,1,222,1.29959177970886,boat,knife,128-10-10,0222_eid_s04_128-10-10_knife_10_n03041632_379.png
subject-04,1,223,1.5001118183136,oven,clock,128-10-10,0223_eid_s04_128-10-10_clock_10_n03196217_11714.png
subject-04,1,224,0.937154054641724,oven,elephant,64-10-10,0224_eid_s04_64-10-10_elephant_10_n02504013_2974.png
subject-04,1,225,1.49999690055847,oven,dog,64-10-10,0225_eid_s04_64-10-10_dog_10_n02113023_10107.png
subject-04,1,226,1.00680994987488,oven,truck,1-10-10,0226_eid_s04_1-10-10_truck_10_n03796401_26620.png
subject-04,1,227,1.10485506057739,bird,bird,64-10-10,0227_eid_s04_64-10-10_bird_10_n02051845_534.png
subject-04,1,228,0.876557111740112,cat,elephant,64-10-10,0228_eid_s04_64-10-10_elephant_10_n02504013_4485.png
subject-04,1,229,1.43430805206299,truck,truck,1-10-10,0229_eid_s04_1-10-10_truck_10_n04467665_21969.png
subject-04,1,230,1.07610392570496,airplane,airplane,64-10-10,0230_eid_s04_64-10-10_airplane_10_n02690373_10931.png
subject-04,1,231,1.13993620872498,keyboard,bottle,8-10-10,0231_eid_s04_8-10-10_bottle_10_n04591713_2501.png
subject-04,1,232,1.37217378616333,oven,chair,8-10-10,0232_eid_s04_8-10-10_chair_10_n04429376_21845.png
subject-04,1,233,1.46756505966187,bottle,knife,4-10-10,0233_eid_s04_4-10-10_knife_10_n03041632_52848.png
subject-04,1,234,1.297278881073,dog,dog,16-10-10,0234_eid_s04_16-10-10_dog_10_n02104029_8137.png
subject-04,1,235,1.24120402336121,cat,boat,64-10-10,0235_eid_s04_64-10-10_boat_10_n04612504_14480.png
subject-04,1,236,1.33883213996887,bird,truck,64-10-10,0236_eid_s04_64-10-10_truck_10_n03796401_10276.png
subject-04,1,237,NaN,na,chair,1-10-10,0237_eid_s04_1-10-10_chair_10_n03376595_787.png
subject-04,1,238,1.07488679885864,bear,bear,32-10-10,0238_eid_s04_32-10-10_bear_10_n02134084_20500.png
subject-04,1,239,0.952375888824463,elephant,elephant,16-10-10,0239_eid_s04_16-10-10_elephant_10_n02504013_17391.png
subject-04,1,240,0.972516059875488,keyboard,keyboard,32-10-10,0240_eid_s04_32-10-10_keyboard_10_n04505470_5173.png
subject-04,1,241,1.04242992401123,elephant,elephant,1-10-10,0241_eid_s04_1-10-10_elephant_10_n02504013_6275.png
subject-04,1,242,1.19597411155701,cat,oven,128-10-10,0242_eid_s04_128-10-10_oven_10_n04111531_18592.png
subject-04,1,243,1.36208510398865,car,car,32-10-10,0243_eid_s04_32-10-10_car_10_n03100240_20061.png
subject-04,1,244,1.37389707565308,airplane,cat,128-10-10,0244_eid_s04_128-10-10_cat_10_n02124075_10566.png
subject-04,1,245,1.06971788406372,airplane,airplane,2-10-10,0245_eid_s04_2-10-10_airplane_10_n02690373_9170.png
subject-04,1,246,1.29728221893311,bird,boat,64-10-10,0246_eid_s04_64-10-10_boat_10_n03662601_2120.png
subject-04,1,247,1.01908802986145,bicycle,bicycle,8-10-10,0247_eid_s04_8-10-10_bicycle_10_n02835271_12957.png
subject-04,1,248,1.07275390625,car,car,1-10-10,0248_eid_s04_1-10-10_car_10_n04285008_2727.png
subject-04,1,249,1.26873707771301,bird,car,64-10-10,0249_eid_s04_64-10-10_car_10_n04285008_12101.png
subject-04,1,250,1.5000331401825,oven,knife,128-10-10,0250_eid_s04_128-10-10_knife_10_n03041632_29285.png
subject-04,1,251,0.870116949081421,clock,clock,1-10-10,0251_eid_s04_1-10-10_clock_10_n02708093_3996.png
subject-04,1,252,1.19604301452637,airplane,bear,64-10-10,0252_eid_s04_64-10-10_bear_10_n02132136_31664.png
subject-04,1,253,1.05214595794678,truck,truck,1-10-10,0253_eid_s04_1-10-10_truck_10_n03417042_29384.png
subject-04,1,254,1.09807920455933,bicycle,elephant,128-10-10,0254_eid_s04_128-10-10_elephant_10_n02504458_5204.png
subject-04,1,255,1.09941911697388,dog,dog,64-10-10,0255_eid_s04_64-10-10_dog_10_n02107683_5424.png
subject-04,1,256,0.973567962646484,bottle,bottle,1-10-10,0256_eid_s04_1-10-10_bottle_10_n03937543_5375.png
subject-04,1,257,1.10912585258484,bottle,chair,4-10-10,0257_eid_s04_4-10-10_chair_10_n02791124_9595.png
subject-04,1,258,1.18707394599915,chair,bottle,128-10-10,0258_eid_s04_128-10-10_bottle_10_n04560804_22426.png
subject-04,1,259,1.0750470161438,elephant,bird,64-10-10,0259_eid_s04_64-10-10_bird_10_n01860187_15592.png
subject-04,1,260,1.2084789276123,bicycle,truck,32-10-10,0260_eid_s04_32-10-10_truck_10_n03417042_4200.png
subject-04,1,261,1.21874403953552,cat,bird,4-10-10,0261_eid_s04_4-10-10_bird_10_n02007558_16547.png
subject-04,1,262,0.976190090179443,clock,clock,2-10-10,0262_eid_s04_2-10-10_clock_10_n04548280_3341.png
subject-04,1,263,1.32999205589294,cat,clock,32-10-10,0263_eid_s04_32-10-10_clock_10_n03196217_3951.png
subject-04,1,264,1.14394807815552,cat,bear,16-10-10,0264_eid_s04_16-10-10_bear_10_n02134418_2714.png
subject-04,1,265,1.21768116950989,bird,clock,16-10-10,0265_eid_s04_16-10-10_clock_10_n04548280_6337.png
subject-04,1,266,1.30539798736572,dog,oven,128-10-10,0266_eid_s04_128-10-10_oven_10_n04111531_15635.png
subject-04,1,267,1.42535305023193,bottle,keyboard,4-10-10,0267_eid_s04_4-10-10_keyboard_10_n03085013_23295.png
subject-04,1,268,1.1714460849762,knife,knife,8-10-10,0268_eid_s04_8-10-10_knife_10_n03041632_23803.png
subject-04,1,269,1.07886481285095,car,car,2-10-10,0269_eid_s04_2-10-10_car_10_n02814533_59053.png
subject-04,1,270,0.756700992584229,keyboard,keyboard,1-10-10,0270_eid_s04_1-10-10_keyboard_10_n04505470_2881.png
subject-04,1,271,1.24049091339111,cat,cat,64-10-10,0271_eid_s04_64-10-10_cat_10_n02123394_3062.png
subject-04,1,272,0.966432094573975,airplane,airplane,4-10-10,0272_eid_s04_4-10-10_airplane_10_n02690373_18460.png
subject-04,1,273,1.26007318496704,cat,bear,32-10-10,0273_eid_s04_32-10-10_bear_10_n02133161_7688.png
subject-04,1,274,1.38801980018616,chair,car,4-10-10,0274_eid_s04_4-10-10_car_10_n03100240_5709.png
subject-04,1,275,1.06192088127136,dog,elephant,16-10-10,0275_eid_s04_16-10-10_elephant_10_n02504013_1088.png
subject-04,1,276,0.643754005432129,elephant,elephant,2-10-10,0276_eid_s04_2-10-10_elephant_10_n02504013_466.png
subject-04,1,277,1.10745406150818,bird,bird,1-10-10,0277_eid_s04_1-10-10_bird_10_n02018207_10146.png
subject-04,1,278,1.29120683670044,dog,boat,64-10-10,0278_eid_s04_64-10-10_boat_10_n03662601_27960.png
subject-04,1,279,1.42505598068237,truck,truck,8-10-10,0279_eid_s04_8-10-10_truck_10_n04467665_3710.png
subject-04,1,280,0.987247943878174,cat,truck,64-10-10,0280_eid_s04_64-10-10_truck_10_n03417042_18072.png
subject-04,1,281,1.50013279914856,car,car,2-10-10,0281_eid_s04_2-10-10_car_10_n02814533_9812.png
subject-04,1,282,0.73658299446106,bottle,bottle,4-10-10,0282_eid_s04_4-10-10_bottle_10_n04560804_8841.png
subject-04,1,283,1.34840202331543,bear,bear,16-10-10,0283_eid_s04_16-10-10_bear_10_n02133161_1234.png
subject-04,1,284,1.20835304260254,bear,bear,8-10-10,0284_eid_s04_8-10-10_bear_10_n02132136_6266.png
subject-04,1,285,1.02823114395142,oven,chair,4-10-10,0285_eid_s04_4-10-10_chair_10_n04429376_57014.png
subject-04,1,286,1.06783819198608,bear,truck,32-10-10,0286_eid_s04_32-10-10_truck_10_n04467665_76958.png
subject-04,1,287,NaN,na,truck,128-10-10,0287_eid_s04_128-10-10_truck_10_n03417042_10154.png
subject-04,1,288,0.98550009727478,oven,chair,8-10-10,0288_eid_s04_8-10-10_chair_10_n02791124_381.png
subject-04,1,289,0.789062023162842,cat,bottle,64-10-10,0289_eid_s04_64-10-10_bottle_10_n04557648_2654.png
subject-04,1,290,1.149080991745,keyboard,boat,1-10-10,0290_eid_s04_1-10-10_boat_10_n03344393_1178.png
subject-04,1,291,0.756731033325195,bear,bear,4-10-10,0291_eid_s04_4-10-10_bear_10_n02134084_12148.png
subject-04,1,292,1.15870308876038,clock,airplane,32-10-10,0292_eid_s04_32-10-10_airplane_10_n02690373_5253.png
subject-04,1,293,1.36244201660156,cat,knife,128-10-10,0293_eid_s04_128-10-10_knife_10_n03041632_47703.png
subject-04,1,294,1.24031400680542,airplane,keyboard,32-10-10,0294_eid_s04_32-10-10_keyboard_10_n04505470_4486.png
subject-04,1,295,0.811990976333618,oven,bottle,8-10-10,0295_eid_s04_8-10-10_bottle_10_n04560804_265.png
subject-04,1,296,1.28173589706421,chair,bicycle,4-10-10,0296_eid_s04_4-10-10_bicycle_10_n02835271_3732.png
subject-04,1,297,1.11960697174072,chair,elephant,32-10-10,0297_eid_s04_32-10-10_elephant_10_n02504013_464.png
subject-04,1,298,0.645520925521851,cat,boat,32-10-10,0298_eid_s04_32-10-10_boat_10_n02951358_31973.png
subject-04,1,299,1.50014996528625,dog,oven,128-10-10,0299_eid_s04_128-10-10_oven_10_n04111531_9779.png
subject-04,1,300,0.917564868927002,cat,keyboard,16-10-10,0300_eid_s04_16-10-10_keyboard_10_n04505470_647.png
subject-04,1,301,0.946889877319336,cat,car,128-10-10,0301_eid_s04_128-10-10_car_10_n04285008_15218.png
subject-04,1,302,0.912673950195312,elephant,dog,4-10-10,0302_eid_s04_4-10-10_dog_10_n02100583_9672.png
subject-04,1,303,0.938416004180908,clock,chair,128-10-10,0303_eid_s04_128-10-10_chair_10_n02791124_2343.png
subject-04,1,304,1.07842588424683,boat,boat,2-10-10,0304_eid_s04_2-10-10_boat_10_n03662601_11972.png
subject-04,1,305,0.816370010375977,boat,chair,8-10-10,0305_eid_s04_8-10-10_chair_10_n02791124_5319.png
subject-04,1,306,1.27196192741394,keyboard,oven,2-10-10,0306_eid_s04_2-10-10_oven_10_n04111531_3193.png
subject-04,1,307,1.05976796150208,keyboard,keyboard,1-10-10,0307_eid_s04_1-10-10_keyboard_10_n03085013_22719.png
subject-04,1,308,0.777570962905884,cat,chair,64-10-10,0308_eid_s04_64-10-10_chair_10_n02791124_1358.png
subject-04,1,309,1.0657799243927,elephant,bottle,128-10-10,0309_eid_s04_128-10-10_bottle_10_n02823428_3414.png
subject-04,1,310,0.789211988449097,dog,dog,8-10-10,0310_eid_s04_8-10-10_dog_10_n02086646_6773.png
subject-04,1,311,1.30342483520508,dog,chair,8-10-10,0311_eid_s04_8-10-10_chair_10_n03376595_9267.png
subject-04,1,312,1.50005316734314,chair,oven,4-10-10,0312_eid_s04_4-10-10_oven_10_n04111531_8959.png
subject-04,1,313,1.00257682800293,cat,elephant,32-10-10,0313_eid_s04_32-10-10_elephant_10_n02504013_7232.png
subject-04,1,314,1.08041715621948,dog,cat,32-10-10,0314_eid_s04_32-10-10_cat_10_n02123159_3312.png
subject-04,1,315,0.938354969024658,bird,bird,1-10-10,0315_eid_s04_1-10-10_bird_10_n01614925_7618.png
subject-04,1,316,1.06221914291382,bicycle,bicycle,2-10-10,0316_eid_s04_2-10-10_bicycle_10_n02835271_634.png
subject-04,1,317,0.823977947235107,dog,bird,64-10-10,0317_eid_s04_64-10-10_bird_10_n01532829_20405.png
subject-04,1,318,1.24167895317078,bird,bottle,16-10-10,0318_eid_s04_16-10-10_bottle_10_n02823428_4282.png
subject-04,1,319,0.835793018341064,clock,clock,2-10-10,0319_eid_s04_2-10-10_clock_10_n02708093_6820.png
subject-04,1,320,0.943264007568359,dog,dog,2-10-10,0320_eid_s04_2-10-10_dog_10_n02110185_11605.png
subject-04,1,321,1.12335681915283,bear,bear,16-10-10,0321_eid_s04_16-10-10_bear_10_n02133161_7080.png
subject-04,1,322,1.19350504875183,bird,bottle,128-10-10,0322_eid_s04_128-10-10_bottle_10_n04591713_36.png
subject-04,1,323,1.16299104690552,cat,chair,32-10-10,0323_eid_s04_32-10-10_chair_10_n03376595_7275.png
subject-04,1,324,1.2169349193573,cat,elephant,64-10-10,0324_eid_s04_64-10-10_elephant_10_n02504458_3689.png
subject-04,1,325,1.46874117851257,bird,keyboard,64-10-10,0325_eid_s04_64-10-10_keyboard_10_n04505470_1581.png
subject-04,1,326,1.0786440372467,boat,airplane,64-10-10,0326_eid_s04_64-10-10_airplane_10_n02690373_5204.png
subject-04,1,327,0.730540990829468,chair,chair,8-10-10,0327_eid_s04_8-10-10_chair_10_n04099969_19966.png
subject-04,1,328,0.942111968994141,bird,knife,32-10-10,0328_eid_s04_32-10-10_knife_10_n03041632_10109.png
subject-04,1,329,1.07203888893127,bird,elephant,128-10-10,0329_eid_s04_128-10-10_elephant_10_n02504458_6823.png
subject-04,1,330,0.893782138824463,cat,cat,128-10-10,0330_eid_s04_128-10-10_cat_10_n02123045_991.png
subject-04,1,331,0.71157693862915,keyboard,keyboard,8-10-10,0331_eid_s04_8-10-10_keyboard_10_n04505470_4616.png
subject-04,1,332,0.777359008789062,dog,dog,16-10-10,0332_eid_s04_16-10-10_dog_10_n02095314_5363.png
subject-04,1,333,0.825589895248413,bear,bear,1-10-10,0333_eid_s04_1-10-10_bear_10_n02132136_10496.png
subject-04,1,334,0.899013996124268,bottle,bottle,1-10-10,0334_eid_s04_1-10-10_bottle_10_n02823428_64.png
subject-04,1,335,0.828803062438965,cat,bicycle,32-10-10,0335_eid_s04_32-10-10_bicycle_10_n02835271_19834.png
subject-04,1,336,0.881181955337524,truck,truck,2-10-10,0336_eid_s04_2-10-10_truck_10_n03796401_6966.png
subject-04,1,337,1.01841115951538,bird,bear,128-10-10,0337_eid_s04_128-10-10_bear_10_n02133161_1197.png
subject-04,1,338,0.918409824371338,cat,oven,32-10-10,0338_eid_s04_32-10-10_oven_10_n04111531_101.png
subject-04,1,339,0.724131107330322,bird,bird,4-10-10,0339_eid_s04_4-10-10_bird_10_n01824575_4470.png
subject-04,1,340,0.809952020645142,oven,oven,4-10-10,0340_eid_s04_4-10-10_oven_10_n04111531_3076.png
subject-04,1,341,1.21582293510437,bear,bear,8-10-10,0341_eid_s04_8-10-10_bear_10_n02132136_10318.png
subject-04,1,342,0.731664180755615,bottle,bottle,2-10-10,0342_eid_s04_2-10-10_bottle_10_n02823428_4097.png
subject-04,1,343,1.42553305625916,elephant,elephant,8-10-10,0343_eid_s04_8-10-10_elephant_10_n02504013_6120.png
subject-04,1,344,1.00710296630859,keyboard,oven,1-10-10,0344_eid_s04_1-10-10_oven_10_n04111531_6172.png
subject-04,1,345,1.00510811805725,oven,car,1-10-10,0345_eid_s04_1-10-10_car_10_n04285008_3103.png
subject-04,1,346,1.04096508026123,clock,cat,128-10-10,0346_eid_s04_128-10-10_cat_10_n02123394_176.png
subject-04,1,347,0.838531017303467,oven,oven,8-10-10,0347_eid_s04_8-10-10_oven_10_n04111531_3286.png
subject-04,1,348,0.896454811096191,cat,bear,2-10-10,0348_eid_s04_2-10-10_bear_10_n02133161_6458.png
subject-04,1,349,0.852383136749268,cat,bird,128-10-10,0349_eid_s04_128-10-10_bird_10_n01592084_7569.png
subject-04,1,350,0.876006841659546,car,car,4-10-10,0350_eid_s04_4-10-10_car_10_n02814533_42884.png
subject-04,1,351,1.16189002990723,truck,elephant,16-10-10,0351_eid_s04_16-10-10_elephant_10_n02504458_4708.png
subject-04,1,352,1.25379800796509,clock,clock,2-10-10,0352_eid_s04_2-10-10_clock_10_n03196217_8139.png
subject-04,1,353,0.599525928497314,cat,cat,1-10-10,0353_eid_s04_1-10-10_cat_10_n02123597_7142.png
subject-04,1,354,1.2192530632019,bicycle,bicycle,4-10-10,0354_eid_s04_4-10-10_bicycle_10_n03792782_9432.png
subject-04,1,355,0.85507607460022,chair,chair,2-10-10,0355_eid_s04_2-10-10_chair_10_n04099969_2020.png
subject-04,1,356,1.42491698265076,dog,dog,4-10-10,0356_eid_s04_4-10-10_dog_10_n02086079_2896.png
subject-04,1,357,1.47879791259766,oven,clock,8-10-10,0357_eid_s04_8-10-10_clock_10_n03196217_6689.png
subject-04,1,358,1.28259110450745,dog,cat,8-10-10,0358_eid_s04_8-10-10_cat_10_n02125311_2923.png
subject-04,1,359,1.26833295822144,bird,airplane,64-10-10,0359_eid_s04_64-10-10_airplane_10_n02690373_757.png
subject-04,1,360,1.4083399772644,boat,boat,4-10-10,0360_eid_s04_4-10-10_boat_10_n03662601_8488.png
subject-04,1,361,0.887957096099854,cat,keyboard,32-10-10,0361_eid_s04_32-10-10_keyboard_10_n03085013_20216.png
subject-04,1,362,0.801934003829956,bird,dog,8-10-10,0362_eid_s04_8-10-10_dog_10_n02102040_2216.png
subject-04,1,363,1.04764294624329,bird,clock,128-10-10,0363_eid_s04_128-10-10_clock_10_n04548280_8162.png
subject-04,1,364,0.845674991607666,cat,knife,16-10-10,0364_eid_s04_16-10-10_knife_10_n03041632_29427.png
subject-04,1,365,0.851361989974976,airplane,airplane,4-10-10,0365_eid_s04_4-10-10_airplane_10_n02690373_4335.png
subject-04,1,366,1.40308594703674,truck,truck,16-10-10,0366_eid_s04_16-10-10_truck_10_n03796401_5963.png
subject-04,1,367,0.952960968017578,bottle,oven,2-10-10,0367_eid_s04_2-10-10_oven_10_n04111531_5218.png
subject-04,1,368,1.10887122154236,elephant,bird,16-10-10,0368_eid_s04_16-10-10_bird_10_n01818515_4663.png
subject-04,1,369,1.30248808860779,keyboard,cat,4-10-10,0369_eid_s04_4-10-10_cat_10_n02124075_15405.png
subject-04,1,370,1.15029907226562,cat,oven,16-10-10,0370_eid_s04_16-10-10_oven_10_n04111531_519.png
subject-04,1,371,0.744149923324585,bottle,bottle,4-10-10,0371_eid_s04_4-10-10_bottle_10_n02823428_4172.png
subject-04,1,372,0.856045007705688,boat,boat,1-10-10,0372_eid_s04_1-10-10_boat_10_n03662601_21775.png
subject-04,1,373,1.25765514373779,bird,bottle,128-10-10,0373_eid_s04_128-10-10_bottle_10_n03937543_2269.png
subject-04,1,374,1.28566002845764,truck,truck,1-10-10,0374_eid_s04_1-10-10_truck_10_n04467665_4840.png
subject-04,1,375,1.3393931388855,cat,knife,16-10-10,0375_eid_s04_16-10-10_knife_10_n03041632_19620.png
subject-04,1,376,1.06735706329346,bird,knife,128-10-10,0376_eid_s04_128-10-10_knife_10_n03041632_1556.png
subject-04,1,377,0.827471017837524,keyboard,keyboard,8-10-10,0377_eid_s04_8-10-10_keyboard_10_n03085013_8296.png
subject-04,1,378,1.28468894958496,cat,truck,16-10-10,0378_eid_s04_16-10-10_truck_10_n03417042_6941.png
subject-04,1,379,1.12456083297729,bear,cat,32-10-10,0379_eid_s04_32-10-10_cat_10_n02125311_57758.png
subject-04,1,380,1.05264902114868,bird,bird,2-10-10,0380_eid_s04_2-10-10_bird_10_n02009912_18125.png
subject-04,1,381,1.18831300735474,cat,airplane,32-10-10,0381_eid_s04_32-10-10_airplane_10_n02690373_5055.png
subject-04,1,382,1.2501049041748,keyboard,clock,1-10-10,0382_eid_s04_1-10-10_clock_10_n03196217_71.png
subject-04,1,383,1.41580200195312,dog,airplane,32-10-10,0383_eid_s04_32-10-10_airplane_10_n02690373_4588.png
subject-04,1,384,1.03379607200623,bird,bear,128-10-10,0384_eid_s04_128-10-10_bear_10_n02134418_4295.png
subject-04,1,385,1.23363995552063,bird,truck,32-10-10,0385_eid_s04_32-10-10_truck_10_n03417042_18152.png
subject-04,1,386,1.50008201599121,keyboard,knife,2-10-10,0386_eid_s04_2-10-10_knife_10_n03041632_21818.png
subject-04,1,387,1.05543899536133,clock,bottle,16-10-10,0387_eid_s04_16-10-10_bottle_10_n04560804_5769.png
subject-04,1,388,0.812903881072998,bird,car,64-10-10,0388_eid_s04_64-10-10_car_10_n04285008_11745.png
subject-04,1,389,0.820911169052124,cat,cat,4-10-10,0389_eid_s04_4-10-10_cat_10_n02123159_491.png
subject-04,1,390,0.840502023696899,bottle,bottle,4-10-10,0390_eid_s04_4-10-10_bottle_10_n03983396_11716.png
subject-04,1,391,0.88286018371582,bottle,boat,1-10-10,0391_eid_s04_1-10-10_boat_10_n02951358_1470.png
subject-04,1,392,0.98614501953125,cat,oven,4-10-10,0392_eid_s04_4-10-10_oven_10_n04111531_9712.png
subject-04,1,393,1.01206398010254,bird,car,64-10-10,0393_eid_s04_64-10-10_car_10_n04285008_8017.png
subject-04,1,394,1.34621000289917,chair,airplane,64-10-10,0394_eid_s04_64-10-10_airplane_10_n02690373_2026.png
subject-04,1,395,1.05568099021912,chair,truck,64-10-10,0395_eid_s04_64-10-10_truck_10_n03417042_5406.png
subject-04,1,396,0.763670206069946,chair,chair,1-10-10,0396_eid_s04_1-10-10_chair_10_n04099969_24378.png
subject-04,1,397,1.19516706466675,bird,elephant,4-10-10,0397_eid_s04_4-10-10_elephant_10_n02504013_13766.png
subject-04,1,398,1.03533387184143,airplane,dog,2-10-10,0398_eid_s04_2-10-10_dog_10_n02099849_2787.png
subject-04,1,399,1.06101298332214,keyboard,keyboard,8-10-10,0399_eid_s04_8-10-10_keyboard_10_n03085013_20881.png
subject-04,1,400,0.908716917037964,keyboard,keyboard,16-10-10,0400_eid_s04_16-10-10_keyboard_10_n04505470_1067.png
subject-04,1,401,1.28215408325195,keyboard,oven,8-10-10,0401_eid_s04_8-10-10_oven_10_n04111531_46651.png
subject-04,1,402,1.10405087471008,bear,bear,2-10-10,0402_eid_s04_2-10-10_bear_10_n02134084_2959.png
subject-04,1,403,1.26166796684265,clock,clock,16-10-10,0403_eid_s04_16-10-10_clock_10_n04548280_6989.png
subject-04,1,404,0.799558877944946,boat,boat,2-10-10,0404_eid_s04_2-10-10_boat_10_n04273569_12725.png
subject-04,1,405,0.653414011001587,keyboard,keyboard,2-10-10,0405_eid_s04_2-10-10_keyboard_10_n03085013_13005.png
subject-04,1,406,0.70720100402832,chair,chair,1-10-10,0406_eid_s04_1-10-10_chair_10_n04099969_29038.png
subject-04,1,407,0.744876146316528,car,car,32-10-10,0407_eid_s04_32-10-10_car_10_n02814533_97522.png
subject-04,1,408,1.06501388549805,airplane,airplane,32-10-10,0408_eid_s04_32-10-10_airplane_10_n02690373_10657.png
subject-04,1,409,0.996722936630249,bottle,bottle,8-10-10,0409_eid_s04_8-10-10_bottle_10_n03937543_3347.png
subject-04,1,410,1.37062096595764,dog,car,32-10-10,0410_eid_s04_32-10-10_car_10_n02814533_46403.png
subject-04,1,411,1.21846008300781,bear,bicycle,128-10-10,0411_eid_s04_128-10-10_bicycle_10_n03792782_3299.png
subject-04,1,412,1.01814889907837,car,car,16-10-10,0412_eid_s04_16-10-10_car_10_n04285008_5562.png
subject-04,1,413,0.77593994140625,airplane,airplane,1-10-10,0413_eid_s04_1-10-10_airplane_10_n02690373_10210.png
subject-04,1,414,0.779638051986694,dog,dog,1-10-10,0414_eid_s04_1-10-10_dog_10_n02086240_1567.png
subject-04,1,415,1.03145098686218,dog,cat,32-10-10,0415_eid_s04_32-10-10_cat_10_n02123159_1598.png
subject-04,1,416,0.96953010559082,bird,dog,16-10-10,0416_eid_s04_16-10-10_dog_10_n02086646_7544.png
subject-04,1,417,0.87921404838562,cat,knife,64-10-10,0417_eid_s04_64-10-10_knife_10_n03041632_33424.png
subject-04,1,418,1.34706091880798,bicycle,bicycle,16-10-10,0418_eid_s04_16-10-10_bicycle_10_n02835271_4654.png
subject-04,1,419,0.998864889144897,oven,airplane,32-10-10,0419_eid_s04_32-10-10_airplane_10_n02690373_3492.png
subject-04,1,420,0.876749992370605,airplane,knife,16-10-10,0420_eid_s04_16-10-10_knife_10_n03041632_45569.png
subject-04,1,421,1.50002503395081,airplane,bird,32-10-10,0421_eid_s04_32-10-10_bird_10_n01537544_5944.png
subject-04,1,422,1.48826313018799,bear,elephant,32-10-10,0422_eid_s04_32-10-10_elephant_10_n02504458_4187.png
subject-04,1,423,0.968387126922607,car,car,2-10-10,0423_eid_s04_2-10-10_car_10_n04285008_16701.png
subject-04,1,424,1.03606605529785,bottle,bottle,1-10-10,0424_eid_s04_1-10-10_bottle_10_n03983396_11006.png
subject-04,1,425,1.00211811065674,bird,oven,32-10-10,0425_eid_s04_32-10-10_oven_10_n04111531_4879.png
subject-04,1,426,1.04361200332642,cat,knife,4-10-10,0426_eid_s04_4-10-10_knife_10_n03041632_23678.png
subject-04,1,427,0.977230072021484,oven,bottle,16-10-10,0427_eid_s04_16-10-10_bottle_10_n04557648_2052.png
subject-04,1,428,0.713143825531006,car,car,4-10-10,0428_eid_s04_4-10-10_car_10_n04285008_12691.png
subject-04,1,429,1.15917992591858,cat,boat,32-10-10,0429_eid_s04_32-10-10_boat_10_n03662601_21699.png
subject-04,1,430,1.20056414604187,bird,keyboard,64-10-10,0430_eid_s04_64-10-10_keyboard_10_n04505470_5131.png
subject-04,1,431,1.44242382049561,bear,chair,128-10-10,0431_eid_s04_128-10-10_chair_10_n04099969_5233.png
subject-04,1,432,1.15645503997803,bear,elephant,64-10-10,0432_eid_s04_64-10-10_elephant_10_n02504013_7209.png
subject-04,1,433,0.778239965438843,bicycle,bicycle,16-10-10,0433_eid_s04_16-10-10_bicycle_10_n03792782_15898.png
subject-04,1,434,1.40198493003845,bird,car,128-10-10,0434_eid_s04_128-10-10_car_10_n04285008_2560.png
subject-04,1,435,1.08773398399353,truck,truck,2-10-10,0435_eid_s04_2-10-10_truck_10_n03417042_14274.png
subject-04,1,436,1.48746204376221,bird,dog,64-10-10,0436_eid_s04_64-10-10_dog_10_n02099429_1118.png
subject-04,1,437,0.755333185195923,cat,dog,128-10-10,0437_eid_s04_128-10-10_dog_10_n02090622_7102.png
subject-04,1,438,1.04124784469604,boat,chair,1-10-10,0438_eid_s04_1-10-10_chair_10_n03376595_3824.png
subject-04,1,439,0.84899115562439,cat,chair,32-10-10,0439_eid_s04_32-10-10_chair_10_n04099969_25327.png
subject-04,1,440,0.821188926696777,oven,keyboard,16-10-10,0440_eid_s04_16-10-10_keyboard_10_n03085013_10659.png
subject-04,1,441,1.00264406204224,oven,bird,128-10-10,0441_eid_s04_128-10-10_bird_10_n02056570_9342.png
subject-04,1,442,1.14462184906006,cat,bicycle,64-10-10,0442_eid_s04_64-10-10_bicycle_10_n02835271_6137.png
subject-04,1,443,1.05661296844482,boat,car,32-10-10,0443_eid_s04_32-10-10_car_10_n02814533_28171.png
subject-04,1,444,0.964052200317383,clock,keyboard,64-10-10,0444_eid_s04_64-10-10_keyboard_10_n04505470_1651.png
subject-04,1,445,1.36790800094604,boat,elephant,1-10-10,0445_eid_s04_1-10-10_elephant_10_n02504013_8105.png
subject-04,1,446,0.623658895492554,chair,chair,8-10-10,0446_eid_s04_8-10-10_chair_10_n03376595_1044.png
subject-04,1,447,1.39755010604858,airplane,airplane,32-10-10,0447_eid_s04_32-10-10_airplane_10_n02690373_6831.png
subject-04,1,448,1.21321296691895,bear,bird,32-10-10,0448_eid_s04_32-10-10_bird_10_n02009912_5714.png
subject-04,1,449,1.50012397766113,bottle,keyboard,1-10-10,0449_eid_s04_1-10-10_keyboard_10_n04505470_4702.png
subject-04,1,450,0.845102071762085,chair,chair,2-10-10,0450_eid_s04_2-10-10_chair_10_n02791124_8711.png
subject-04,1,451,1.43072891235352,elephant,bird,8-10-10,0451_eid_s04_8-10-10_bird_10_n01582220_4708.png
subject-04,1,452,1.08064913749695,dog,cat,128-10-10,0452_eid_s04_128-10-10_cat_10_n02123045_7829.png
subject-04,1,453,1.00427198410034,cat,knife,16-10-10,0453_eid_s04_16-10-10_knife_10_n03041632_25772.png
subject-04,1,454,0.724181890487671,chair,chair,8-10-10,0454_eid_s04_8-10-10_chair_10_n04099969_4374.png
subject-04,1,455,1.00814199447632,truck,truck,4-10-10,0455_eid_s04_4-10-10_truck_10_n04467665_663.png
subject-04,1,456,1.50004100799561,car,chair,16-10-10,0456_eid_s04_16-10-10_chair_10_n02791124_146.png
subject-04,1,457,1.06582403182983,oven,oven,2-10-10,0457_eid_s04_2-10-10_oven_10_n04111531_7728.png
subject-04,1,458,1.43146705627441,cat,clock,128-10-10,0458_eid_s04_128-10-10_clock_10_n02708093_7054.png
subject-04,1,459,0.841253042221069,bird,bird,1-10-10,0459_eid_s04_1-10-10_bird_10_n01531178_14959.png
subject-04,1,460,0.797501802444458,car,car,8-10-10,0460_eid_s04_8-10-10_car_10_n03100240_1262.png
subject-04,1,461,0.774829149246216,cat,truck,64-10-10,0461_eid_s04_64-10-10_truck_10_n03796401_9472.png
subject-04,1,462,0.942847013473511,airplane,airplane,8-10-10,0462_eid_s04_8-10-10_airplane_10_n02690373_1563.png
subject-04,1,463,0.854568004608154,keyboard,cat,1-10-10,0463_eid_s04_1-10-10_cat_10_n02123159_8088.png
subject-04,1,464,1.19043684005737,bird,bicycle,64-10-10,0464_eid_s04_64-10-10_bicycle_10_n03792782_6030.png
subject-04,1,465,1.48426699638367,bird,oven,128-10-10,0465_eid_s04_128-10-10_oven_10_n04111531_924.png
subject-04,1,466,1.00812983512878,bicycle,bicycle,1-10-10,0466_eid_s04_1-10-10_bicycle_10_n03792782_13324.png
subject-04,1,467,1.105712890625,car,car,4-10-10,0467_eid_s04_4-10-10_car_10_n03100240_2235.png
subject-04,1,468,1.18354606628418,bird,oven,128-10-10,0468_eid_s04_128-10-10_oven_10_n04111531_9304.png
subject-04,1,469,1.1594660282135,cat,car,32-10-10,0469_eid_s04_32-10-10_car_10_n02814533_49630.png
subject-04,1,470,0.771260976791382,oven,knife,32-10-10,0470_eid_s04_32-10-10_knife_10_n03041632_43975.png
subject-04,1,471,0.935281038284302,bottle,bottle,4-10-10,0471_eid_s04_4-10-10_bottle_10_n04579145_1856.png
subject-04,1,472,1.07693910598755,keyboard,keyboard,4-10-10,0472_eid_s04_4-10-10_keyboard_10_n04505470_3122.png
subject-04,1,473,1.15903997421265,oven,oven,16-10-10,0473_eid_s04_16-10-10_oven_10_n04111531_8181.png
subject-04,1,474,0.610722064971924,clock,clock,1-10-10,0474_eid_s04_1-10-10_clock_10_n02708093_8002.png
subject-04,1,475,1.05640006065369,dog,dog,4-10-10,0475_eid_s04_4-10-10_dog_10_n02105641_8188.png
subject-04,1,476,1.07823491096497,dog,dog,2-10-10,0476_eid_s04_2-10-10_dog_10_n02102177_7637.png
subject-04,1,477,0.961988925933838,boat,bird,16-10-10,0477_eid_s04_16-10-10_bird_10_n02009229_5090.png
subject-04,1,478,1.20577597618103,oven,airplane,16-10-10,0478_eid_s04_16-10-10_airplane_10_n02690373_9423.png
subject-04,1,479,0.857600927352905,truck,truck,2-10-10,0479_eid_s04_2-10-10_truck_10_n04467665_30756.png
subject-04,1,480,0.763843059539795,keyboard,keyboard,2-10-10,0480_eid_s04_2-10-10_keyboard_10_n03085013_22713.png
subject-04,1,481,1.07960200309753,boat,boat,128-10-10,0481_eid_s04_128-10-10_boat_10_n04273569_1482.png
subject-04,1,482,0.831199169158936,boat,elephant,64-10-10,0482_eid_s04_64-10-10_elephant_10_n02504013_978.png
subject-04,1,483,1.12307906150818,cat,knife,32-10-10,0483_eid_s04_32-10-10_knife_10_n03041632_93026.png
subject-04,1,484,0.70306921005249,keyboard,keyboard,2-10-10,0484_eid_s04_2-10-10_keyboard_10_n03085013_4780.png
subject-04,1,485,0.96255898475647,bird,chair,64-10-10,0485_eid_s04_64-10-10_chair_10_n03376595_6171.png
subject-04,1,486,0.834313154220581,chair,chair,1-10-10,0486_eid_s04_1-10-10_chair_10_n03376595_14729.png
subject-04,1,487,0.750391960144043,car,car,2-10-10,0487_eid_s04_2-10-10_car_10_n03100240_4460.png
subject-04,1,488,1.19211506843567,bear,bear,1-10-10,0488_eid_s04_1-10-10_bear_10_n02133161_2970.png
subject-04,1,489,1.11566686630249,knife,knife,16-10-10,0489_eid_s04_16-10-10_knife_10_n03041632_37513.png
subject-04,1,490,0.81364107131958,bottle,bottle,1-10-10,0490_eid_s04_1-10-10_bottle_10_n03983396_4165.png
subject-04,1,491,0.86541485786438,cat,boat,128-10-10,0491_eid_s04_128-10-10_boat_10_n02951358_3188.png
subject-04,1,492,1.07536697387695,cat,keyboard,64-10-10,0492_eid_s04_64-10-10_keyboard_10_n04505470_1040.png
subject-04,1,493,0.929045915603638,bear,bear,4-10-10,0493_eid_s04_4-10-10_bear_10_n02132136_2771.png
subject-04,1,494,0.823085784912109,keyboard,keyboard,1-10-10,0494_eid_s04_1-10-10_keyboard_10_n03085013_7573.png
subject-04,1,495,1.07659602165222,bird,dog,1-10-10,0495_eid_s04_1-10-10_dog_10_n02088466_1769.png
subject-04,1,496,0.984382152557373,oven,oven,4-10-10,0496_eid_s04_4-10-10_oven_10_n04111531_523.png
subject-04,1,497,1.49999594688416,dog,bear,16-10-10,0497_eid_s04_16-10-10_bear_10_n02134084_712.png
subject-04,1,498,1.09643197059631,cat,cat,4-10-10,0498_eid_s04_4-10-10_cat_10_n02125311_27989.png
subject-04,1,499,0.833865165710449,bottle,bottle,4-10-10,0499_eid_s04_4-10-10_bottle_10_n04579145_5370.png
subject-04,1,500,1.18179082870483,oven,bear,2-10-10,0500_eid_s04_2-10-10_bear_10_n02134418_3213.png
subject-04,1,501,0.661520004272461,clock,clock,4-10-10,0501_eid_s04_4-10-10_clock_10_n04548280_2778.png
subject-04,1,502,1.15541505813599,boat,boat,1-10-10,0502_eid_s04_1-10-10_boat_10_n02951358_3452.png
subject-04,1,503,NaN,na,airplane,4-10-10,0503_eid_s04_4-10-10_airplane_10_n02690373_3859.png
subject-04,1,504,1.50001788139343,dog,dog,4-10-10,0504_eid_s04_4-10-10_dog_10_n02086079_4143.png
subject-04,1,505,NaN,na,clock,32-10-10,0505_eid_s04_32-10-10_clock_10_n02708093_3544.png
subject-04,1,506,0.858664989471436,dog,dog,1-10-10,0506_eid_s04_1-10-10_dog_10_n02095570_11450.png
subject-04,1,507,0.830482959747314,dog,bicycle,32-10-10,0507_eid_s04_32-10-10_bicycle_10_n03792782_15016.png
subject-04,1,508,1.13214206695557,cat,bottle,32-10-10,0508_eid_s04_32-10-10_bottle_10_n03983396_4321.png
subject-04,1,509,0.934018135070801,airplane,airplane,2-10-10,0509_eid_s04_2-10-10_airplane_10_n02690373_19074.png
subject-04,1,510,0.90394115447998,cat,bottle,64-10-10,0510_eid_s04_64-10-10_bottle_10_n03983396_16257.png
subject-04,1,511,0.84765100479126,cat,knife,64-10-10,0511_eid_s04_64-10-10_knife_10_n03041632_25603.png
subject-04,1,512,1.28955411911011,truck,car,2-10-10,0512_eid_s04_2-10-10_car_10_n04285008_4640.png
subject-04,1,513,0.931378841400146,cat,bicycle,16-10-10,0513_eid_s04_16-10-10_bicycle_10_n02835271_14914.png
subject-04,1,514,0.667125940322876,keyboard,keyboard,2-10-10,0514_eid_s04_2-10-10_keyboard_10_n03085013_8932.png
subject-04,1,515,0.902837038040161,elephant,dog,64-10-10,0515_eid_s04_64-10-10_dog_10_n02096294_2233.png
subject-04,1,516,1.25871300697327,bird,dog,128-10-10,0516_eid_s04_128-10-10_dog_10_n02099601_7103.png
subject-04,1,517,1.18855595588684,airplane,airplane,1-10-10,0517_eid_s04_1-10-10_airplane_10_n02690373_13324.png
subject-04,1,518,1.50010704994202,bear,dog,1-10-10,0518_eid_s04_1-10-10_dog_10_n02107142_61109.png
subject-04,1,519,1.04848289489746,boat,car,1-10-10,0519_eid_s04_1-10-10_car_10_n03100240_16766.png
subject-04,1,520,0.638005971908569,keyboard,keyboard,8-10-10,0520_eid_s04_8-10-10_keyboard_10_n03085013_17884.png
subject-04,1,521,1.3180730342865,clock,cat,64-10-10,0521_eid_s04_64-10-10_cat_10_n02125311_30452.png
subject-04,1,522,1.16748690605164,bird,bird,32-10-10,0522_eid_s04_32-10-10_bird_10_n01824575_12101.png
subject-04,1,523,0.805840015411377,airplane,airplane,4-10-10,0523_eid_s04_4-10-10_airplane_10_n02690373_1023.png
subject-04,1,524,1.10113191604614,oven,truck,16-10-10,0524_eid_s04_16-10-10_truck_10_n03417042_5381.png
subject-04,1,525,1.01538515090942,keyboard,keyboard,4-10-10,0525_eid_s04_4-10-10_keyboard_10_n04505470_4447.png
subject-04,1,526,0.892783880233765,airplane,airplane,1-10-10,0526_eid_s04_1-10-10_airplane_10_n02690373_17764.png
subject-04,1,527,1.50008201599121,clock,keyboard,1-10-10,0527_eid_s04_1-10-10_keyboard_10_n03085013_22942.png
subject-04,1,528,1.39843988418579,boat,airplane,128-10-10,0528_eid_s04_128-10-10_airplane_10_n02690373_7651.png
subject-04,1,529,1.25029993057251,keyboard,keyboard,4-10-10,0529_eid_s04_4-10-10_keyboard_10_n03085013_6095.png
subject-04,1,530,1.10231804847717,bicycle,knife,32-10-10,0530_eid_s04_32-10-10_knife_10_n03041632_95293.png
subject-04,1,531,1.23821902275085,truck,truck,4-10-10,0531_eid_s04_4-10-10_truck_10_n04467665_1719.png
subject-04,1,532,1.2976701259613,car,bicycle,128-10-10,0532_eid_s04_128-10-10_bicycle_10_n02835271_26639.png
subject-04,1,533,1.21145796775818,keyboard,chair,16-10-10,0533_eid_s04_16-10-10_chair_10_n02791124_15383.png
subject-04,1,534,1.3376739025116,cat,oven,16-10-10,0534_eid_s04_16-10-10_oven_10_n04111531_8852.png
subject-04,1,535,1.50010991096497,dog,bear,128-10-10,0535_eid_s04_128-10-10_bear_10_n02134418_12733.png
subject-04,1,536,1.50010991096497,bear,bottle,64-10-10,0536_eid_s04_64-10-10_bottle_10_n04557648_11440.png
subject-04,1,537,1.37267589569092,cat,bicycle,16-10-10,0537_eid_s04_16-10-10_bicycle_10_n03792782_7688.png
subject-04,1,538,1.09645700454712,car,car,16-10-10,0538_eid_s04_16-10-10_car_10_n02814533_7247.png
subject-04,1,539,1.44643378257751,oven,cat,32-10-10,0539_eid_s04_32-10-10_cat_10_n02125311_13152.png
subject-04,1,540,1.06028890609741,bottle,bicycle,128-10-10,0540_eid_s04_128-10-10_bicycle_10_n03792782_7713.png
subject-04,1,541,NaN,na,bird,2-10-10,0541_eid_s04_2-10-10_bird_10_n02006656_611.png
subject-04,1,542,NaN,na,truck,8-10-10,0542_eid_s04_8-10-10_truck_10_n03796401_17201.png
subject-04,1,543,1.36376690864563,chair,bear,32-10-10,0543_eid_s04_32-10-10_bear_10_n02132136_9557.png
subject-04,1,544,1.27144503593445,airplane,bottle,8-10-10,0544_eid_s04_8-10-10_bottle_10_n04560804_4909.png
subject-04,1,545,0.949155807495117,bird,knife,64-10-10,0545_eid_s04_64-10-10_knife_10_n03041632_25257.png
subject-04,1,546,1.12300086021423,cat,dog,16-10-10,0546_eid_s04_16-10-10_dog_10_n02093991_4515.png
subject-04,1,547,0.946859121322632,clock,clock,4-10-10,0547_eid_s04_4-10-10_clock_10_n02708093_31.png
subject-04,1,548,1.26665592193604,boat,airplane,128-10-10,0548_eid_s04_128-10-10_airplane_10_n02690373_693.png
subject-04,1,549,1.05059599876404,bird,keyboard,64-10-10,0549_eid_s04_64-10-10_keyboard_10_n03085013_19317.png
subject-04,1,550,0.882740020751953,bottle,airplane,64-10-10,0550_eid_s04_64-10-10_airplane_10_n02690373_5100.png
subject-04,1,551,0.842250823974609,bear,bear,4-10-10,0551_eid_s04_4-10-10_bear_10_n02132136_20162.png
subject-04,1,552,1.38374090194702,car,car,1-10-10,0552_eid_s04_1-10-10_car_10_n03100240_9019.png
subject-04,1,553,1.17390394210815,dog,bottle,64-10-10,0553_eid_s04_64-10-10_bottle_10_n02823428_7316.png
subject-04,1,554,0.861927032470703,keyboard,keyboard,32-10-10,0554_eid_s04_32-10-10_keyboard_10_n03085013_20601.png
subject-04,1,555,NaN,na,bear,4-10-10,0555_eid_s04_4-10-10_bear_10_n02132136_6434.png
subject-04,1,556,1.11348009109497,cat,chair,32-10-10,0556_eid_s04_32-10-10_chair_10_n04429376_7123.png
subject-04,1,557,1.34489703178406,chair,chair,16-10-10,0557_eid_s04_16-10-10_chair_10_n02791124_9736.png
subject-04,1,558,0.91663384437561,oven,chair,64-10-10,0558_eid_s04_64-10-10_chair_10_n04429376_11956.png
subject-04,1,559,1.11666488647461,oven,knife,64-10-10,0559_eid_s04_64-10-10_knife_10_n03041632_33326.png
subject-04,1,560,1.30070996284485,oven,bottle,32-10-10,0560_eid_s04_32-10-10_bottle_10_n04560804_2181.png
subject-04,1,561,1.03475403785706,cat,bottle,32-10-10,0561_eid_s04_32-10-10_bottle_10_n04591713_7561.png
subject-04,1,562,1.15476894378662,bear,bear,1-10-10,0562_eid_s04_1-10-10_bear_10_n02133161_5653.png
subject-04,1,563,0.884657859802246,bear,cat,16-10-10,0563_eid_s04_16-10-10_cat_10_n02123159_6954.png
subject-04,1,564,1.13011503219604,oven,clock,16-10-10,0564_eid_s04_16-10-10_clock_10_n04548280_3541.png
subject-04,1,565,0.965991973876953,keyboard,keyboard,2-10-10,0565_eid_s04_2-10-10_keyboard_10_n03085013_23552.png
subject-04,1,566,1.126051902771,bear,clock,32-10-10,0566_eid_s04_32-10-10_clock_10_n03196217_3167.png
subject-04,1,567,0.795451879501343,airplane,airplane,1-10-10,0567_eid_s04_1-10-10_airplane_10_n02690373_6144.png
subject-04,1,568,0.799391984939575,bottle,bottle,4-10-10,0568_eid_s04_4-10-10_bottle_10_n04560804_31443.png
subject-04,1,569,1.03715085983276,bird,bird,16-10-10,0569_eid_s04_16-10-10_bird_10_n02033041_7229.png
subject-04,1,570,0.788934946060181,elephant,elephant,4-10-10,0570_eid_s04_4-10-10_elephant_10_n02504458_5539.png
subject-04,1,571,1.25284314155579,bottle,knife,1-10-10,0571_eid_s04_1-10-10_knife_10_n03041632_98864.png
subject-04,1,572,1.02441382408142,oven,oven,1-10-10,0572_eid_s04_1-10-10_oven_10_n04111531_3126.png
subject-04,1,573,1.37032985687256,elephant,truck,8-10-10,0573_eid_s04_8-10-10_truck_10_n04467665_24190.png
subject-04,1,574,0.816540956497192,airplane,airplane,4-10-10,0574_eid_s04_4-10-10_airplane_10_n02690373_10044.png
subject-04,1,575,1.45641422271729,truck,truck,8-10-10,0575_eid_s04_8-10-10_truck_10_n03796401_24341.png
subject-04,1,576,1.02992296218872,airplane,airplane,2-10-10,0576_eid_s04_2-10-10_airplane_10_n02690373_9247.png
subject-04,1,577,1.25765800476074,bear,keyboard,16-10-10,0577_eid_s04_16-10-10_keyboard_10_n03085013_1812.png
subject-04,1,578,1.11740016937256,airplane,knife,1-10-10,0578_eid_s04_1-10-10_knife_10_n03041632_32350.png
subject-04,1,579,1.13553214073181,elephant,knife,64-10-10,0579_eid_s04_64-10-10_knife_10_n03041632_6708.png
subject-04,1,580,0.861117124557495,bear,dog,4-10-10,0580_eid_s04_4-10-10_dog_10_n02111500_4875.png
subject-04,1,581,1.21093702316284,airplane,car,64-10-10,0581_eid_s04_64-10-10_car_10_n02814533_19373.png
subject-04,1,582,1.26088309288025,bear,bird,8-10-10,0582_eid_s04_8-10-10_bird_10_n02002724_1484.png
subject-04,1,583,1.50004386901855,cat,bottle,32-10-10,0583_eid_s04_32-10-10_bottle_10_n04591713_6024.png
subject-04,1,584,1.27031302452087,bear,bear,4-10-10,0584_eid_s04_4-10-10_bear_10_n02132136_1646.png
subject-04,1,585,1.1042468547821,dog,dog,16-10-10,0585_eid_s04_16-10-10_dog_10_n02094433_1863.png
subject-04,1,586,1.03200793266296,car,car,4-10-10,0586_eid_s04_4-10-10_car_10_n03100240_8702.png
subject-04,1,587,1.17971897125244,cat,chair,32-10-10,0587_eid_s04_32-10-10_chair_10_n04099969_18744.png
subject-04,1,588,1.28567004203796,truck,truck,4-10-10,0588_eid_s04_4-10-10_truck_10_n04467665_10025.png
subject-04,1,589,1.07940816879272,oven,boat,2-10-10,0589_eid_s04_2-10-10_boat_10_n02951358_1910.png
subject-04,1,590,1.17905402183533,bird,bird,16-10-10,0590_eid_s04_16-10-10_bird_10_n01616318_8488.png
subject-04,1,591,1.26104307174683,dog,oven,8-10-10,0591_eid_s04_8-10-10_oven_10_n04111531_22041.png
subject-04,1,592,1.40074610710144,elephant,cat,4-10-10,0592_eid_s04_4-10-10_cat_10_n02123597_2030.png
subject-04,1,593,0.87070894241333,bear,knife,32-10-10,0593_eid_s04_32-10-10_knife_10_n03041632_26340.png
subject-04,1,594,0.808665990829468,bear,knife,64-10-10,0594_eid_s04_64-10-10_knife_10_n03041632_12537.png
subject-04,1,595,0.92850399017334,dog,cat,64-10-10,0595_eid_s04_64-10-10_cat_10_n02124075_9225.png
subject-04,1,596,1.19431209564209,car,car,2-10-10,0596_eid_s04_2-10-10_car_10_n03100240_17588.png
subject-04,1,597,1.29603695869446,boat,oven,64-10-10,0597_eid_s04_64-10-10_oven_10_n04111531_5038.png
subject-04,1,598,0.757634162902832,keyboard,oven,1-10-10,0598_eid_s04_1-10-10_oven_10_n04111531_8398.png
subject-04,1,599,1.1794650554657,cat,cat,4-10-10,0599_eid_s04_4-10-10_cat_10_n02123394_768.png
subject-04,1,600,1.01744198799133,bear,bear,4-10-10,0600_eid_s04_4-10-10_bear_10_n02134084_5274.png
subject-04,1,601,1.03759503364563,oven,bottle,4-10-10,0601_eid_s04_4-10-10_bottle_10_n03983396_3028.png
subject-04,1,602,1.12086296081543,chair,bicycle,16-10-10,0602_eid_s04_16-10-10_bicycle_10_n03792782_14216.png
subject-04,1,603,0.772931098937988,boat,bear,16-10-10,0603_eid_s04_16-10-10_bear_10_n02134084_2844.png
subject-04,1,604,0.908556938171387,dog,dog,2-10-10,0604_eid_s04_2-10-10_dog_10_n02108915_6092.png
subject-04,1,605,0.896512985229492,cat,cat,2-10-10,0605_eid_s04_2-10-10_cat_10_n02124075_5953.png
subject-04,1,606,1.28626704216003,airplane,truck,16-10-10,0606_eid_s04_16-10-10_truck_10_n04467665_2144.png
subject-04,1,607,1.06605911254883,airplane,truck,8-10-10,0607_eid_s04_8-10-10_truck_10_n04467665_69882.png
subject-04,1,608,1.15992093086243,airplane,airplane,8-10-10,0608_eid_s04_8-10-10_airplane_10_n02690373_8461.png
subject-04,1,609,1.12161803245544,bird,elephant,128-10-10,0609_eid_s04_128-10-10_elephant_10_n02504458_3091.png
subject-04,1,610,0.559493064880371,keyboard,keyboard,2-10-10,0610_eid_s04_2-10-10_keyboard_10_n03085013_24648.png
subject-04,1,611,0.797670125961304,bird,bicycle,128-10-10,0611_eid_s04_128-10-10_bicycle_10_n02835271_2651.png
subject-04,1,612,0.769225120544434,clock,clock,8-10-10,0612_eid_s04_8-10-10_clock_10_n02708093_4692.png
subject-04,1,613,0.886842012405396,knife,knife,2-10-10,0613_eid_s04_2-10-10_knife_10_n03041632_42472.png
subject-04,1,614,1.13064002990723,cat,boat,64-10-10,0614_eid_s04_64-10-10_boat_10_n04612504_20929.png
subject-04,1,615,1.0725269317627,cat,cat,64-10-10,0615_eid_s04_64-10-10_cat_10_n02123394_2635.png
subject-04,1,616,0.808681011199951,clock,clock,2-10-10,0616_eid_s04_2-10-10_clock_10_n03196217_1499.png
subject-04,1,617,1.13620114326477,dog,truck,128-10-10,0617_eid_s04_128-10-10_truck_10_n04467665_67909.png
subject-04,1,618,1.28623294830322,truck,car,16-10-10,0618_eid_s04_16-10-10_car_10_n04285008_10802.png
subject-04,1,619,1.50003385543823,boat,airplane,2-10-10,0619_eid_s04_2-10-10_airplane_10_n02690373_111.png
subject-04,1,620,1.30355596542358,clock,truck,128-10-10,0620_eid_s04_128-10-10_truck_10_n03417042_2478.png
subject-04,1,621,1.3433940410614,bear,clock,128-10-10,0621_eid_s04_128-10-10_clock_10_n02708093_7883.png
subject-04,1,622,1.47976398468018,bear,oven,128-10-10,0622_eid_s04_128-10-10_oven_10_n04111531_3191.png
subject-04,1,623,0.905369997024536,elephant,boat,64-10-10,0623_eid_s04_64-10-10_boat_10_n04273569_30203.png
subject-04,1,624,0.734803199768066,bear,car,16-10-10,0624_eid_s04_16-10-10_car_10_n02814533_31083.png
subject-04,1,625,1.09270596504211,bird,truck,64-10-10,0625_eid_s04_64-10-10_truck_10_n04467665_66624.png
subject-04,1,626,0.860669136047363,chair,chair,8-10-10,0626_eid_s04_8-10-10_chair_10_n02791124_634.png
subject-04,1,627,1.41412806510925,boat,truck,32-10-10,0627_eid_s04_32-10-10_truck_10_n04467665_50806.png
subject-04,1,628,0.917999029159546,bear,bear,32-10-10,0628_eid_s04_32-10-10_bear_10_n02132136_8754.png
subject-04,1,629,0.939826011657715,bird,cat,64-10-10,0629_eid_s04_64-10-10_cat_10_n02123159_15664.png
subject-04,1,630,0.957802057266235,bird,dog,64-10-10,0630_eid_s04_64-10-10_dog_10_n02113712_8182.png
subject-04,1,631,0.82558798789978,cat,cat,2-10-10,0631_eid_s04_2-10-10_cat_10_n02125311_9364.png
subject-04,1,632,1.13166880607605,bird,clock,64-10-10,0632_eid_s04_64-10-10_clock_10_n02708093_6560.png
subject-04,1,633,1.40529108047485,bottle,dog,4-10-10,0633_eid_s04_4-10-10_dog_10_n02091032_8315.png
subject-04,1,634,1.05932188034058,cat,oven,64-10-10,0634_eid_s04_64-10-10_oven_10_n04111531_9695.png
subject-04,1,635,1.50004315376282,elephant,bird,64-10-10,0635_eid_s04_64-10-10_bird_10_n02002556_8585.png
subject-04,1,636,0.888935804367065,elephant,boat,128-10-10,0636_eid_s04_128-10-10_boat_10_n02951358_30474.png
subject-04,1,637,1.49999690055847,dog,boat,32-10-10,0637_eid_s04_32-10-10_boat_10_n02951358_8346.png
subject-04,1,638,0.958341121673584,car,car,8-10-10,0638_eid_s04_8-10-10_car_10_n03100240_1137.png
subject-04,1,639,1.1321120262146,chair,boat,8-10-10,0639_eid_s04_8-10-10_boat_10_n03662601_12670.png
subject-04,1,640,1.17183303833008,dog,dog,2-10-10,0640_eid_s04_2-10-10_dog_10_n02110806_5427.png
subject-04,1,641,0.842730045318604,bird,bird,8-10-10,0641_eid_s04_8-10-10_bird_10_n01532829_1278.png
subject-04,1,642,0.602663993835449,keyboard,keyboard,1-10-10,0642_eid_s04_1-10-10_keyboard_10_n03085013_20357.png
subject-04,1,643,1.34038901329041,bird,oven,16-10-10,0643_eid_s04_16-10-10_oven_10_n04111531_13831.png
subject-04,1,644,0.92615008354187,bird,car,32-10-10,0644_eid_s04_32-10-10_car_10_n04285008_8838.png
subject-04,1,645,0.969913005828857,bird,bird,8-10-10,0645_eid_s04_8-10-10_bird_10_n02013706_637.png
subject-04,1,646,1.2398509979248,bird,boat,8-10-10,0646_eid_s04_8-10-10_boat_10_n02951358_34653.png
subject-04,1,647,1.43361806869507,bear,airplane,64-10-10,0647_eid_s04_64-10-10_airplane_10_n02690373_1862.png
subject-04,1,648,0.957741022109985,bird,bird,4-10-10,0648_eid_s04_4-10-10_bird_10_n01833805_202.png
subject-04,1,649,0.989303827285767,bicycle,bicycle,2-10-10,0649_eid_s04_2-10-10_bicycle_10_n02835271_2625.png
subject-04,1,650,1.25318884849548,knife,bottle,128-10-10,0650_eid_s04_128-10-10_bottle_10_n02823428_5961.png
subject-04,1,651,0.740762948989868,bird,bird,2-10-10,0651_eid_s04_2-10-10_bird_10_n01828970_997.png
subject-04,1,652,1.26464605331421,car,boat,16-10-10,0652_eid_s04_16-10-10_boat_10_n04273569_17671.png
subject-04,1,653,0.656551837921143,airplane,airplane,4-10-10,0653_eid_s04_4-10-10_airplane_10_n02690373_5797.png
subject-04,1,654,1.2202250957489,boat,boat,64-10-10,0654_eid_s04_64-10-10_boat_10_n04612504_4719.png
subject-04,1,655,0.844132900238037,bottle,bottle,2-10-10,0655_eid_s04_2-10-10_bottle_10_n03937543_4450.png
subject-04,1,656,1.46192693710327,truck,truck,4-10-10,0656_eid_s04_4-10-10_truck_10_n04467665_68331.png
subject-04,1,657,1.26161599159241,airplane,airplane,16-10-10,0657_eid_s04_16-10-10_airplane_10_n02690373_3100.png
subject-04,1,658,1.09167313575745,car,car,4-10-10,0658_eid_s04_4-10-10_car_10_n02814533_2654.png
subject-04,1,659,1.345458984375,bottle,bird,16-10-10,0659_eid_s04_16-10-10_bird_10_n02017213_1619.png
subject-04,1,660,0.997195959091187,bird,elephant,16-10-10,0660_eid_s04_16-10-10_elephant_10_n02504458_361.png
subject-04,1,661,1.34901905059814,oven,boat,1-10-10,0661_eid_s04_1-10-10_boat_10_n03344393_7942.png
subject-04,1,662,0.76872181892395,boat,knife,1-10-10,0662_eid_s04_1-10-10_knife_10_n03041632_10136.png
subject-04,1,663,1.40263485908508,knife,knife,1-10-10,0663_eid_s04_1-10-10_knife_10_n03041632_8468.png
subject-04,1,664,1.15474486351013,bird,bicycle,64-10-10,0664_eid_s04_64-10-10_bicycle_10_n02835271_9097.png
subject-04,1,665,0.942682981491089,cat,car,128-10-10,0665_eid_s04_128-10-10_car_10_n03100240_6259.png
subject-04,1,666,0.846084117889404,bird,cat,32-10-10,0666_eid_s04_32-10-10_cat_10_n02125311_14156.png
subject-04,1,667,NaN,na,truck,32-10-10,0667_eid_s04_32-10-10_truck_10_n03796401_1213.png
subject-04,1,668,0.753875017166138,knife,knife,2-10-10,0668_eid_s04_2-10-10_knife_10_n03041632_4806.png
subject-04,1,669,1.50004196166992,bottle,bottle,4-10-10,0669_eid_s04_4-10-10_bottle_10_n03983396_4503.png
subject-04,1,670,1.21341800689697,cat,oven,64-10-10,0670_eid_s04_64-10-10_oven_10_n04111531_7356.png
subject-04,1,671,0.915206909179688,bird,cat,16-10-10,0671_eid_s04_16-10-10_cat_10_n02123597_624.png
subject-04,1,672,1.06293487548828,dog,dog,8-10-10,0672_eid_s04_8-10-10_dog_10_n02093256_5647.png
subject-04,1,673,1.50013613700867,bird,bottle,32-10-10,0673_eid_s04_32-10-10_bottle_10_n04591713_6804.png
subject-04,1,674,1.3349871635437,elephant,elephant,8-10-10,0674_eid_s04_8-10-10_elephant_10_n02504458_4593.png
subject-04,1,675,1.50009703636169,truck,oven,8-10-10,0675_eid_s04_8-10-10_oven_10_n04111531_15710.png
subject-04,1,676,0.938170194625854,keyboard,keyboard,2-10-10,0676_eid_s04_2-10-10_keyboard_10_n03085013_24087.png
subject-04,1,677,1.35199689865112,bear,dog,32-10-10,0677_eid_s04_32-10-10_dog_10_n02107908_2313.png
subject-04,1,678,1.14393615722656,truck,truck,4-10-10,0678_eid_s04_4-10-10_truck_10_n04467665_31539.png
subject-04,1,679,0.997689962387085,boat,boat,4-10-10,0679_eid_s04_4-10-10_boat_10_n03662601_10589.png
subject-04,1,680,1.10144400596619,chair,bottle,1-10-10,0680_eid_s04_1-10-10_bottle_10_n04560804_17045.png
subject-04,1,681,0.861164093017578,bird,bird,8-10-10,0681_eid_s04_8-10-10_bird_10_n01843065_148.png
subject-04,1,682,0.841372013092041,oven,airplane,128-10-10,0682_eid_s04_128-10-10_airplane_10_n02690373_10462.png
subject-04,1,683,0.941199064254761,bear,bear,2-10-10,0683_eid_s04_2-10-10_bear_10_n02134084_7331.png
subject-04,1,684,1.39284706115723,bird,keyboard,128-10-10,0684_eid_s04_128-10-10_keyboard_10_n03085013_23030.png
subject-04,1,685,1.20854616165161,bird,bird,1-10-10,0685_eid_s04_1-10-10_bird_10_n02025239_5287.png
subject-04,1,686,NaN,na,clock,64-10-10,0686_eid_s04_64-10-10_clock_10_n03196217_9065.png
subject-04,1,687,0.800182104110718,clock,clock,4-10-10,0687_eid_s04_4-10-10_clock_10_n03196217_8254.png
subject-04,1,688,0.914271116256714,bird,dog,32-10-10,0688_eid_s04_32-10-10_dog_10_n02102040_7188.png
subject-04,1,689,1.10971808433533,cat,keyboard,16-10-10,0689_eid_s04_16-10-10_keyboard_10_n04505470_4854.png
subject-04,1,690,1.15154194831848,bird,clock,64-10-10,0690_eid_s04_64-10-10_clock_10_n02708093_2676.png
subject-04,1,691,1.09938097000122,boat,bicycle,32-10-10,0691_eid_s04_32-10-10_bicycle_10_n03792782_3774.png
subject-04,1,692,1.28144717216492,bird,airplane,32-10-10,0692_eid_s04_32-10-10_airplane_10_n02690373_10926.png
subject-04,1,693,1.42756390571594,dog,dog,4-10-10,0693_eid_s04_4-10-10_dog_10_n02113712_5816.png
subject-04,1,694,0.739151000976562,car,car,16-10-10,0694_eid_s04_16-10-10_car_10_n02814533_69750.png
subject-04,1,695,0.616514205932617,keyboard,oven,4-10-10,0695_eid_s04_4-10-10_oven_10_n04111531_15052.png
subject-04,1,696,1.07038903236389,truck,truck,1-10-10,0696_eid_s04_1-10-10_truck_10_n04467665_4825.png
subject-04,1,697,1.03237891197205,bird,truck,64-10-10,0697_eid_s04_64-10-10_truck_10_n04467665_70694.png
subject-04,1,698,1.08411908149719,dog,dog,1-10-10,0698_eid_s04_1-10-10_dog_10_n02098105_4676.png
subject-04,1,699,0.99581503868103,car,car,4-10-10,0699_eid_s04_4-10-10_car_10_n04285008_10442.png
subject-04,1,700,0.679720163345337,clock,clock,8-10-10,0700_eid_s04_8-10-10_clock_10_n02708093_2555.png
subject-04,1,701,1.04784107208252,bird,car,32-10-10,0701_eid_s04_32-10-10_car_10_n02814533_22824.png
subject-04,1,702,1.44138717651367,bicycle,bicycle,1-10-10,0702_eid_s04_1-10-10_bicycle_10_n03792782_11115.png
subject-04,1,703,0.663419008255005,bird,bird,8-10-10,0703_eid_s04_8-10-10_bird_10_n01532829_13864.png
subject-04,1,704,0.959102869033813,bear,bear,1-10-10,0704_eid_s04_1-10-10_bear_10_n02132136_7796.png
subject-04,1,705,1.09676003456116,bicycle,bicycle,8-10-10,0705_eid_s04_8-10-10_bicycle_10_n02835271_12477.png
subject-04,1,706,1.19471001625061,bear,elephant,128-10-10,0706_eid_s04_128-10-10_elephant_10_n02504458_2026.png
subject-04,1,707,1.2624819278717,truck,truck,2-10-10,0707_eid_s04_2-10-10_truck_10_n03417042_17616.png
subject-04,1,708,1.03008913993835,elephant,car,128-10-10,0708_eid_s04_128-10-10_car_10_n02814533_40350.png
subject-04,1,709,1.50011610984802,bear,airplane,8-10-10,0709_eid_s04_8-10-10_airplane_10_n02690373_8846.png
subject-04,1,710,1.07575416564941,truck,truck,8-10-10,0710_eid_s04_8-10-10_truck_10_n03796401_5227.png
subject-04,1,711,1.38780188560486,knife,bird,128-10-10,0711_eid_s04_128-10-10_bird_10_n02018207_29704.png
subject-04,1,712,NaN,na,chair,16-10-10,0712_eid_s04_16-10-10_chair_10_n04099969_1704.png
subject-04,1,713,1.12716102600098,oven,cat,16-10-10,0713_eid_s04_16-10-10_cat_10_n02123394_270.png
subject-04,1,714,0.792970180511475,chair,chair,1-10-10,0714_eid_s04_1-10-10_chair_10_n03376595_6865.png
subject-04,1,715,1.01533102989197,bear,bear,2-10-10,0715_eid_s04_2-10-10_bear_10_n02132136_9433.png
subject-04,1,716,1.17700004577637,bear,bear,8-10-10,0716_eid_s04_8-10-10_bear_10_n02134418_1712.png
subject-04,1,717,1.03639483451843,elephant,elephant,2-10-10,0717_eid_s04_2-10-10_elephant_10_n02504458_14308.png
subject-04,1,718,1.20066380500793,clock,clock,32-10-10,0718_eid_s04_32-10-10_clock_10_n04548280_7354.png
subject-04,1,719,0.932294130325317,elephant,elephant,1-10-10,0719_eid_s04_1-10-10_elephant_10_n02504458_6611.png
subject-04,1,720,1.16583395004272,keyboard,keyboard,4-10-10,0720_eid_s04_4-10-10_keyboard_10_n03085013_3812.png
subject-04,1,721,1.33808398246765,bird,chair,32-10-10,0721_eid_s04_32-10-10_chair_10_n04099969_1998.png
subject-04,1,722,1.33591890335083,dog,bird,8-10-10,0722_eid_s04_8-10-10_bird_10_n01514859_1421.png
subject-04,1,723,0.827656984329224,elephant,elephant,8-10-10,0723_eid_s04_8-10-10_elephant_10_n02504013_10351.png
subject-04,1,724,0.693522930145264,cat,knife,128-10-10,0724_eid_s04_128-10-10_knife_10_n03041632_22734.png
subject-04,1,725,0.741358041763306,bird,knife,32-10-10,0725_eid_s04_32-10-10_knife_10_n03041632_3717.png
subject-04,1,726,0.921057939529419,elephant,elephant,32-10-10,0726_eid_s04_32-10-10_elephant_10_n02504013_2020.png
subject-04,1,727,0.812928915023804,boat,boat,4-10-10,0727_eid_s04_4-10-10_boat_10_n04273569_1023.png
subject-04,1,728,0.968725919723511,elephant,knife,32-10-10,0728_eid_s04_32-10-10_knife_10_n03041632_20697.png
subject-04,1,729,1.01859593391418,knife,knife,4-10-10,0729_eid_s04_4-10-10_knife_10_n03041632_35365.png
subject-04,1,730,0.726424217224121,clock,clock,8-10-10,0730_eid_s04_8-10-10_clock_10_n03196217_6831.png
subject-04,1,731,1.14207887649536,cat,dog,128-10-10,0731_eid_s04_128-10-10_dog_10_n02094114_3395.png
subject-04,1,732,1.09586596488953,keyboard,clock,8-10-10,0732_eid_s04_8-10-10_clock_10_n04548280_4599.png
subject-04,1,733,0.699734926223755,clock,clock,8-10-10,0733_eid_s04_8-10-10_clock_10_n04548280_1413.png
subject-04,1,734,1.06553506851196,elephant,dog,128-10-10,0734_eid_s04_128-10-10_dog_10_n02110958_15217.png
subject-04,1,735,0.965508222579956,clock,clock,2-10-10,0735_eid_s04_2-10-10_clock_10_n04548280_3295.png
subject-04,1,736,0.965472936630249,cat,bear,128-10-10,0736_eid_s04_128-10-10_bear_10_n02133161_3550.png
subject-04,1,737,1.04124307632446,bear,oven,8-10-10,0737_eid_s04_8-10-10_oven_10_n04111531_24096.png
subject-04,1,738,1.05676579475403,bird,bottle,64-10-10,0738_eid_s04_64-10-10_bottle_10_n02823428_6418.png
subject-04,1,739,1.39247512817383,chair,bottle,8-10-10,0739_eid_s04_8-10-10_bottle_10_n03983396_4879.png
subject-04,1,740,0.894420862197876,bird,oven,128-10-10,0740_eid_s04_128-10-10_oven_10_n04111531_520.png
subject-04,1,741,1.21822595596313,bear,clock,128-10-10,0741_eid_s04_128-10-10_clock_10_n02708093_725.png
subject-04,1,742,0.961859941482544,car,truck,1-10-10,0742_eid_s04_1-10-10_truck_10_n03796401_2552.png
subject-04,1,743,0.905877113342285,elephant,elephant,2-10-10,0743_eid_s04_2-10-10_elephant_10_n02504013_2832.png
subject-04,1,744,1.20568895339966,bottle,chair,16-10-10,0744_eid_s04_16-10-10_chair_10_n04099969_101.png
subject-04,1,745,0.643510818481445,car,car,1-10-10,0745_eid_s04_1-10-10_car_10_n02814533_73067.png
subject-04,1,746,1.50015497207642,car,oven,64-10-10,0746_eid_s04_64-10-10_oven_10_n04111531_14126.png
subject-04,1,747,0.983196020126343,knife,knife,4-10-10,0747_eid_s04_4-10-10_knife_10_n03041632_29920.png
subject-04,1,748,0.896981000900269,bird,cat,16-10-10,0748_eid_s04_16-10-10_cat_10_n02123045_11955.png
subject-04,1,749,1.50013208389282,bottle,bird,2-10-10,0749_eid_s04_2-10-10_bird_10_n01622779_6563.png
subject-04,1,750,1.13641715049744,bird,truck,64-10-10,0750_eid_s04_64-10-10_truck_10_n04467665_19131.png
subject-04,1,751,1.2624351978302,dog,dog,8-10-10,0751_eid_s04_8-10-10_dog_10_n02102040_994.png
subject-04,1,752,0.998098134994507,bear,bear,16-10-10,0752_eid_s04_16-10-10_bear_10_n02132136_32838.png
subject-04,1,753,0.778027057647705,cat,bicycle,32-10-10,0753_eid_s04_32-10-10_bicycle_10_n02835271_12926.png
subject-04,1,754,1.29787802696228,bear,keyboard,128-10-10,0754_eid_s04_128-10-10_keyboard_10_n03085013_19882.png
subject-04,1,755,0.865940093994141,cat,dog,64-10-10,0755_eid_s04_64-10-10_dog_10_n02106662_24847.png
subject-04,1,756,1.11962509155273,boat,boat,4-10-10,0756_eid_s04_4-10-10_boat_10_n02951358_30184.png
subject-04,1,757,1.27122902870178,cat,bird,32-10-10,0757_eid_s04_32-10-10_bird_10_n01622779_66.png
subject-04,1,758,1.17523121833801,boat,bird,1-10-10,0758_eid_s04_1-10-10_bird_10_n01843065_1179.png
subject-04,1,759,1.01089596748352,bird,bird,4-10-10,0759_eid_s04_4-10-10_bird_10_n01530575_35977.png
subject-04,1,760,1.35052394866943,airplane,chair,64-10-10,0760_eid_s04_64-10-10_chair_10_n04099969_4541.png
subject-04,1,761,1.20842003822327,boat,airplane,8-10-10,0761_eid_s04_8-10-10_airplane_10_n02690373_2856.png
subject-04,1,762,0.788191080093384,clock,clock,1-10-10,0762_eid_s04_1-10-10_clock_10_n02708093_8257.png
subject-04,1,763,1.08036494255066,bottle,knife,2-10-10,0763_eid_s04_2-10-10_knife_10_n03041632_51339.png
subject-04,1,764,1.27578711509705,bear,bear,8-10-10,0764_eid_s04_8-10-10_bear_10_n02132136_3196.png
subject-04,1,765,1.39379000663757,bird,truck,16-10-10,0765_eid_s04_16-10-10_truck_10_n03417042_4664.png
subject-04,1,766,1.15549993515015,bird,bird,64-10-10,0766_eid_s04_64-10-10_bird_10_n01601694_19650.png
subject-04,1,767,1.17544293403625,bird,oven,16-10-10,0767_eid_s04_16-10-10_oven_10_n04111531_4900.png
subject-04,1,768,1.28912997245789,dog,bird,1-10-10,0768_eid_s04_1-10-10_bird_10_n01860187_18561.png
subject-04,1,769,1.15887904167175,bird,keyboard,128-10-10,0769_eid_s04_128-10-10_keyboard_10_n03085013_6067.png
subject-04,1,770,0.974816083908081,bicycle,bicycle,2-10-10,0770_eid_s04_2-10-10_bicycle_10_n02835271_13674.png
subject-04,1,771,1.2385618686676,bear,bear,128-10-10,0771_eid_s04_128-10-10_bear_10_n02132136_129.png
subject-04,1,772,0.710739135742188,airplane,airplane,2-10-10,0772_eid_s04_2-10-10_airplane_10_n02690373_17063.png
subject-04,1,773,0.736748933792114,boat,boat,8-10-10,0773_eid_s04_8-10-10_boat_10_n04273569_2667.png
subject-04,1,774,0.970417976379395,bird,clock,16-10-10,0774_eid_s04_16-10-10_clock_10_n02708093_3365.png
subject-04,1,775,1.16984581947327,boat,truck,16-10-10,0775_eid_s04_16-10-10_truck_10_n03417042_26971.png
subject-04,1,776,1.49172282218933,boat,elephant,64-10-10,0776_eid_s04_64-10-10_elephant_10_n02504458_1985.png
subject-04,1,777,0.75132417678833,elephant,elephant,16-10-10,0777_eid_s04_16-10-10_elephant_10_n02504013_2619.png
subject-04,1,778,1.41545414924622,bird,bird,4-10-10,0778_eid_s04_4-10-10_bird_10_n02009912_645.png
subject-04,1,779,1.00940799713135,bear,oven,2-10-10,0779_eid_s04_2-10-10_oven_10_n04111531_13625.png
subject-04,1,780,1.05710101127625,bear,bird,128-10-10,0780_eid_s04_128-10-10_bird_10_n02013706_6676.png
subject-04,1,781,NaN,na,bicycle,8-10-10,0781_eid_s04_8-10-10_bicycle_10_n02835271_1016.png
subject-04,1,782,1.06656408309937,elephant,elephant,2-10-10,0782_eid_s04_2-10-10_elephant_10_n02504013_8522.png
subject-04,1,783,1.20442199707031,elephant,knife,4-10-10,0783_eid_s04_4-10-10_knife_10_n03041632_25331.png
subject-04,1,784,1.40411281585693,bird,knife,64-10-10,0784_eid_s04_64-10-10_knife_10_n03041632_17091.png
subject-04,1,785,0.859968900680542,car,bicycle,8-10-10,0785_eid_s04_8-10-10_bicycle_10_n02835271_419.png
subject-04,1,786,1.03597211837769,car,car,8-10-10,0786_eid_s04_8-10-10_car_10_n04285008_9464.png
subject-04,1,787,1.34967398643494,chair,oven,8-10-10,0787_eid_s04_8-10-10_oven_10_n04111531_3159.png
subject-04,1,788,NaN,na,cat,128-10-10,0788_eid_s04_128-10-10_cat_10_n02123159_1596.png
subject-04,1,789,1.45539999008179,cat,bicycle,64-10-10,0789_eid_s04_64-10-10_bicycle_10_n03792782_14492.png
subject-04,1,790,0.611189126968384,airplane,airplane,1-10-10,0790_eid_s04_1-10-10_airplane_10_n02690373_4506.png
subject-04,1,791,1.07487392425537,bicycle,clock,128-10-10,0791_eid_s04_128-10-10_clock_10_n04548280_8841.png
subject-04,1,792,0.920919895172119,airplane,airplane,2-10-10,0792_eid_s04_2-10-10_airplane_10_n02690373_5748.png
subject-04,1,793,1.08880996704102,cat,bicycle,16-10-10,0793_eid_s04_16-10-10_bicycle_10_n02835271_18706.png
subject-04,1,794,0.746400833129883,cat,dog,128-10-10,0794_eid_s04_128-10-10_dog_10_n02100877_7049.png
subject-04,1,795,0.758319854736328,boat,boat,2-10-10,0795_eid_s04_2-10-10_boat_10_n02951358_2350.png
subject-04,1,796,0.679939031600952,elephant,elephant,1-10-10,0796_eid_s04_1-10-10_elephant_10_n02504458_220.png
subject-04,1,797,0.941716909408569,bear,bear,1-10-10,0797_eid_s04_1-10-10_bear_10_n02134418_16.png
subject-04,1,798,1.16943097114563,bear,bear,64-10-10,0798_eid_s04_64-10-10_bear_10_n02133161_3533.png
subject-04,1,799,0.829380035400391,bicycle,bicycle,8-10-10,0799_eid_s04_8-10-10_bicycle_10_n03792782_3591.png
subject-04,1,800,0.635279178619385,boat,boat,2-10-10,0800_eid_s04_2-10-10_boat_10_n02951358_2321.png
subject-04,1,801,0.985797882080078,oven,knife,1-10-10,0801_eid_s04_1-10-10_knife_10_n03041632_52929.png
subject-04,1,802,1.10169100761414,knife,knife,8-10-10,0802_eid_s04_8-10-10_knife_10_n03041632_19098.png
subject-04,1,803,0.84344220161438,clock,clock,1-10-10,0803_eid_s04_1-10-10_clock_10_n04548280_8510.png
subject-04,1,804,0.745272874832153,boat,oven,16-10-10,0804_eid_s04_16-10-10_oven_10_n04111531_1992.png
subject-04,1,805,1.27507400512695,dog,bicycle,128-10-10,0805_eid_s04_128-10-10_bicycle_10_n03792782_9651.png
subject-04,1,806,0.67088794708252,airplane,airplane,4-10-10,0806_eid_s04_4-10-10_airplane_10_n02690373_4866.png
subject-04,1,807,1.23668313026428,cat,truck,32-10-10,0807_eid_s04_32-10-10_truck_10_n04467665_70894.png
subject-04,1,808,1.03252387046814,airplane,airplane,1-10-10,0808_eid_s04_1-10-10_airplane_10_n02690373_5689.png
subject-04,1,809,1.23232698440552,boat,boat,64-10-10,0809_eid_s04_64-10-10_boat_10_n03344393_4012.png
subject-04,1,810,1.25220394134521,bear,bear,4-10-10,0810_eid_s04_4-10-10_bear_10_n02134418_1770.png
subject-04,1,811,1.05608296394348,car,car,16-10-10,0811_eid_s04_16-10-10_car_10_n03100240_23363.png
subject-04,1,812,0.893785953521729,chair,bicycle,4-10-10,0812_eid_s04_4-10-10_bicycle_10_n03792782_25019.png
subject-04,1,813,1.38959193229675,airplane,airplane,128-10-10,0813_eid_s04_128-10-10_airplane_10_n02690373_4873.png
subject-04,1,814,1.32130694389343,car,car,16-10-10,0814_eid_s04_16-10-10_car_10_n03100240_3528.png
subject-04,1,815,1.34537386894226,chair,chair,4-10-10,0815_eid_s04_4-10-10_chair_10_n03376595_12433.png
subject-04,1,816,0.909059047698975,oven,bear,32-10-10,0816_eid_s04_32-10-10_bear_10_n02134084_4875.png
subject-04,1,817,1.15290212631226,dog,truck,128-10-10,0817_eid_s04_128-10-10_truck_10_n04467665_12867.png
subject-04,1,818,0.98864483833313,bird,keyboard,32-10-10,0818_eid_s04_32-10-10_keyboard_10_n04505470_5009.png
subject-04,1,819,0.784465789794922,cat,oven,32-10-10,0819_eid_s04_32-10-10_oven_10_n04111531_13018.png
subject-04,1,820,0.992401123046875,bird,bird,1-10-10,0820_eid_s04_1-10-10_bird_10_n02009229_5765.png
subject-04,1,821,1.50002002716064,bicycle,bicycle,8-10-10,0821_eid_s04_8-10-10_bicycle_10_n02835271_19955.png
subject-04,1,822,1.06821203231812,cat,cat,4-10-10,0822_eid_s04_4-10-10_cat_10_n02124075_9065.png
subject-04,1,823,0.93781590461731,bottle,clock,64-10-10,0823_eid_s04_64-10-10_clock_10_n04548280_6605.png
subject-04,1,824,1.30964708328247,knife,oven,1-10-10,0824_eid_s04_1-10-10_oven_10_n04111531_2385.png
subject-04,1,825,1.49167490005493,bottle,clock,32-10-10,0825_eid_s04_32-10-10_clock_10_n03196217_6320.png
subject-04,1,826,1.31939315795898,dog,dog,8-10-10,0826_eid_s04_8-10-10_dog_10_n02093991_4977.png
subject-04,1,827,1.06476593017578,bicycle,boat,128-10-10,0827_eid_s04_128-10-10_boat_10_n04612504_12864.png
subject-04,1,828,0.962764024734497,clock,knife,64-10-10,0828_eid_s04_64-10-10_knife_10_n03041632_55953.png
subject-04,1,829,0.81254506111145,chair,chair,1-10-10,0829_eid_s04_1-10-10_chair_10_n04099969_5524.png
subject-04,1,830,0.708585023880005,boat,boat,8-10-10,0830_eid_s04_8-10-10_boat_10_n03662601_4734.png
subject-04,1,831,1.11020803451538,chair,bear,1-10-10,0831_eid_s04_1-10-10_bear_10_n02133161_3795.png
subject-04,1,832,1.00194907188416,bicycle,bicycle,4-10-10,0832_eid_s04_4-10-10_bicycle_10_n03792782_7518.png
subject-04,1,833,1.19388484954834,truck,oven,1-10-10,0833_eid_s04_1-10-10_oven_10_n04111531_10339.png
subject-04,1,834,1.10168290138245,cat,cat,2-10-10,0834_eid_s04_2-10-10_cat_10_n02123597_7933.png
subject-04,1,835,1.13550400733948,airplane,airplane,8-10-10,0835_eid_s04_8-10-10_airplane_10_n02690373_1360.png
subject-04,1,836,0.889173030853271,boat,boat,2-10-10,0836_eid_s04_2-10-10_boat_10_n02951358_34042.png
subject-04,1,837,NaN,na,boat,16-10-10,0837_eid_s04_16-10-10_boat_10_n03662601_2686.png
subject-04,1,838,1.14474296569824,keyboard,keyboard,4-10-10,0838_eid_s04_4-10-10_keyboard_10_n03085013_4941.png
subject-04,1,839,1.09071207046509,boat,boat,2-10-10,0839_eid_s04_2-10-10_boat_10_n03344393_2254.png
subject-04,1,840,0.890427112579346,boat,boat,16-10-10,0840_eid_s04_16-10-10_boat_10_n03662601_2980.png
subject-04,1,841,0.812326908111572,clock,clock,32-10-10,0841_eid_s04_32-10-10_clock_10_n03196217_8282.png
subject-04,1,842,0.956139802932739,cat,keyboard,32-10-10,0842_eid_s04_32-10-10_keyboard_10_n04505470_5036.png
subject-04,1,843,0.919901847839355,cat,dog,8-10-10,0843_eid_s04_8-10-10_dog_10_n02105641_10264.png
subject-04,1,844,1.12579798698425,dog,keyboard,128-10-10,0844_eid_s04_128-10-10_keyboard_10_n04505470_6955.png
subject-04,1,845,0.92769193649292,boat,knife,1-10-10,0845_eid_s04_1-10-10_knife_10_n03041632_31849.png
subject-04,1,846,1.42349600791931,bear,elephant,4-10-10,0846_eid_s04_4-10-10_elephant_10_n02504013_12533.png
subject-04,1,847,0.891536951065063,cat,knife,32-10-10,0847_eid_s04_32-10-10_knife_10_n03041632_44212.png
subject-04,1,848,1.01292896270752,dog,cat,1-10-10,0848_eid_s04_1-10-10_cat_10_n02123597_4756.png
subject-04,1,849,0.773058891296387,bicycle,bicycle,1-10-10,0849_eid_s04_1-10-10_bicycle_10_n02835271_2930.png
subject-04,1,850,0.718804836273193,oven,elephant,128-10-10,0850_eid_s04_128-10-10_elephant_10_n02504458_5333.png
subject-04,1,851,1.50015115737915,bird,bird,16-10-10,0851_eid_s04_16-10-10_bird_10_n02006656_5021.png
subject-04,1,852,0.584429025650024,keyboard,keyboard,1-10-10,0852_eid_s04_1-10-10_keyboard_10_n04505470_4668.png
subject-04,1,853,1.08631086349487,dog,knife,128-10-10,0853_eid_s04_128-10-10_knife_10_n03041632_7982.png
subject-04,1,854,1.44997000694275,bear,car,64-10-10,0854_eid_s04_64-10-10_car_10_n04285008_3280.png
subject-04,1,855,0.965585947036743,airplane,airplane,1-10-10,0855_eid_s04_1-10-10_airplane_10_n02690373_3928.png
subject-04,1,856,1.13352394104004,bird,oven,8-10-10,0856_eid_s04_8-10-10_oven_10_n04111531_4809.png
subject-04,1,857,1.00735211372375,cat,bicycle,64-10-10,0857_eid_s04_64-10-10_bicycle_10_n02835271_19019.png
subject-04,1,858,1.26721096038818,boat,elephant,8-10-10,0858_eid_s04_8-10-10_elephant_10_n02504458_6931.png
subject-04,1,859,1.20685005187988,cat,bottle,64-10-10,0859_eid_s04_64-10-10_bottle_10_n03937543_4863.png
subject-04,1,860,0.94672703742981,boat,boat,32-10-10,0860_eid_s04_32-10-10_boat_10_n03344393_3355.png
subject-04,1,861,0.680558919906616,chair,chair,2-10-10,0861_eid_s04_2-10-10_chair_10_n04099969_56470.png
subject-04,1,862,0.848711967468262,bottle,knife,2-10-10,0862_eid_s04_2-10-10_knife_10_n03041632_4279.png
subject-04,1,863,0.930150985717773,car,car,8-10-10,0863_eid_s04_8-10-10_car_10_n03100240_11191.png
subject-04,1,864,1.01593208312988,bottle,bottle,4-10-10,0864_eid_s04_4-10-10_bottle_10_n04591713_5046.png
subject-04,1,865,1.43609094619751,dog,chair,128-10-10,0865_eid_s04_128-10-10_chair_10_n04099969_1850.png
subject-04,1,866,1.13972496986389,elephant,elephant,4-10-10,0866_eid_s04_4-10-10_elephant_10_n02504013_14440.png
subject-04,1,867,0.909439086914062,keyboard,keyboard,8-10-10,0867_eid_s04_8-10-10_keyboard_10_n03085013_18785.png
subject-04,1,868,1.47727084159851,bird,oven,32-10-10,0868_eid_s04_32-10-10_oven_10_n04111531_6695.png
subject-04,1,869,1.23713612556458,cat,car,128-10-10,0869_eid_s04_128-10-10_car_10_n04285008_3150.png
subject-04,1,870,1.11490511894226,cat,keyboard,128-10-10,0870_eid_s04_128-10-10_keyboard_10_n03085013_6862.png
subject-04,1,871,0.788884878158569,elephant,elephant,1-10-10,0871_eid_s04_1-10-10_elephant_10_n02504458_3885.png
subject-04,1,872,0.994519948959351,keyboard,car,2-10-10,0872_eid_s04_2-10-10_car_10_n03100240_7066.png
subject-04,1,873,1.1464581489563,oven,boat,1-10-10,0873_eid_s04_1-10-10_boat_10_n03344393_9268.png
subject-04,1,874,0.632193088531494,cat,cat,8-10-10,0874_eid_s04_8-10-10_cat_10_n02123159_7210.png
subject-04,1,875,0.662000894546509,clock,clock,4-10-10,0875_eid_s04_4-10-10_clock_10_n04548280_10183.png
subject-04,1,876,1.25970411300659,elephant,cat,128-10-10,0876_eid_s04_128-10-10_cat_10_n02123394_5753.png
subject-04,1,877,1.35756206512451,truck,truck,4-10-10,0877_eid_s04_4-10-10_truck_10_n04467665_13231.png
subject-04,1,878,1.23529410362244,bear,boat,32-10-10,0878_eid_s04_32-10-10_boat_10_n04612504_8719.png
subject-04,1,879,1.04333186149597,bicycle,bicycle,2-10-10,0879_eid_s04_2-10-10_bicycle_10_n02835271_1573.png
subject-04,1,880,1.23510098457336,boat,truck,128-10-10,0880_eid_s04_128-10-10_truck_10_n04467665_15235.png
subject-04,1,881,1.17978405952454,knife,knife,1-10-10,0881_eid_s04_1-10-10_knife_10_n03041632_25656.png
subject-04,1,882,0.723641872406006,boat,oven,2-10-10,0882_eid_s04_2-10-10_oven_10_n04111531_4322.png
subject-04,1,883,0.811295032501221,boat,truck,16-10-10,0883_eid_s04_16-10-10_truck_10_n04467665_68332.png
subject-04,1,884,0.809178829193115,car,car,16-10-10,0884_eid_s04_16-10-10_car_10_n03100240_17289.png
subject-04,1,885,0.950932025909424,boat,boat,2-10-10,0885_eid_s04_2-10-10_boat_10_n03344393_12262.png
subject-04,1,886,0.640627145767212,clock,clock,8-10-10,0886_eid_s04_8-10-10_clock_10_n03196217_4912.png
subject-04,1,887,0.844721078872681,elephant,dog,128-10-10,0887_eid_s04_128-10-10_dog_10_n02096294_1260.png
subject-04,1,888,0.760357141494751,bear,bear,4-10-10,0888_eid_s04_4-10-10_bear_10_n02134418_3287.png
subject-04,1,889,1.09016299247742,boat,cat,1-10-10,0889_eid_s04_1-10-10_cat_10_n02123394_2347.png
subject-04,1,890,1.08606815338135,cat,cat,32-10-10,0890_eid_s04_32-10-10_cat_10_n02123597_13623.png
subject-04,1,891,1.03390598297119,bird,cat,16-10-10,0891_eid_s04_16-10-10_cat_10_n02123045_15476.png
subject-04,1,892,0.920107841491699,chair,dog,16-10-10,0892_eid_s04_16-10-10_dog_10_n02113023_1980.png
subject-04,1,893,0.679352045059204,bicycle,bicycle,4-10-10,0893_eid_s04_4-10-10_bicycle_10_n03792782_37777.png
subject-04,1,894,0.723114967346191,bottle,oven,1-10-10,0894_eid_s04_1-10-10_oven_10_n04111531_17072.png
subject-04,1,895,0.655179023742676,airplane,airplane,2-10-10,0895_eid_s04_2-10-10_airplane_10_n02690373_9266.png
subject-04,1,896,1.20691299438477,knife,knife,4-10-10,0896_eid_s04_4-10-10_knife_10_n03041632_40450.png
subject-04,1,897,1.31075382232666,boat,boat,16-10-10,0897_eid_s04_16-10-10_boat_10_n03662601_5118.png
subject-04,1,898,1.08866405487061,clock,clock,1-10-10,0898_eid_s04_1-10-10_clock_10_n02708093_57.png
subject-04,1,899,1.21054697036743,cat,bottle,16-10-10,0899_eid_s04_16-10-10_bottle_10_n04557648_3599.png
subject-04,1,900,1.13621211051941,cat,bear,64-10-10,0900_eid_s04_64-10-10_bear_10_n02134084_622.png
subject-04,1,901,1.2638521194458,dog,elephant,64-10-10,0901_eid_s04_64-10-10_elephant_10_n02504458_12776.png
subject-04,1,902,0.979685068130493,bear,bicycle,32-10-10,0902_eid_s04_32-10-10_bicycle_10_n03792782_23912.png
subject-04,1,903,1.4138810634613,clock,clock,4-10-10,0903_eid_s04_4-10-10_clock_10_n02708093_6850.png
subject-04,1,904,0.855337858200073,bottle,bottle,2-10-10,0904_eid_s04_2-10-10_bottle_10_n04579145_3415.png
subject-04,1,905,1.41316294670105,oven,airplane,16-10-10,0905_eid_s04_16-10-10_airplane_10_n02690373_5587.png
subject-04,1,906,1.28532099723816,bear,bird,32-10-10,0906_eid_s04_32-10-10_bird_10_n01537544_3720.png
subject-04,1,907,1.17472696304321,bottle,bottle,2-10-10,0907_eid_s04_2-10-10_bottle_10_n04591713_6905.png
subject-04,1,908,1.35897397994995,bear,dog,32-10-10,0908_eid_s04_32-10-10_dog_10_n02111277_21812.png
subject-04,1,909,1.19037508964539,cat,cat,8-10-10,0909_eid_s04_8-10-10_cat_10_n02123159_13604.png
subject-04,1,910,1.46022510528564,car,bottle,128-10-10,0910_eid_s04_128-10-10_bottle_10_n04557648_6010.png
subject-04,1,911,1.31606698036194,bird,chair,32-10-10,0911_eid_s04_32-10-10_chair_10_n02791124_6492.png
subject-04,1,912,1.12018799781799,elephant,elephant,2-10-10,0912_eid_s04_2-10-10_elephant_10_n02504013_10390.png
subject-04,1,913,1.09759092330933,oven,car,128-10-10,0913_eid_s04_128-10-10_car_10_n04285008_2653.png
subject-04,1,914,1.45945501327515,cat,dog,128-10-10,0914_eid_s04_128-10-10_dog_10_n02108551_5950.png
subject-04,1,915,0.745404958724976,cat,cat,1-10-10,0915_eid_s04_1-10-10_cat_10_n02124075_724.png
subject-04,1,916,1.31941103935242,clock,chair,16-10-10,0916_eid_s04_16-10-10_chair_10_n04429376_11720.png
subject-04,1,917,1.21704483032227,dog,chair,128-10-10,0917_eid_s04_128-10-10_chair_10_n02791124_3241.png
subject-04,1,918,1.50012993812561,chair,car,64-10-10,0918_eid_s04_64-10-10_car_10_n02814533_52045.png
subject-04,1,919,NaN,na,clock,64-10-10,0919_eid_s04_64-10-10_clock_10_n02708093_5126.png
subject-04,1,920,1.1723837852478,truck,truck,8-10-10,0920_eid_s04_8-10-10_truck_10_n03417042_11037.png
subject-04,1,921,0.908064842224121,cat,cat,64-10-10,0921_eid_s04_64-10-10_cat_10_n02124075_2813.png
subject-04,1,922,1.0620391368866,cat,bottle,16-10-10,0922_eid_s04_16-10-10_bottle_10_n03983396_486.png
subject-04,1,923,0.639781951904297,cat,cat,8-10-10,0923_eid_s04_8-10-10_cat_10_n02124075_15378.png
subject-04,1,924,0.791961908340454,knife,knife,2-10-10,0924_eid_s04_2-10-10_knife_10_n03041632_47743.png
subject-04,1,925,1.49160099029541,knife,bottle,1-10-10,0925_eid_s04_1-10-10_bottle_10_n04591713_4291.png
subject-04,1,926,0.89329719543457,oven,truck,128-10-10,0926_eid_s04_128-10-10_truck_10_n03417042_3351.png
subject-04,1,927,0.865350008010864,cat,boat,32-10-10,0927_eid_s04_32-10-10_boat_10_n03344393_3498.png
subject-04,1,928,0.922831058502197,cat,airplane,128-10-10,0928_eid_s04_128-10-10_airplane_10_n02690373_1696.png
subject-04,1,929,0.878782033920288,bird,bird,8-10-10,0929_eid_s04_8-10-10_bird_10_n01560419_7909.png
subject-04,1,930,0.92849588394165,oven,keyboard,32-10-10,0930_eid_s04_32-10-10_keyboard_10_n03085013_15995.png
subject-04,1,931,1.05639314651489,bottle,bottle,16-10-10,0931_eid_s04_16-10-10_bottle_10_n03937543_7767.png
subject-04,1,932,1.50001907348633,bird,chair,64-10-10,0932_eid_s04_64-10-10_chair_10_n03376595_2393.png
subject-04,1,933,0.824018001556396,bear,bear,2-10-10,0933_eid_s04_2-10-10_bear_10_n02134418_551.png
subject-04,1,934,0.843628883361816,cat,bear,64-10-10,0934_eid_s04_64-10-10_bear_10_n02132136_3102.png
subject-04,1,935,1.50013709068298,elephant,elephant,8-10-10,0935_eid_s04_8-10-10_elephant_10_n02504458_3342.png
subject-04,1,936,1.50009489059448,dog,elephant,128-10-10,0936_eid_s04_128-10-10_elephant_10_n02504458_8414.png
subject-04,1,937,0.723085880279541,bottle,bottle,2-10-10,0937_eid_s04_2-10-10_bottle_10_n02823428_7495.png
subject-04,1,938,1.04914283752441,bear,oven,32-10-10,0938_eid_s04_32-10-10_oven_10_n04111531_12830.png
subject-04,1,939,0.894757032394409,airplane,airplane,4-10-10,0939_eid_s04_4-10-10_airplane_10_n02690373_1489.png
subject-04,1,940,0.984549045562744,keyboard,chair,4-10-10,0940_eid_s04_4-10-10_chair_10_n02791124_2804.png
subject-04,1,941,0.686411142349243,keyboard,keyboard,4-10-10,0941_eid_s04_4-10-10_keyboard_10_n03085013_6978.png
subject-04,1,942,1.0721640586853,cat,bicycle,64-10-10,0942_eid_s04_64-10-10_bicycle_10_n03792782_11921.png
subject-04,1,943,1.24814701080322,bottle,bottle,1-10-10,0943_eid_s04_1-10-10_bottle_10_n03937543_3935.png
subject-04,1,944,0.958045959472656,boat,boat,1-10-10,0944_eid_s04_1-10-10_boat_10_n04273569_1495.png
subject-04,1,945,1.15757584571838,knife,knife,1-10-10,0945_eid_s04_1-10-10_knife_10_n03041632_89391.png
subject-04,1,946,1.24752998352051,bottle,cat,128-10-10,0946_eid_s04_128-10-10_cat_10_n02124075_8320.png
subject-04,1,947,1.33323001861572,cat,bear,128-10-10,0947_eid_s04_128-10-10_bear_10_n02133161_2164.png
subject-04,1,948,1.32319116592407,cat,cat,4-10-10,0948_eid_s04_4-10-10_cat_10_n02123159_273.png
subject-04,1,949,1.07716083526611,bird,oven,32-10-10,0949_eid_s04_32-10-10_oven_10_n04111531_22715.png
subject-04,1,950,1.23485398292542,boat,bottle,2-10-10,0950_eid_s04_2-10-10_bottle_10_n02823428_7810.png
subject-04,1,951,0.956907033920288,truck,truck,1-10-10,0951_eid_s04_1-10-10_truck_10_n03796401_874.png
subject-04,1,952,1.01055002212524,cat,knife,64-10-10,0952_eid_s04_64-10-10_knife_10_n03041632_52702.png
subject-04,1,953,1.03030705451965,bird,bear,32-10-10,0953_eid_s04_32-10-10_bear_10_n02134418_4050.png
subject-04,1,954,0.865952014923096,oven,boat,32-10-10,0954_eid_s04_32-10-10_boat_10_n04273569_5679.png
subject-04,1,955,0.679813861846924,cat,boat,64-10-10,0955_eid_s04_64-10-10_boat_10_n04612504_15258.png
subject-04,1,956,1.42555594444275,knife,keyboard,4-10-10,0956_eid_s04_4-10-10_keyboard_10_n03085013_19842.png
subject-04,1,957,1.0718150138855,cat,dog,32-10-10,0957_eid_s04_32-10-10_dog_10_n02099849_4640.png
subject-04,1,958,1.08915090560913,bear,bear,1-10-10,0958_eid_s04_1-10-10_bear_10_n02134418_5418.png
