subj,Session,trial,rt,object_response,category,condition,imagename
subject-03,1,1,0.708024978637695,car,car,2-0-10,0001_eid_s03_2-0-10_car_10_n04285008_10631.png
subject-03,1,2,1.07756805419922,bird,bird,8-0-10,0002_eid_s03_8-0-10_bird_10_n02009912_11813.png
subject-03,1,3,1.08345079421997,elephant,knife,32-0-10,0003_eid_s03_32-0-10_knife_10_n03041632_105081.png
subject-03,1,4,0.801115989685059,cat,cat,2-0-10,0004_eid_s03_2-0-10_cat_10_n02123597_13834.png
subject-03,1,5,1.08508014678955,dog,bottle,8-0-10,0005_eid_s03_8-0-10_bottle_10_n02823428_1153.png
subject-03,1,6,1.08485984802246,cat,cat,2-0-10,0006_eid_s03_2-0-10_cat_10_n02123159_3026.png
subject-03,1,7,1.0707859992981,chair,oven,1-0-10,0007_eid_s03_1-0-10_oven_10_n04111531_10216.png
subject-03,1,8,1.32246398925781,car,car,8-0-10,0008_eid_s03_8-0-10_car_10_n02814533_68668.png
subject-03,1,9,0.874406099319458,cat,bird,64-0-10,0009_eid_s03_64-0-10_bird_10_n02025239_6209.png
subject-03,1,10,0.790229797363281,bird,bird,1-0-10,0010_eid_s03_1-0-10_bird_10_n02009912_2313.png
subject-03,1,11,0.924069166183472,keyboard,keyboard,2-0-10,0011_eid_s03_2-0-10_keyboard_10_n03085013_28083.png
subject-03,1,12,0.895835876464844,bicycle,bicycle,1-0-10,0012_eid_s03_1-0-10_bicycle_10_n02835271_2050.png
subject-03,1,13,0.863442897796631,cat,bicycle,16-0-10,0013_eid_s03_16-0-10_bicycle_10_n02835271_4667.png
subject-03,1,14,1.23529005050659,boat,car,32-0-10,0014_eid_s03_32-0-10_car_10_n03100240_16210.png
subject-03,1,15,1.23925805091858,airplane,keyboard,64-0-10,0015_eid_s03_64-0-10_keyboard_10_n04505470_3881.png
subject-03,1,16,0.876893997192383,oven,truck,32-0-10,0016_eid_s03_32-0-10_truck_10_n03796401_10784.png
subject-03,1,17,0.775247812271118,cat,cat,2-0-10,0017_eid_s03_2-0-10_cat_10_n02124075_11153.png
subject-03,1,18,0.862867116928101,elephant,elephant,1-0-10,0018_eid_s03_1-0-10_elephant_10_n02504013_9141.png
subject-03,1,19,0.846580028533936,bird,oven,16-0-10,0019_eid_s03_16-0-10_oven_10_n04111531_8988.png
subject-03,1,20,1.41858315467834,oven,boat,64-0-10,0020_eid_s03_64-0-10_boat_10_n02951358_23759.png
subject-03,1,21,1.45620703697205,bear,cat,8-0-10,0021_eid_s03_8-0-10_cat_10_n02123045_964.png
subject-03,1,22,1.25408411026001,boat,bear,2-0-10,0022_eid_s03_2-0-10_bear_10_n02134418_18850.png
subject-03,1,23,0.984055995941162,clock,clock,2-0-10,0023_eid_s03_2-0-10_clock_10_n03196217_2201.png
subject-03,1,24,0.929857969284058,cat,car,128-0-10,0024_eid_s03_128-0-10_car_10_n04285008_10144.png
subject-03,1,25,1.26943016052246,elephant,clock,8-0-10,0025_eid_s03_8-0-10_clock_10_n03196217_911.png
subject-03,1,26,1.50013399124146,elephant,knife,16-0-10,0026_eid_s03_16-0-10_knife_10_n03041632_18766.png
subject-03,1,27,0.797009944915771,bear,keyboard,4-0-10,0027_eid_s03_4-0-10_keyboard_10_n04505470_179.png
subject-03,1,28,NaN,na,bear,8-0-10,0028_eid_s03_8-0-10_bear_10_n02132136_4261.png
subject-03,1,29,1.42684888839722,car,bird,2-0-10,0029_eid_s03_2-0-10_bird_10_n01795545_15255.png
subject-03,1,30,0.788434028625488,cat,bear,8-0-10,0030_eid_s03_8-0-10_bear_10_n02133161_12751.png
subject-03,1,31,1.12031388282776,dog,bicycle,8-0-10,0031_eid_s03_8-0-10_bicycle_10_n03792782_126.png
subject-03,1,32,1.161945104599,airplane,airplane,64-0-10,0032_eid_s03_64-0-10_airplane_10_n02690373_2038.png
subject-03,1,33,1.10185885429382,bicycle,truck,128-0-10,0033_eid_s03_128-0-10_truck_10_n04467665_80153.png
subject-03,1,34,0.877913951873779,dog,dog,1-0-10,0034_eid_s03_1-0-10_dog_10_n02087394_3095.png
subject-03,1,35,1.14746379852295,bird,elephant,64-0-10,0035_eid_s03_64-0-10_elephant_10_n02504013_6703.png
subject-03,1,36,1.10927414894104,car,boat,32-0-10,0036_eid_s03_32-0-10_boat_10_n03662601_8650.png
subject-03,1,37,1.04126310348511,truck,oven,32-0-10,0037_eid_s03_32-0-10_oven_10_n04111531_4438.png
subject-03,1,38,0.908947944641113,bear,knife,128-0-10,0038_eid_s03_128-0-10_knife_10_n03041632_2438.png
subject-03,1,39,0.820684909820557,elephant,elephant,2-0-10,0039_eid_s03_2-0-10_elephant_10_n02504458_5095.png
subject-03,1,40,1.17853808403015,elephant,knife,16-0-10,0040_eid_s03_16-0-10_knife_10_n03041632_38610.png
subject-03,1,41,1.19432520866394,boat,airplane,16-0-10,0041_eid_s03_16-0-10_airplane_10_n02690373_19329.png
subject-03,1,42,0.710290193557739,airplane,airplane,2-0-10,0042_eid_s03_2-0-10_airplane_10_n02690373_4148.png
subject-03,1,43,1.23804783821106,oven,chair,128-0-10,0043_eid_s03_128-0-10_chair_10_n02791124_3916.png
subject-03,1,44,0.926181077957153,boat,chair,16-0-10,0044_eid_s03_16-0-10_chair_10_n04099969_33329.png
subject-03,1,45,0.975684881210327,boat,bicycle,8-0-10,0045_eid_s03_8-0-10_bicycle_10_n02835271_18846.png
subject-03,1,46,1.21339702606201,cat,bear,1-0-10,0046_eid_s03_1-0-10_bear_10_n02134418_304.png
subject-03,1,47,0.703366041183472,elephant,elephant,2-0-10,0047_eid_s03_2-0-10_elephant_10_n02504013_1708.png
subject-03,1,48,1.23514008522034,clock,chair,1-0-10,0048_eid_s03_1-0-10_chair_10_n04099969_3583.png
subject-03,1,49,1.5001208782196,oven,elephant,64-0-10,0049_eid_s03_64-0-10_elephant_10_n02504013_6423.png
subject-03,1,50,1.20062899589539,cat,bird,64-0-10,0050_eid_s03_64-0-10_bird_10_n02013706_5454.png
subject-03,1,51,1.00636196136475,boat,clock,8-0-10,0051_eid_s03_8-0-10_clock_10_n03196217_6257.png
subject-03,1,52,0.728375911712646,chair,chair,2-0-10,0052_eid_s03_2-0-10_chair_10_n03376595_3462.png
subject-03,1,53,1.15020489692688,keyboard,keyboard,8-0-10,0053_eid_s03_8-0-10_keyboard_10_n03085013_23563.png
subject-03,1,54,1.06594681739807,oven,bottle,4-0-10,0054_eid_s03_4-0-10_bottle_10_n03983396_7337.png
subject-03,1,55,1.08763790130615,clock,airplane,128-0-10,0055_eid_s03_128-0-10_airplane_10_n02690373_6807.png
subject-03,1,56,1.36136889457703,cat,cat,128-0-10,0056_eid_s03_128-0-10_cat_10_n02123597_6291.png
subject-03,1,57,1.47727298736572,bear,elephant,4-0-10,0057_eid_s03_4-0-10_elephant_10_n02504013_10582.png
subject-03,1,58,1.20301389694214,bird,keyboard,16-0-10,0058_eid_s03_16-0-10_keyboard_10_n03085013_24538.png
subject-03,1,59,1.45893216133118,dog,keyboard,16-0-10,0059_eid_s03_16-0-10_keyboard_10_n04505470_9446.png
subject-03,1,60,0.796840906143188,dog,cat,64-0-10,0060_eid_s03_64-0-10_cat_10_n02124075_7474.png
subject-03,1,61,NaN,na,airplane,128-0-10,0061_eid_s03_128-0-10_airplane_10_n02690373_6929.png
subject-03,1,62,0.898388862609863,keyboard,keyboard,2-0-10,0062_eid_s03_2-0-10_keyboard_10_n04505470_568.png
subject-03,1,63,0.964481115341187,keyboard,truck,4-0-10,0063_eid_s03_4-0-10_truck_10_n04467665_41076.png
subject-03,1,64,1.50000214576721,cat,dog,8-0-10,0064_eid_s03_8-0-10_dog_10_n02105855_9345.png
subject-03,1,65,0.908058881759644,cat,knife,16-0-10,0065_eid_s03_16-0-10_knife_10_n03041632_7680.png
subject-03,1,66,0.879978179931641,car,car,1-0-10,0066_eid_s03_1-0-10_car_10_n03100240_13410.png
subject-03,1,67,0.925428867340088,bird,bird,4-0-10,0067_eid_s03_4-0-10_bird_10_n01795545_17770.png
subject-03,1,68,0.831145048141479,dog,dog,1-0-10,0068_eid_s03_1-0-10_dog_10_n02086646_5896.png
subject-03,1,69,0.645234823226929,cat,cat,4-0-10,0069_eid_s03_4-0-10_cat_10_n02124075_13568.png
subject-03,1,70,0.848777055740356,oven,bicycle,64-0-10,0070_eid_s03_64-0-10_bicycle_10_n02835271_12945.png
subject-03,1,71,1.20280003547668,airplane,oven,64-0-10,0071_eid_s03_64-0-10_oven_10_n04111531_8263.png
subject-03,1,72,0.776393890380859,knife,knife,1-0-10,0072_eid_s03_1-0-10_knife_10_n03041632_48062.png
subject-03,1,73,1.41041493415833,chair,cat,8-0-10,0073_eid_s03_8-0-10_cat_10_n02123045_8751.png
subject-03,1,74,1.50000500679016,oven,elephant,4-0-10,0074_eid_s03_4-0-10_elephant_10_n02504458_6830.png
subject-03,1,75,1.18801498413086,car,clock,32-0-10,0075_eid_s03_32-0-10_clock_10_n04548280_8412.png
subject-03,1,76,1.05777096748352,truck,clock,64-0-10,0076_eid_s03_64-0-10_clock_10_n04548280_17198.png
subject-03,1,77,1.35757994651794,bottle,knife,4-0-10,0077_eid_s03_4-0-10_knife_10_n03041632_29680.png
subject-03,1,78,1.2195188999176,elephant,bicycle,16-0-10,0078_eid_s03_16-0-10_bicycle_10_n03792782_10876.png
subject-03,1,79,0.883567094802856,cat,bird,8-0-10,0079_eid_s03_8-0-10_bird_10_n01820546_4847.png
subject-03,1,80,0.841181993484497,bird,elephant,64-0-10,0080_eid_s03_64-0-10_elephant_10_n02504013_10765.png
subject-03,1,81,0.706116914749146,cat,elephant,16-0-10,0081_eid_s03_16-0-10_elephant_10_n02504013_3602.png
subject-03,1,82,0.731969118118286,boat,boat,2-0-10,0082_eid_s03_2-0-10_boat_10_n04273569_14363.png
subject-03,1,83,0.641623020172119,keyboard,keyboard,2-0-10,0083_eid_s03_2-0-10_keyboard_10_n03085013_4636.png
subject-03,1,84,0.747308015823364,oven,elephant,32-0-10,0084_eid_s03_32-0-10_elephant_10_n02504458_6302.png
subject-03,1,85,1.29342007637024,cat,clock,128-0-10,0085_eid_s03_128-0-10_clock_10_n04548280_5278.png
subject-03,1,86,NaN,na,clock,32-0-10,0086_eid_s03_32-0-10_clock_10_n02708093_685.png
subject-03,1,87,1.23088002204895,chair,chair,1-0-10,0087_eid_s03_1-0-10_chair_10_n03376595_2382.png
subject-03,1,88,1.41080498695374,bear,bear,1-0-10,0088_eid_s03_1-0-10_bear_10_n02134418_4177.png
subject-03,1,89,NaN,na,bottle,4-0-10,0089_eid_s03_4-0-10_bottle_10_n04557648_10051.png
subject-03,1,90,0.950329780578613,clock,elephant,16-0-10,0090_eid_s03_16-0-10_elephant_10_n02504013_3172.png
subject-03,1,91,0.760157108306885,boat,chair,64-0-10,0091_eid_s03_64-0-10_chair_10_n04429376_17336.png
subject-03,1,92,0.711827993392944,cat,truck,128-0-10,0092_eid_s03_128-0-10_truck_10_n03796401_15846.png
subject-03,1,93,0.875849962234497,keyboard,boat,8-0-10,0093_eid_s03_8-0-10_boat_10_n03344393_8455.png
subject-03,1,94,0.785760164260864,cat,car,8-0-10,0094_eid_s03_8-0-10_car_10_n04285008_13958.png
subject-03,1,95,0.623417854309082,chair,chair,2-0-10,0095_eid_s03_2-0-10_chair_10_n03376595_6973.png
subject-03,1,96,0.977197885513306,bird,knife,64-0-10,0096_eid_s03_64-0-10_knife_10_n03041632_46914.png
subject-03,1,97,0.749211072921753,cat,keyboard,128-0-10,0097_eid_s03_128-0-10_keyboard_10_n03085013_23943.png
subject-03,1,98,0.710684061050415,cat,knife,16-0-10,0098_eid_s03_16-0-10_knife_10_n03041632_80829.png
subject-03,1,99,0.720808982849121,truck,car,1-0-10,0099_eid_s03_1-0-10_car_10_n02814533_34734.png
subject-03,1,100,1.23229622840881,bird,knife,32-0-10,0100_eid_s03_32-0-10_knife_10_n03041632_12949.png
subject-03,1,101,0.702208042144775,oven,bear,64-0-10,0101_eid_s03_64-0-10_bear_10_n02132136_15174.png
subject-03,1,102,1.45211791992188,bear,bear,1-0-10,0102_eid_s03_1-0-10_bear_10_n02132136_4632.png
subject-03,1,103,1.5000638961792,bicycle,bottle,32-0-10,0103_eid_s03_32-0-10_bottle_10_n04591713_4865.png
subject-03,1,104,1.40362691879272,bear,bear,16-0-10,0104_eid_s03_16-0-10_bear_10_n02134418_2891.png
subject-03,1,105,0.713538885116577,cat,cat,2-0-10,0105_eid_s03_2-0-10_cat_10_n02123159_2684.png
subject-03,1,106,0.897222995758057,bird,chair,4-0-10,0106_eid_s03_4-0-10_chair_10_n04099969_3161.png
subject-03,1,107,0.767054080963135,keyboard,boat,16-0-10,0107_eid_s03_16-0-10_boat_10_n03662601_1191.png
subject-03,1,108,0.768877983093262,car,car,8-0-10,0108_eid_s03_8-0-10_car_10_n02814533_37736.png
subject-03,1,109,0.75274395942688,clock,bird,8-0-10,0109_eid_s03_8-0-10_bird_10_n01828970_7329.png
subject-03,1,110,1.05058813095093,chair,clock,4-0-10,0110_eid_s03_4-0-10_clock_10_n04548280_11681.png
subject-03,1,111,1.21025896072388,oven,dog,1-0-10,0111_eid_s03_1-0-10_dog_10_n02093991_8648.png
subject-03,1,112,1.00619912147522,boat,clock,4-0-10,0112_eid_s03_4-0-10_clock_10_n03196217_5568.png
subject-03,1,113,0.740084886550903,clock,truck,32-0-10,0113_eid_s03_32-0-10_truck_10_n03417042_16000.png
subject-03,1,114,1.13579702377319,car,chair,128-0-10,0114_eid_s03_128-0-10_chair_10_n02791124_3671.png
subject-03,1,115,1.50006699562073,bear,oven,8-0-10,0115_eid_s03_8-0-10_oven_10_n04111531_1150.png
subject-03,1,116,1.13339495658875,boat,bicycle,16-0-10,0116_eid_s03_16-0-10_bicycle_10_n02835271_14966.png
subject-03,1,117,1.05516004562378,clock,bird,128-0-10,0117_eid_s03_128-0-10_bird_10_n02028035_32993.png
subject-03,1,118,1.01901483535767,clock,bicycle,64-0-10,0118_eid_s03_64-0-10_bicycle_10_n03792782_59.png
subject-03,1,119,0.776772022247314,boat,airplane,1-0-10,0119_eid_s03_1-0-10_airplane_10_n02690373_8653.png
subject-03,1,120,0.87065601348877,airplane,airplane,2-0-10,0120_eid_s03_2-0-10_airplane_10_n02690373_4851.png
subject-03,1,121,1.08852481842041,knife,bird,2-0-10,0121_eid_s03_2-0-10_bird_10_n02056570_18300.png
subject-03,1,122,1.20825695991516,bicycle,keyboard,128-0-10,0122_eid_s03_128-0-10_keyboard_10_n04505470_4902.png
subject-03,1,123,0.894100904464722,oven,chair,16-0-10,0123_eid_s03_16-0-10_chair_10_n02791124_3109.png
subject-03,1,124,0.763898849487305,oven,cat,16-0-10,0124_eid_s03_16-0-10_cat_10_n02123394_5907.png
subject-03,1,125,1.2739589214325,oven,keyboard,64-0-10,0125_eid_s03_64-0-10_keyboard_10_n04505470_3929.png
subject-03,1,126,0.811524152755737,oven,clock,128-0-10,0126_eid_s03_128-0-10_clock_10_n04548280_4346.png
subject-03,1,127,0.825456857681274,bird,bird,2-0-10,0127_eid_s03_2-0-10_bird_10_n02051845_2574.png
subject-03,1,128,1.11337208747864,cat,car,16-0-10,0128_eid_s03_16-0-10_car_10_n03100240_3386.png
subject-03,1,129,0.914960861206055,cat,elephant,32-0-10,0129_eid_s03_32-0-10_elephant_10_n02504013_782.png
subject-03,1,130,1.27101492881775,bicycle,bicycle,2-0-10,0130_eid_s03_2-0-10_bicycle_10_n03792782_11679.png
subject-03,1,131,0.756565093994141,boat,boat,4-0-10,0131_eid_s03_4-0-10_boat_10_n02951358_13456.png
subject-03,1,132,1.07232284545898,clock,bear,16-0-10,0132_eid_s03_16-0-10_bear_10_n02134084_617.png
subject-03,1,133,0.818242788314819,bear,bear,2-0-10,0133_eid_s03_2-0-10_bear_10_n02134418_3584.png
subject-03,1,134,0.663978815078735,oven,clock,128-0-10,0134_eid_s03_128-0-10_clock_10_n04548280_23690.png
subject-03,1,135,0.76970911026001,oven,bear,64-0-10,0135_eid_s03_64-0-10_bear_10_n02134418_912.png
subject-03,1,136,0.659558057785034,oven,bird,32-0-10,0136_eid_s03_32-0-10_bird_10_n01843383_91.png
subject-03,1,137,0.851779937744141,bicycle,bicycle,2-0-10,0137_eid_s03_2-0-10_bicycle_10_n02835271_1932.png
subject-03,1,138,1.11134886741638,bear,oven,16-0-10,0138_eid_s03_16-0-10_oven_10_n04111531_4346.png
subject-03,1,139,1.23902606964111,bear,keyboard,64-0-10,0139_eid_s03_64-0-10_keyboard_10_n03085013_21490.png
subject-03,1,140,1.44292688369751,bear,boat,32-0-10,0140_eid_s03_32-0-10_boat_10_n03662601_4558.png
subject-03,1,141,1.08109498023987,car,oven,1-0-10,0141_eid_s03_1-0-10_oven_10_n04111531_5357.png
subject-03,1,142,0.79279088973999,car,car,4-0-10,0142_eid_s03_4-0-10_car_10_n02814533_41953.png
subject-03,1,143,1.24032711982727,dog,dog,4-0-10,0143_eid_s03_4-0-10_dog_10_n02113624_1212.png
subject-03,1,144,0.778151988983154,cat,cat,16-0-10,0144_eid_s03_16-0-10_cat_10_n02123045_6514.png
subject-03,1,145,1.02395415306091,boat,airplane,4-0-10,0145_eid_s03_4-0-10_airplane_10_n02690373_9802.png
subject-03,1,146,0.775918960571289,cat,elephant,64-0-10,0146_eid_s03_64-0-10_elephant_10_n02504458_5941.png
subject-03,1,147,1.0095739364624,oven,bear,32-0-10,0147_eid_s03_32-0-10_bear_10_n02134084_21170.png
subject-03,1,148,1.10537815093994,oven,bicycle,32-0-10,0148_eid_s03_32-0-10_bicycle_10_n02835271_6563.png
subject-03,1,149,1.07731294631958,elephant,clock,32-0-10,0149_eid_s03_32-0-10_clock_10_n04548280_16295.png
subject-03,1,150,1.03303480148315,cat,cat,128-0-10,0150_eid_s03_128-0-10_cat_10_n02123045_7812.png
subject-03,1,151,1.14490389823914,clock,keyboard,64-0-10,0151_eid_s03_64-0-10_keyboard_10_n03085013_22929.png
subject-03,1,152,0.708539962768555,cat,dog,64-0-10,0152_eid_s03_64-0-10_dog_10_n02096437_4563.png
subject-03,1,153,0.980548858642578,cat,truck,128-0-10,0153_eid_s03_128-0-10_truck_10_n03796401_2988.png
subject-03,1,154,NaN,na,bird,4-0-10,0154_eid_s03_4-0-10_bird_10_n01614925_2708.png
subject-03,1,155,0.828218936920166,cat,bicycle,4-0-10,0155_eid_s03_4-0-10_bicycle_10_n03792782_10366.png
subject-03,1,156,1.06184720993042,cat,cat,16-0-10,0156_eid_s03_16-0-10_cat_10_n02123597_13197.png
subject-03,1,157,0.791730165481567,cat,chair,64-0-10,0157_eid_s03_64-0-10_chair_10_n02791124_7142.png
subject-03,1,158,0.789638996124268,car,car,2-0-10,0158_eid_s03_2-0-10_car_10_n03100240_23229.png
subject-03,1,159,1.36354398727417,bottle,bottle,1-0-10,0159_eid_s03_1-0-10_bottle_10_n04560804_33297.png
subject-03,1,160,1.00748586654663,cat,oven,128-0-10,0160_eid_s03_128-0-10_oven_10_n04111531_5328.png
subject-03,1,161,1.32611608505249,keyboard,chair,8-0-10,0161_eid_s03_8-0-10_chair_10_n04099969_4816.png
subject-03,1,162,0.840035915374756,cat,keyboard,128-0-10,0162_eid_s03_128-0-10_keyboard_10_n04505470_6.png
subject-03,1,163,0.865869045257568,bear,elephant,16-0-10,0163_eid_s03_16-0-10_elephant_10_n02504458_151.png
subject-03,1,164,1.40748405456543,bottle,bottle,1-0-10,0164_eid_s03_1-0-10_bottle_10_n04557648_264.png
subject-03,1,165,1.07738208770752,oven,bicycle,32-0-10,0165_eid_s03_32-0-10_bicycle_10_n03792782_30246.png
subject-03,1,166,NaN,na,dog,4-0-10,0166_eid_s03_4-0-10_dog_10_n02097130_1442.png
subject-03,1,167,0.779141902923584,oven,keyboard,64-0-10,0167_eid_s03_64-0-10_keyboard_10_n04505470_3935.png
subject-03,1,168,0.84282398223877,cat,chair,8-0-10,0168_eid_s03_8-0-10_chair_10_n04099969_7191.png
subject-03,1,169,0.88454794883728,cat,bicycle,64-0-10,0169_eid_s03_64-0-10_bicycle_10_n03792782_14047.png
subject-03,1,170,0.828463792800903,car,car,2-0-10,0170_eid_s03_2-0-10_car_10_n04285008_5897.png
subject-03,1,171,0.644252061843872,cat,cat,4-0-10,0171_eid_s03_4-0-10_cat_10_n02123394_2559.png
subject-03,1,172,0.710191011428833,cat,oven,32-0-10,0172_eid_s03_32-0-10_oven_10_n04111531_16795.png
subject-03,1,173,0.625797986984253,oven,oven,2-0-10,0173_eid_s03_2-0-10_oven_10_n04111531_13560.png
subject-03,1,174,1.08958697319031,oven,chair,32-0-10,0174_eid_s03_32-0-10_chair_10_n03376595_9395.png
subject-03,1,175,1.12542009353638,cat,dog,32-0-10,0175_eid_s03_32-0-10_dog_10_n02111500_6090.png
subject-03,1,176,1.37736582756042,truck,truck,2-0-10,0176_eid_s03_2-0-10_truck_10_n04467665_15994.png
subject-03,1,177,0.899216175079346,knife,knife,1-0-10,0177_eid_s03_1-0-10_knife_10_n03041632_56454.png
subject-03,1,178,0.907252073287964,keyboard,keyboard,8-0-10,0178_eid_s03_8-0-10_keyboard_10_n03085013_5812.png
subject-03,1,179,0.836766004562378,cat,bicycle,32-0-10,0179_eid_s03_32-0-10_bicycle_10_n03792782_6159.png
subject-03,1,180,1.29883098602295,bottle,bottle,128-0-10,0180_eid_s03_128-0-10_bottle_10_n04579145_1168.png
subject-03,1,181,1.0084969997406,chair,bottle,64-0-10,0181_eid_s03_64-0-10_bottle_10_n04591713_2732.png
subject-03,1,182,0.658128023147583,oven,oven,4-0-10,0182_eid_s03_4-0-10_oven_10_n04111531_1128.png
subject-03,1,183,0.800319910049438,keyboard,keyboard,8-0-10,0183_eid_s03_8-0-10_keyboard_10_n03085013_20996.png
subject-03,1,184,0.865947961807251,cat,car,64-0-10,0184_eid_s03_64-0-10_car_10_n02814533_4803.png
subject-03,1,185,0.709557056427002,cat,bicycle,64-0-10,0185_eid_s03_64-0-10_bicycle_10_n03792782_41097.png
subject-03,1,186,0.895500183105469,keyboard,keyboard,2-0-10,0186_eid_s03_2-0-10_keyboard_10_n03085013_23554.png
subject-03,1,187,0.543084144592285,cat,elephant,16-0-10,0187_eid_s03_16-0-10_elephant_10_n02504458_5155.png
subject-03,1,188,1.30303978919983,oven,chair,4-0-10,0188_eid_s03_4-0-10_chair_10_n02791124_15606.png
subject-03,1,189,0.928867101669312,bird,bird,4-0-10,0189_eid_s03_4-0-10_bird_10_n01592084_9109.png
subject-03,1,190,1.2107629776001,boat,car,32-0-10,0190_eid_s03_32-0-10_car_10_n03100240_4605.png
subject-03,1,191,0.992601871490479,oven,bear,16-0-10,0191_eid_s03_16-0-10_bear_10_n02132136_1858.png
subject-03,1,192,1.37432312965393,cat,dog,2-0-10,0192_eid_s03_2-0-10_dog_10_n02107908_5222.png
subject-03,1,193,1.35610508918762,bear,clock,32-0-10,0193_eid_s03_32-0-10_clock_10_n03196217_4849.png
subject-03,1,194,0.658000946044922,cat,cat,1-0-10,0194_eid_s03_1-0-10_cat_10_n02123394_6693.png
subject-03,1,195,0.721589088439941,airplane,airplane,4-0-10,0195_eid_s03_4-0-10_airplane_10_n02690373_5142.png
subject-03,1,196,0.745834112167358,boat,boat,2-0-10,0196_eid_s03_2-0-10_boat_10_n02951358_4363.png
subject-03,1,197,0.635583877563477,car,car,2-0-10,0197_eid_s03_2-0-10_car_10_n03100240_8794.png
subject-03,1,198,1.49999809265137,chair,bottle,1-0-10,0198_eid_s03_1-0-10_bottle_10_n02823428_685.png
subject-03,1,199,0.760942935943604,keyboard,keyboard,1-0-10,0199_eid_s03_1-0-10_keyboard_10_n04505470_5561.png
subject-03,1,200,1.06875395774841,bear,bear,8-0-10,0200_eid_s03_8-0-10_bear_10_n02134418_1906.png
subject-03,1,201,0.986552953720093,truck,truck,1-0-10,0201_eid_s03_1-0-10_truck_10_n03417042_2204.png
subject-03,1,202,1.21040916442871,cat,dog,16-0-10,0202_eid_s03_16-0-10_dog_10_n02106030_19249.png
subject-03,1,203,0.768089056015015,cat,boat,16-0-10,0203_eid_s03_16-0-10_boat_10_n04273569_3896.png
subject-03,1,204,1.23034286499023,oven,bear,32-0-10,0204_eid_s03_32-0-10_bear_10_n02133161_15561.png
subject-03,1,205,1.45186400413513,airplane,chair,2-0-10,0205_eid_s03_2-0-10_chair_10_n02791124_7063.png
subject-03,1,206,1.27565383911133,oven,boat,32-0-10,0206_eid_s03_32-0-10_boat_10_n04273569_3313.png
subject-03,1,207,0.781275987625122,cat,truck,32-0-10,0207_eid_s03_32-0-10_truck_10_n04467665_9833.png
subject-03,1,208,0.657149076461792,boat,boat,4-0-10,0208_eid_s03_4-0-10_boat_10_n02951358_2330.png
subject-03,1,209,NaN,na,elephant,2-0-10,0209_eid_s03_2-0-10_elephant_10_n02504013_9299.png
subject-03,1,210,0.774938106536865,oven,bear,32-0-10,0210_eid_s03_32-0-10_bear_10_n02132136_13078.png
subject-03,1,211,1.14070391654968,bottle,bottle,2-0-10,0211_eid_s03_2-0-10_bottle_10_n04557648_21449.png
subject-03,1,212,0.894428968429565,cat,truck,32-0-10,0212_eid_s03_32-0-10_truck_10_n03417042_6033.png
subject-03,1,213,0.95241904258728,cat,bicycle,32-0-10,0213_eid_s03_32-0-10_bicycle_10_n02835271_3535.png
subject-03,1,214,0.650017023086548,boat,boat,2-0-10,0214_eid_s03_2-0-10_boat_10_n04612504_3152.png
subject-03,1,215,0.631834983825684,cat,bicycle,128-0-10,0215_eid_s03_128-0-10_bicycle_10_n03792782_10367.png
subject-03,1,216,1.34166193008423,bear,truck,32-0-10,0216_eid_s03_32-0-10_truck_10_n03796401_6971.png
subject-03,1,217,0.68390417098999,airplane,airplane,2-0-10,0217_eid_s03_2-0-10_airplane_10_n02690373_9673.png
subject-03,1,218,1.25553297996521,clock,keyboard,32-0-10,0218_eid_s03_32-0-10_keyboard_10_n04505470_2326.png
subject-03,1,219,0.84716796875,cat,knife,64-0-10,0219_eid_s03_64-0-10_knife_10_n03041632_92063.png
subject-03,1,220,1.50002694129944,keyboard,knife,2-0-10,0220_eid_s03_2-0-10_knife_10_n03041632_90125.png
subject-03,1,221,1.37876915931702,elephant,clock,16-0-10,0221_eid_s03_16-0-10_clock_10_n03196217_1601.png
subject-03,1,222,0.68049693107605,cat,cat,16-0-10,0222_eid_s03_16-0-10_cat_10_n02123045_20507.png
subject-03,1,223,0.706477880477905,cat,car,32-0-10,0223_eid_s03_32-0-10_car_10_n02814533_58462.png
subject-03,1,224,0.530014038085938,cat,chair,64-0-10,0224_eid_s03_64-0-10_chair_10_n03376595_989.png
subject-03,1,225,0.864052057266235,keyboard,keyboard,4-0-10,0225_eid_s03_4-0-10_keyboard_10_n04505470_4552.png
subject-03,1,226,0.957860946655273,oven,keyboard,1-0-10,0226_eid_s03_1-0-10_keyboard_10_n03085013_20416.png
subject-03,1,227,1.14987707138062,bird,bird,16-0-10,0227_eid_s03_16-0-10_bird_10_n01829413_1007.png
subject-03,1,228,0.881277084350586,boat,truck,4-0-10,0228_eid_s03_4-0-10_truck_10_n04467665_68250.png
subject-03,1,229,0.959189891815186,bird,dog,1-0-10,0229_eid_s03_1-0-10_dog_10_n02104365_179.png
subject-03,1,230,0.887498140335083,truck,truck,4-0-10,0230_eid_s03_4-0-10_truck_10_n03796401_1791.png
subject-03,1,231,1.39285206794739,chair,oven,32-0-10,0231_eid_s03_32-0-10_oven_10_n04111531_9613.png
subject-03,1,232,0.900636911392212,cat,bottle,16-0-10,0232_eid_s03_16-0-10_bottle_10_n03983396_5281.png
subject-03,1,233,1.2368438243866,boat,truck,8-0-10,0233_eid_s03_8-0-10_truck_10_n04467665_45306.png
subject-03,1,234,1.1483199596405,elephant,elephant,2-0-10,0234_eid_s03_2-0-10_elephant_10_n02504013_7926.png
subject-03,1,235,1.08407402038574,cat,car,64-0-10,0235_eid_s03_64-0-10_car_10_n02814533_17956.png
subject-03,1,236,1.10214185714722,dog,bicycle,32-0-10,0236_eid_s03_32-0-10_bicycle_10_n02835271_15524.png
subject-03,1,237,1.38398385047913,boat,chair,16-0-10,0237_eid_s03_16-0-10_chair_10_n02791124_957.png
subject-03,1,238,1.26750802993774,boat,oven,128-0-10,0238_eid_s03_128-0-10_oven_10_n04111531_10724.png
subject-03,1,239,1.02585196495056,bird,boat,64-0-10,0239_eid_s03_64-0-10_boat_10_n03344393_4562.png
subject-03,1,240,1.2814781665802,oven,truck,4-0-10,0240_eid_s03_4-0-10_truck_10_n03417042_6241.png
subject-03,1,241,0.742143154144287,cat,cat,1-0-10,0241_eid_s03_1-0-10_cat_10_n02124075_12622.png
subject-03,1,242,0.87984299659729,cat,bird,32-0-10,0242_eid_s03_32-0-10_bird_10_n01796340_24254.png
subject-03,1,243,0.879879951477051,chair,chair,2-0-10,0243_eid_s03_2-0-10_chair_10_n03376595_3043.png
subject-03,1,244,1.50004601478577,dog,bicycle,8-0-10,0244_eid_s03_8-0-10_bicycle_10_n02835271_976.png
subject-03,1,245,1.47929406166077,bear,dog,32-0-10,0245_eid_s03_32-0-10_dog_10_n02096051_2151.png
subject-03,1,246,0.945217132568359,car,car,1-0-10,0246_eid_s03_1-0-10_car_10_n03100240_16646.png
subject-03,1,247,1.42296981811523,boat,oven,4-0-10,0247_eid_s03_4-0-10_oven_10_n04111531_2186.png
subject-03,1,248,0.83063006401062,cat,elephant,8-0-10,0248_eid_s03_8-0-10_elephant_10_n02504458_10264.png
subject-03,1,249,1.50011706352234,bird,knife,16-0-10,0249_eid_s03_16-0-10_knife_10_n03041632_102828.png
subject-03,1,250,0.9863600730896,knife,clock,4-0-10,0250_eid_s03_4-0-10_clock_10_n04548280_28.png
subject-03,1,251,1.03209400177002,elephant,cat,128-0-10,0251_eid_s03_128-0-10_cat_10_n02123394_6014.png
subject-03,1,252,1.49999499320984,bottle,bottle,64-0-10,0252_eid_s03_64-0-10_bottle_10_n04591713_7940.png
subject-03,1,253,0.745867967605591,cat,chair,32-0-10,0253_eid_s03_32-0-10_chair_10_n04099969_24666.png
subject-03,1,254,0.73783016204834,knife,knife,1-0-10,0254_eid_s03_1-0-10_knife_10_n03041632_11327.png
subject-03,1,255,1.45946407318115,bird,car,128-0-10,0255_eid_s03_128-0-10_car_10_n04285008_13702.png
subject-03,1,256,1.50003886222839,cat,oven,64-0-10,0256_eid_s03_64-0-10_oven_10_n04111531_13797.png
subject-03,1,257,NaN,na,oven,16-0-10,0257_eid_s03_16-0-10_oven_10_n04111531_2937.png
subject-03,1,258,1.39301300048828,bear,bottle,16-0-10,0258_eid_s03_16-0-10_bottle_10_n03983396_11597.png
subject-03,1,259,0.934552907943726,dog,bird,16-0-10,0259_eid_s03_16-0-10_bird_10_n01795545_13849.png
subject-03,1,260,0.984823226928711,dog,dog,4-0-10,0260_eid_s03_4-0-10_dog_10_n02101556_9675.png
subject-03,1,261,0.978259086608887,boat,boat,8-0-10,0261_eid_s03_8-0-10_boat_10_n04273569_694.png
subject-03,1,262,0.598005056381226,clock,clock,2-0-10,0262_eid_s03_2-0-10_clock_10_n04548280_299.png
subject-03,1,263,1.13200688362122,bird,bird,16-0-10,0263_eid_s03_16-0-10_bird_10_n02056570_6633.png
subject-03,1,264,1.00185585021973,bird,chair,32-0-10,0264_eid_s03_32-0-10_chair_10_n02791124_624.png
subject-03,1,265,0.869558811187744,cat,bottle,8-0-10,0265_eid_s03_8-0-10_bottle_10_n04560804_32775.png
subject-03,1,266,0.575444936752319,clock,clock,1-0-10,0266_eid_s03_1-0-10_clock_10_n04548280_16233.png
subject-03,1,267,1.4756031036377,cat,cat,8-0-10,0267_eid_s03_8-0-10_cat_10_n02123045_12181.png
subject-03,1,268,1.48094582557678,oven,truck,8-0-10,0268_eid_s03_8-0-10_truck_10_n03417042_14381.png
subject-03,1,269,1.2848379611969,elephant,boat,128-0-10,0269_eid_s03_128-0-10_boat_10_n04273569_2396.png
subject-03,1,270,0.816640138626099,bottle,bottle,2-0-10,0270_eid_s03_2-0-10_bottle_10_n04591713_2123.png
subject-03,1,271,1.49999499320984,oven,elephant,128-0-10,0271_eid_s03_128-0-10_elephant_10_n02504458_964.png
subject-03,1,272,1.49999904632568,car,car,2-0-10,0272_eid_s03_2-0-10_car_10_n02814533_20712.png
subject-03,1,273,NaN,na,bottle,8-0-10,0273_eid_s03_8-0-10_bottle_10_n03983396_5828.png
subject-03,1,274,1.19439101219177,cat,cat,2-0-10,0274_eid_s03_2-0-10_cat_10_n02123045_4009.png
subject-03,1,275,1.50007295608521,oven,boat,128-0-10,0275_eid_s03_128-0-10_boat_10_n03344393_1573.png
subject-03,1,276,1.37349200248718,clock,bottle,16-0-10,0276_eid_s03_16-0-10_bottle_10_n04560804_183.png
subject-03,1,277,1.50000405311584,elephant,bird,32-0-10,0277_eid_s03_32-0-10_bird_10_n01820546_1135.png
subject-03,1,278,1.29313898086548,dog,truck,128-0-10,0278_eid_s03_128-0-10_truck_10_n03417042_28773.png
subject-03,1,279,1.32714891433716,bottle,boat,32-0-10,0279_eid_s03_32-0-10_boat_10_n03662601_8360.png
subject-03,1,280,1.3307089805603,dog,car,8-0-10,0280_eid_s03_8-0-10_car_10_n02814533_79696.png
subject-03,1,281,1.49999618530273,bear,truck,1-0-10,0281_eid_s03_1-0-10_truck_10_n04467665_70880.png
subject-03,1,282,NaN,na,bicycle,1-0-10,0282_eid_s03_1-0-10_bicycle_10_n03792782_4544.png
subject-03,1,283,0.750034093856812,bird,bird,2-0-10,0283_eid_s03_2-0-10_bird_10_n01855672_1001.png
subject-03,1,284,0.729907989501953,boat,clock,1-0-10,0284_eid_s03_1-0-10_clock_10_n03196217_2022.png
subject-03,1,285,0.617892980575562,clock,clock,1-0-10,0285_eid_s03_1-0-10_clock_10_n02708093_4267.png
subject-03,1,286,0.775436878204346,airplane,airplane,4-0-10,0286_eid_s03_4-0-10_airplane_10_n02690373_4434.png
subject-03,1,287,1.50007700920105,boat,elephant,2-0-10,0287_eid_s03_2-0-10_elephant_10_n02504013_10152.png
subject-03,1,288,0.719423055648804,airplane,airplane,4-0-10,0288_eid_s03_4-0-10_airplane_10_n02690373_8214.png
subject-03,1,289,0.923105955123901,airplane,airplane,4-0-10,0289_eid_s03_4-0-10_airplane_10_n02690373_5164.png
subject-03,1,290,0.624958992004395,cat,keyboard,16-0-10,0290_eid_s03_16-0-10_keyboard_10_n04505470_1833.png
subject-03,1,291,NaN,na,dog,8-0-10,0291_eid_s03_8-0-10_dog_10_n02098105_865.png
subject-03,1,292,0.754585027694702,bear,cat,32-0-10,0292_eid_s03_32-0-10_cat_10_n02123045_7764.png
subject-03,1,293,0.668694019317627,boat,boat,4-0-10,0293_eid_s03_4-0-10_boat_10_n04273569_16362.png
subject-03,1,294,0.740110158920288,oven,bottle,32-0-10,0294_eid_s03_32-0-10_bottle_10_n02823428_4232.png
subject-03,1,295,0.891963005065918,boat,airplane,4-0-10,0295_eid_s03_4-0-10_airplane_10_n02690373_6429.png
subject-03,1,296,0.713793039321899,bear,bear,2-0-10,0296_eid_s03_2-0-10_bear_10_n02133161_15593.png
subject-03,1,297,0.751489162445068,bear,clock,64-0-10,0297_eid_s03_64-0-10_clock_10_n02708093_6816.png
subject-03,1,298,1.21527409553528,chair,knife,2-0-10,0298_eid_s03_2-0-10_knife_10_n03041632_84240.png
subject-03,1,299,0.897080898284912,bottle,bottle,4-0-10,0299_eid_s03_4-0-10_bottle_10_n03937543_5215.png
subject-03,1,300,1.24893689155579,elephant,dog,64-0-10,0300_eid_s03_64-0-10_dog_10_n02110063_12166.png
subject-03,1,301,0.650604009628296,keyboard,keyboard,1-0-10,0301_eid_s03_1-0-10_keyboard_10_n04505470_10697.png
subject-03,1,302,0.738949060440063,oven,knife,8-0-10,0302_eid_s03_8-0-10_knife_10_n03041632_105581.png
subject-03,1,303,1.32641005516052,bird,bear,128-0-10,0303_eid_s03_128-0-10_bear_10_n02132136_4219.png
subject-03,1,304,0.974220991134644,truck,truck,1-0-10,0304_eid_s03_1-0-10_truck_10_n04467665_54079.png
subject-03,1,305,1.08394598960876,dog,clock,32-0-10,0305_eid_s03_32-0-10_clock_10_n02708093_3360.png
subject-03,1,306,0.8001389503479,bottle,chair,4-0-10,0306_eid_s03_4-0-10_chair_10_n04429376_9517.png
subject-03,1,307,1.01959919929504,truck,bicycle,8-0-10,0307_eid_s03_8-0-10_bicycle_10_n02835271_25268.png
subject-03,1,308,1.23942303657532,truck,airplane,32-0-10,0308_eid_s03_32-0-10_airplane_10_n02690373_4150.png
subject-03,1,309,1.22967886924744,dog,dog,2-0-10,0309_eid_s03_2-0-10_dog_10_n02089078_10601.png
subject-03,1,310,0.806989908218384,cat,cat,4-0-10,0310_eid_s03_4-0-10_cat_10_n02123159_1113.png
subject-03,1,311,1.08697915077209,bird,boat,16-0-10,0311_eid_s03_16-0-10_boat_10_n03344393_2381.png
subject-03,1,312,0.908557891845703,cat,bottle,128-0-10,0312_eid_s03_128-0-10_bottle_10_n03983396_4540.png
subject-03,1,313,1.180508852005,bear,chair,128-0-10,0313_eid_s03_128-0-10_chair_10_n04099969_2472.png
subject-03,1,314,1.45441508293152,chair,chair,1-0-10,0314_eid_s03_1-0-10_chair_10_n04099969_10825.png
subject-03,1,315,0.838580846786499,cat,knife,64-0-10,0315_eid_s03_64-0-10_knife_10_n03041632_2973.png
subject-03,1,316,1.33998489379883,elephant,bicycle,32-0-10,0316_eid_s03_32-0-10_bicycle_10_n03792782_5517.png
subject-03,1,317,0.883886098861694,cat,bear,16-0-10,0317_eid_s03_16-0-10_bear_10_n02134418_244.png
subject-03,1,318,0.781537055969238,bird,bird,2-0-10,0318_eid_s03_2-0-10_bird_10_n01820546_4609.png
subject-03,1,319,0.761253833770752,bird,bird,1-0-10,0319_eid_s03_1-0-10_bird_10_n01614925_7662.png
subject-03,1,320,0.645133018493652,airplane,airplane,2-0-10,0320_eid_s03_2-0-10_airplane_10_n02690373_1706.png
subject-03,1,321,0.794046878814697,chair,chair,2-0-10,0321_eid_s03_2-0-10_chair_10_n04429376_20941.png
subject-03,1,322,1.15388607978821,boat,airplane,16-0-10,0322_eid_s03_16-0-10_airplane_10_n02690373_4486.png
subject-03,1,323,1.50012302398682,cat,truck,64-0-10,0323_eid_s03_64-0-10_truck_10_n03417042_7621.png
subject-03,1,324,0.847692012786865,bottle,bottle,1-0-10,0324_eid_s03_1-0-10_bottle_10_n03983396_12916.png
subject-03,1,325,1.10774993896484,oven,oven,2-0-10,0325_eid_s03_2-0-10_oven_10_n04111531_10011.png
subject-03,1,326,1.18561315536499,bird,car,16-0-10,0326_eid_s03_16-0-10_car_10_n03100240_24544.png
subject-03,1,327,0.803245067596436,airplane,airplane,1-0-10,0327_eid_s03_1-0-10_airplane_10_n02690373_3119.png
subject-03,1,328,1.48264408111572,clock,cat,32-0-10,0328_eid_s03_32-0-10_cat_10_n02123394_2814.png
subject-03,1,329,0.940919876098633,bear,truck,16-0-10,0329_eid_s03_16-0-10_truck_10_n03417042_4288.png
subject-03,1,330,0.856462955474854,cat,keyboard,16-0-10,0330_eid_s03_16-0-10_keyboard_10_n03085013_24618.png
subject-03,1,331,1.37012410163879,cat,elephant,16-0-10,0331_eid_s03_16-0-10_elephant_10_n02504458_1327.png
subject-03,1,332,1.19215679168701,oven,clock,128-0-10,0332_eid_s03_128-0-10_clock_10_n04548280_6811.png
subject-03,1,333,0.885729789733887,bird,truck,8-0-10,0333_eid_s03_8-0-10_truck_10_n03417042_18743.png
subject-03,1,334,0.961728096008301,cat,car,64-0-10,0334_eid_s03_64-0-10_car_10_n03100240_18410.png
subject-03,1,335,1.44146609306335,elephant,bottle,128-0-10,0335_eid_s03_128-0-10_bottle_10_n03983396_2959.png
subject-03,1,336,1.16135716438293,dog,bird,32-0-10,0336_eid_s03_32-0-10_bird_10_n02028035_2219.png
subject-03,1,337,0.769429922103882,cat,dog,64-0-10,0337_eid_s03_64-0-10_dog_10_n02088238_2973.png
subject-03,1,338,1.07873511314392,elephant,car,64-0-10,0338_eid_s03_64-0-10_car_10_n02814533_6716.png
subject-03,1,339,0.796722888946533,bird,bird,1-0-10,0339_eid_s03_1-0-10_bird_10_n01622779_5148.png
subject-03,1,340,0.872464895248413,bear,boat,128-0-10,0340_eid_s03_128-0-10_boat_10_n04273569_9306.png
subject-03,1,341,1.03628993034363,knife,knife,4-0-10,0341_eid_s03_4-0-10_knife_10_n03041632_1607.png
subject-03,1,342,1.36402797698975,chair,oven,2-0-10,0342_eid_s03_2-0-10_oven_10_n04111531_21382.png
subject-03,1,343,0.952087163925171,keyboard,oven,4-0-10,0343_eid_s03_4-0-10_oven_10_n04111531_73.png
subject-03,1,344,1.10364890098572,clock,bicycle,32-0-10,0344_eid_s03_32-0-10_bicycle_10_n02835271_507.png
subject-03,1,345,NaN,na,elephant,1-0-10,0345_eid_s03_1-0-10_elephant_10_n02504458_4248.png
subject-03,1,346,0.847540140151978,oven,cat,8-0-10,0346_eid_s03_8-0-10_cat_10_n02123597_22140.png
subject-03,1,347,1.13935089111328,dog,cat,64-0-10,0347_eid_s03_64-0-10_cat_10_n02124075_12464.png
subject-03,1,348,1.14906096458435,truck,truck,2-0-10,0348_eid_s03_2-0-10_truck_10_n04467665_32276.png
subject-03,1,349,0.662944078445435,cat,boat,16-0-10,0349_eid_s03_16-0-10_boat_10_n04612504_550.png
subject-03,1,350,1.04870200157166,bird,cat,16-0-10,0350_eid_s03_16-0-10_cat_10_n02123597_7069.png
subject-03,1,351,0.900406122207642,oven,bird,1-0-10,0351_eid_s03_1-0-10_bird_10_n01824575_10046.png
subject-03,1,352,0.918155193328857,airplane,bird,4-0-10,0352_eid_s03_4-0-10_bird_10_n02006656_713.png
subject-03,1,353,1.0901620388031,oven,bear,32-0-10,0353_eid_s03_32-0-10_bear_10_n02133161_1480.png
subject-03,1,354,1.23204016685486,boat,car,32-0-10,0354_eid_s03_32-0-10_car_10_n04285008_13267.png
subject-03,1,355,1.50013399124146,knife,bottle,8-0-10,0355_eid_s03_8-0-10_bottle_10_n04591713_807.png
subject-03,1,356,1.16968703269958,truck,truck,1-0-10,0356_eid_s03_1-0-10_truck_10_n03417042_22395.png
subject-03,1,357,1.31334614753723,boat,bear,128-0-10,0357_eid_s03_128-0-10_bear_10_n02134418_896.png
subject-03,1,358,0.807265996932983,airplane,bird,4-0-10,0358_eid_s03_4-0-10_bird_10_n02033041_7196.png
subject-03,1,359,1.43089008331299,bottle,bottle,2-0-10,0359_eid_s03_2-0-10_bottle_10_n04579145_2346.png
subject-03,1,360,0.808660984039307,boat,bird,8-0-10,0360_eid_s03_8-0-10_bird_10_n02013706_406.png
subject-03,1,361,1.47461795806885,elephant,bird,64-0-10,0361_eid_s03_64-0-10_bird_10_n01824575_5820.png
subject-03,1,362,1.13226795196533,elephant,bear,32-0-10,0362_eid_s03_32-0-10_bear_10_n02134418_2633.png
subject-03,1,363,0.662289142608643,clock,clock,4-0-10,0363_eid_s03_4-0-10_clock_10_n02708093_564.png
subject-03,1,364,0.968039989471436,bicycle,bird,128-0-10,0364_eid_s03_128-0-10_bird_10_n02051845_2316.png
subject-03,1,365,1.37805700302124,bear,keyboard,32-0-10,0365_eid_s03_32-0-10_keyboard_10_n04505470_4922.png
subject-03,1,366,0.879761934280396,elephant,elephant,1-0-10,0366_eid_s03_1-0-10_elephant_10_n02504458_3851.png
subject-03,1,367,0.831387996673584,bicycle,bicycle,4-0-10,0367_eid_s03_4-0-10_bicycle_10_n03792782_30530.png
subject-03,1,368,0.903218984603882,elephant,elephant,1-0-10,0368_eid_s03_1-0-10_elephant_10_n02504458_415.png
subject-03,1,369,0.737236976623535,chair,chair,4-0-10,0369_eid_s03_4-0-10_chair_10_n03376595_6333.png
subject-03,1,370,0.902915954589844,bottle,chair,16-0-10,0370_eid_s03_16-0-10_chair_10_n04099969_16270.png
subject-03,1,371,1.50007319450378,cat,bottle,32-0-10,0371_eid_s03_32-0-10_bottle_10_n03937543_2652.png
subject-03,1,372,0.764947891235352,knife,knife,2-0-10,0372_eid_s03_2-0-10_knife_10_n03041632_31301.png
subject-03,1,373,0.680628061294556,cat,bicycle,8-0-10,0373_eid_s03_8-0-10_bicycle_10_n03792782_34550.png
subject-03,1,374,1.11848402023315,boat,keyboard,16-0-10,0374_eid_s03_16-0-10_keyboard_10_n03085013_25675.png
subject-03,1,375,1.50010395050049,truck,knife,128-0-10,0375_eid_s03_128-0-10_knife_10_n03041632_9406.png
subject-03,1,376,1.01772117614746,dog,dog,2-0-10,0376_eid_s03_2-0-10_dog_10_n02108422_6951.png
subject-03,1,377,1.05964088439941,cat,airplane,16-0-10,0377_eid_s03_16-0-10_airplane_10_n02690373_17044.png
subject-03,1,378,0.823299169540405,bird,bird,1-0-10,0378_eid_s03_1-0-10_bird_10_n02006656_9134.png
subject-03,1,379,0.979543924331665,elephant,boat,64-0-10,0379_eid_s03_64-0-10_boat_10_n03662601_13696.png
subject-03,1,380,0.878996849060059,truck,truck,2-0-10,0380_eid_s03_2-0-10_truck_10_n04467665_51267.png
subject-03,1,381,1.14689302444458,cat,cat,8-0-10,0381_eid_s03_8-0-10_cat_10_n02123394_1726.png
subject-03,1,382,0.799030780792236,airplane,airplane,1-0-10,0382_eid_s03_1-0-10_airplane_10_n02690373_7355.png
subject-03,1,383,1.13245987892151,cat,oven,1-0-10,0383_eid_s03_1-0-10_oven_10_n04111531_3121.png
subject-03,1,384,0.858155965805054,oven,elephant,4-0-10,0384_eid_s03_4-0-10_elephant_10_n02504458_5995.png
subject-03,1,385,0.901993036270142,oven,truck,16-0-10,0385_eid_s03_16-0-10_truck_10_n04467665_2695.png
subject-03,1,386,1.49173092842102,bottle,car,16-0-10,0386_eid_s03_16-0-10_car_10_n03100240_5281.png
subject-03,1,387,1.07985186576843,oven,oven,1-0-10,0387_eid_s03_1-0-10_oven_10_n04111531_8984.png
subject-03,1,388,0.477598905563354,cat,cat,4-0-10,0388_eid_s03_4-0-10_cat_10_n02124075_8465.png
subject-03,1,389,1.33944416046143,cat,keyboard,8-0-10,0389_eid_s03_8-0-10_keyboard_10_n03085013_25066.png
subject-03,1,390,0.961271047592163,dog,knife,128-0-10,0390_eid_s03_128-0-10_knife_10_n03041632_22738.png
subject-03,1,391,1.50009202957153,bear,bottle,32-0-10,0391_eid_s03_32-0-10_bottle_10_n04591713_5921.png
subject-03,1,392,1.16664099693298,oven,bicycle,16-0-10,0392_eid_s03_16-0-10_bicycle_10_n03792782_2905.png
subject-03,1,393,1.04677104949951,bird,boat,32-0-10,0393_eid_s03_32-0-10_boat_10_n04612504_125.png
subject-03,1,394,1.35461711883545,bird,chair,8-0-10,0394_eid_s03_8-0-10_chair_10_n02791124_1704.png
subject-03,1,395,1.18421292304993,bird,elephant,32-0-10,0395_eid_s03_32-0-10_elephant_10_n02504458_62.png
subject-03,1,396,1.04428100585938,bird,keyboard,32-0-10,0396_eid_s03_32-0-10_keyboard_10_n03085013_24316.png
subject-03,1,397,0.867730140686035,cat,keyboard,64-0-10,0397_eid_s03_64-0-10_keyboard_10_n04505470_9113.png
subject-03,1,398,0.681787967681885,cat,elephant,2-0-10,0398_eid_s03_2-0-10_elephant_10_n02504458_1628.png
subject-03,1,399,1.16131186485291,bicycle,bicycle,4-0-10,0399_eid_s03_4-0-10_bicycle_10_n02835271_18537.png
subject-03,1,400,1.05951118469238,keyboard,dog,128-0-10,0400_eid_s03_128-0-10_dog_10_n02093991_196.png
subject-03,1,401,1.14102911949158,oven,knife,8-0-10,0401_eid_s03_8-0-10_knife_10_n03041632_36789.png
subject-03,1,402,1.12057495117188,chair,chair,2-0-10,0402_eid_s03_2-0-10_chair_10_n02791124_17035.png
subject-03,1,403,0.824448108673096,bird,car,16-0-10,0403_eid_s03_16-0-10_car_10_n04285008_6325.png
subject-03,1,404,1.14617991447449,cat,oven,16-0-10,0404_eid_s03_16-0-10_oven_10_n04111531_2650.png
subject-03,1,405,1.1681010723114,clock,clock,4-0-10,0405_eid_s03_4-0-10_clock_10_n04548280_4557.png
subject-03,1,406,1.01974415779114,car,oven,1-0-10,0406_eid_s03_1-0-10_oven_10_n04111531_4250.png
subject-03,1,407,1.48553395271301,dog,truck,32-0-10,0407_eid_s03_32-0-10_truck_10_n03417042_3862.png
subject-03,1,408,1.40333294868469,bird,bicycle,8-0-10,0408_eid_s03_8-0-10_bicycle_10_n02835271_3642.png
subject-03,1,409,0.976966857910156,cat,keyboard,128-0-10,0409_eid_s03_128-0-10_keyboard_10_n04505470_4289.png
subject-03,1,410,1.35313701629639,elephant,keyboard,32-0-10,0410_eid_s03_32-0-10_keyboard_10_n04505470_4780.png
subject-03,1,411,0.765070915222168,cat,dog,8-0-10,0411_eid_s03_8-0-10_dog_10_n02106382_3856.png
subject-03,1,412,1.04663896560669,bird,elephant,8-0-10,0412_eid_s03_8-0-10_elephant_10_n02504013_3181.png
subject-03,1,413,1.37651705741882,bicycle,bicycle,1-0-10,0413_eid_s03_1-0-10_bicycle_10_n03792782_12074.png
subject-03,1,414,0.920140027999878,bear,bicycle,16-0-10,0414_eid_s03_16-0-10_bicycle_10_n03792782_4895.png
subject-03,1,415,1.44608592987061,knife,boat,8-0-10,0415_eid_s03_8-0-10_boat_10_n02951358_15422.png
subject-03,1,416,1.11375284194946,keyboard,keyboard,8-0-10,0416_eid_s03_8-0-10_keyboard_10_n04505470_2869.png
subject-03,1,417,0.905879974365234,airplane,airplane,2-0-10,0417_eid_s03_2-0-10_airplane_10_n02690373_6002.png
subject-03,1,418,0.875483989715576,car,car,1-0-10,0418_eid_s03_1-0-10_car_10_n02814533_57353.png
subject-03,1,419,NaN,na,bottle,16-0-10,0419_eid_s03_16-0-10_bottle_10_n04560804_30659.png
subject-03,1,420,0.997154951095581,bird,oven,64-0-10,0420_eid_s03_64-0-10_oven_10_n04111531_9210.png
subject-03,1,421,1.07889890670776,bird,knife,64-0-10,0421_eid_s03_64-0-10_knife_10_n03041632_55711.png
subject-03,1,422,0.730670928955078,oven,truck,16-0-10,0422_eid_s03_16-0-10_truck_10_n03417042_4157.png
subject-03,1,423,1.14053988456726,clock,car,1-0-10,0423_eid_s03_1-0-10_car_10_n04285008_1243.png
subject-03,1,424,0.742334127426147,airplane,airplane,1-0-10,0424_eid_s03_1-0-10_airplane_10_n02690373_8592.png
subject-03,1,425,0.720117092132568,car,car,4-0-10,0425_eid_s03_4-0-10_car_10_n02814533_11273.png
subject-03,1,426,1.29182195663452,dog,oven,2-0-10,0426_eid_s03_2-0-10_oven_10_n04111531_1662.png
subject-03,1,427,1.04788899421692,bird,car,64-0-10,0427_eid_s03_64-0-10_car_10_n04285008_12580.png
subject-03,1,428,1.49999499320984,airplane,car,16-0-10,0428_eid_s03_16-0-10_car_10_n03100240_16803.png
subject-03,1,429,1.21535205841064,boat,bicycle,128-0-10,0429_eid_s03_128-0-10_bicycle_10_n02835271_9944.png
subject-03,1,430,0.727303981781006,clock,clock,8-0-10,0430_eid_s03_8-0-10_clock_10_n04548280_6463.png
subject-03,1,431,1.04884386062622,truck,truck,2-0-10,0431_eid_s03_2-0-10_truck_10_n04467665_41352.png
subject-03,1,432,0.724876165390015,airplane,airplane,1-0-10,0432_eid_s03_1-0-10_airplane_10_n02690373_4136.png
subject-03,1,433,1.50004100799561,bird,dog,32-0-10,0433_eid_s03_32-0-10_dog_10_n02093754_6351.png
subject-03,1,434,0.744552135467529,cat,cat,1-0-10,0434_eid_s03_1-0-10_cat_10_n02123045_13545.png
subject-03,1,435,0.986408948898315,knife,knife,8-0-10,0435_eid_s03_8-0-10_knife_10_n03041632_3504.png
subject-03,1,436,0.725897789001465,car,car,4-0-10,0436_eid_s03_4-0-10_car_10_n02814533_245.png
subject-03,1,437,1.17596101760864,bicycle,bicycle,1-0-10,0437_eid_s03_1-0-10_bicycle_10_n02835271_17357.png
subject-03,1,438,0.600112199783325,cat,bicycle,8-0-10,0438_eid_s03_8-0-10_bicycle_10_n03792782_66771.png
subject-03,1,439,0.715504169464111,cat,airplane,32-0-10,0439_eid_s03_32-0-10_airplane_10_n02690373_18845.png
subject-03,1,440,1.33519506454468,elephant,oven,4-0-10,0440_eid_s03_4-0-10_oven_10_n04111531_8046.png
subject-03,1,441,1.47693514823914,bird,bear,64-0-10,0441_eid_s03_64-0-10_bear_10_n02133161_15981.png
subject-03,1,442,NaN,na,airplane,4-0-10,0442_eid_s03_4-0-10_airplane_10_n02690373_9175.png
subject-03,1,443,0.68281102180481,cat,bottle,16-0-10,0443_eid_s03_16-0-10_bottle_10_n03937543_2329.png
subject-03,1,444,0.878401041030884,cat,oven,64-0-10,0444_eid_s03_64-0-10_oven_10_n04111531_21855.png
subject-03,1,445,0.958509922027588,bottle,bottle,1-0-10,0445_eid_s03_1-0-10_bottle_10_n04560804_6112.png
subject-03,1,446,0.940067052841187,knife,knife,1-0-10,0446_eid_s03_1-0-10_knife_10_n03041632_44230.png
subject-03,1,447,1.50006413459778,oven,chair,16-0-10,0447_eid_s03_16-0-10_chair_10_n03376595_262.png
subject-03,1,448,1.35983800888062,boat,bottle,128-0-10,0448_eid_s03_128-0-10_bottle_10_n04560804_16276.png
subject-03,1,449,0.969632148742676,car,car,4-0-10,0449_eid_s03_4-0-10_car_10_n02814533_27327.png
subject-03,1,450,1.38562798500061,oven,chair,128-0-10,0450_eid_s03_128-0-10_chair_10_n03376595_8196.png
subject-03,1,451,0.813108921051025,keyboard,keyboard,2-0-10,0451_eid_s03_2-0-10_keyboard_10_n03085013_7536.png
subject-03,1,452,1.48753094673157,car,cat,1-0-10,0452_eid_s03_1-0-10_cat_10_n02123394_8695.png
subject-03,1,453,1.46071696281433,airplane,bird,2-0-10,0453_eid_s03_2-0-10_bird_10_n01537544_25558.png
subject-03,1,454,0.842519998550415,bear,cat,32-0-10,0454_eid_s03_32-0-10_cat_10_n02123597_6721.png
subject-03,1,455,0.694653987884521,cat,bear,128-0-10,0455_eid_s03_128-0-10_bear_10_n02134084_16227.png
subject-03,1,456,0.944780111312866,bear,bear,2-0-10,0456_eid_s03_2-0-10_bear_10_n02134084_18800.png
subject-03,1,457,0.610116958618164,bottle,bottle,2-0-10,0457_eid_s03_2-0-10_bottle_10_n04560804_12010.png
subject-03,1,458,0.759827136993408,oven,boat,2-0-10,0458_eid_s03_2-0-10_boat_10_n04273569_6941.png
subject-03,1,459,0.709734201431274,keyboard,bottle,4-0-10,0459_eid_s03_4-0-10_bottle_10_n04591713_493.png
subject-03,1,460,0.961509943008423,oven,dog,1-0-10,0460_eid_s03_1-0-10_dog_10_n02098286_4560.png
subject-03,1,461,1.29934406280518,oven,boat,8-0-10,0461_eid_s03_8-0-10_boat_10_n04612504_30603.png
subject-03,1,462,1.39509010314941,bottle,bottle,4-0-10,0462_eid_s03_4-0-10_bottle_10_n04560804_15683.png
subject-03,1,463,1.19093608856201,cat,clock,128-0-10,0463_eid_s03_128-0-10_clock_10_n04548280_7795.png
subject-03,1,464,0.97272801399231,clock,bottle,8-0-10,0464_eid_s03_8-0-10_bottle_10_n04591713_4474.png
subject-03,1,465,1.2086808681488,knife,knife,8-0-10,0465_eid_s03_8-0-10_knife_10_n03041632_38540.png
subject-03,1,466,0.774387121200562,cat,truck,64-0-10,0466_eid_s03_64-0-10_truck_10_n03417042_26814.png
subject-03,1,467,1.49231195449829,oven,truck,32-0-10,0467_eid_s03_32-0-10_truck_10_n04467665_62439.png
subject-03,1,468,0.562052011489868,cat,cat,4-0-10,0468_eid_s03_4-0-10_cat_10_n02123394_1259.png
subject-03,1,469,1.13190293312073,bear,dog,8-0-10,0469_eid_s03_8-0-10_dog_10_n02092339_2607.png
subject-03,1,470,0.979660034179688,bear,bird,64-0-10,0470_eid_s03_64-0-10_bird_10_n01531178_9584.png
subject-03,1,471,1.50007009506226,elephant,oven,8-0-10,0471_eid_s03_8-0-10_oven_10_n04111531_10420.png
subject-03,1,472,1.23734903335571,bird,oven,8-0-10,0472_eid_s03_8-0-10_oven_10_n04111531_23340.png
subject-03,1,473,1.19908595085144,keyboard,keyboard,2-0-10,0473_eid_s03_2-0-10_keyboard_10_n04505470_4505.png
subject-03,1,474,1.287024974823,keyboard,keyboard,2-0-10,0474_eid_s03_2-0-10_keyboard_10_n03085013_22605.png
subject-03,1,475,0.994755029678345,bear,bird,64-0-10,0475_eid_s03_64-0-10_bird_10_n01534433_16586.png
subject-03,1,476,1.23660111427307,oven,oven,8-0-10,0476_eid_s03_8-0-10_oven_10_n04111531_16583.png
subject-03,1,477,1.31645607948303,bear,chair,16-0-10,0477_eid_s03_16-0-10_chair_10_n02791124_6505.png
subject-03,1,478,1.13848996162415,oven,chair,1-0-10,0478_eid_s03_1-0-10_chair_10_n03376595_13578.png
subject-03,1,479,NaN,na,elephant,16-0-10,0479_eid_s03_16-0-10_elephant_10_n02504013_7777.png
subject-03,1,480,1.25180697441101,cat,cat,4-0-10,0480_eid_s03_4-0-10_cat_10_n02125311_25749.png
subject-03,1,481,0.604542970657349,cat,elephant,64-0-10,0481_eid_s03_64-0-10_elephant_10_n02504013_5495.png
subject-03,1,482,0.692209959030151,chair,chair,1-0-10,0482_eid_s03_1-0-10_chair_10_n04099969_12537.png
subject-03,1,483,0.630199909210205,cat,knife,32-0-10,0483_eid_s03_32-0-10_knife_10_n03041632_27879.png
subject-03,1,484,1.30203580856323,bear,boat,8-0-10,0484_eid_s03_8-0-10_boat_10_n03344393_5322.png
subject-03,1,485,0.725675106048584,oven,keyboard,32-0-10,0485_eid_s03_32-0-10_keyboard_10_n03085013_22027.png
subject-03,1,486,0.719560146331787,cat,cat,2-0-10,0486_eid_s03_2-0-10_cat_10_n02123597_14233.png
subject-03,1,487,0.761266946792603,bicycle,bicycle,1-0-10,0487_eid_s03_1-0-10_bicycle_10_n02835271_9807.png
subject-03,1,488,1.19324493408203,knife,knife,2-0-10,0488_eid_s03_2-0-10_knife_10_n03041632_28443.png
subject-03,1,489,0.654863119125366,cat,knife,32-0-10,0489_eid_s03_32-0-10_knife_10_n03041632_13225.png
subject-03,1,490,0.792634010314941,chair,chair,1-0-10,0490_eid_s03_1-0-10_chair_10_n04429376_13328.png
subject-03,1,491,0.842623949050903,cat,dog,16-0-10,0491_eid_s03_16-0-10_dog_10_n02093428_17769.png
subject-03,1,492,1.21037602424622,chair,boat,4-0-10,0492_eid_s03_4-0-10_boat_10_n03344393_3773.png
subject-03,1,493,0.786197900772095,bottle,bottle,8-0-10,0493_eid_s03_8-0-10_bottle_10_n04579145_2196.png
subject-03,1,494,0.79606294631958,elephant,elephant,4-0-10,0494_eid_s03_4-0-10_elephant_10_n02504013_2033.png
subject-03,1,495,0.773700952529907,keyboard,keyboard,4-0-10,0495_eid_s03_4-0-10_keyboard_10_n04505470_751.png
subject-03,1,496,0.945590972900391,bicycle,bicycle,4-0-10,0496_eid_s03_4-0-10_bicycle_10_n03792782_2960.png
subject-03,1,497,1.1655490398407,dog,dog,1-0-10,0497_eid_s03_1-0-10_dog_10_n02108422_5595.png
subject-03,1,498,1.28711199760437,bottle,car,128-0-10,0498_eid_s03_128-0-10_car_10_n04285008_3840.png
subject-03,1,499,0.979156970977783,bottle,bottle,2-0-10,0499_eid_s03_2-0-10_bottle_10_n03937543_7763.png
subject-03,1,500,1.42685103416443,dog,chair,8-0-10,0500_eid_s03_8-0-10_chair_10_n03376595_8289.png
subject-03,1,501,1.06281805038452,bear,bear,8-0-10,0501_eid_s03_8-0-10_bear_10_n02134418_5120.png
subject-03,1,502,1.06453609466553,bear,dog,128-0-10,0502_eid_s03_128-0-10_dog_10_n02106030_11782.png
subject-03,1,503,0.868532180786133,cat,bird,16-0-10,0503_eid_s03_16-0-10_bird_10_n01855672_4659.png
subject-03,1,504,0.900140047073364,cat,oven,128-0-10,0504_eid_s03_128-0-10_oven_10_n04111531_12129.png
subject-03,1,505,0.804017066955566,cat,cat,1-0-10,0505_eid_s03_1-0-10_cat_10_n02123394_10162.png
subject-03,1,506,0.975720882415771,cat,cat,32-0-10,0506_eid_s03_32-0-10_cat_10_n02125311_14714.png
subject-03,1,507,0.713712930679321,cat,elephant,8-0-10,0507_eid_s03_8-0-10_elephant_10_n02504013_2438.png
subject-03,1,508,1.07124519348145,bird,bird,2-0-10,0508_eid_s03_2-0-10_bird_10_n01592084_3147.png
subject-03,1,509,1.11161613464355,keyboard,bear,8-0-10,0509_eid_s03_8-0-10_bear_10_n02134418_5131.png
subject-03,1,510,0.717142820358276,cat,bottle,64-0-10,0510_eid_s03_64-0-10_bottle_10_n03937543_2790.png
subject-03,1,511,0.904803991317749,bear,bear,4-0-10,0511_eid_s03_4-0-10_bear_10_n02132136_4510.png
subject-03,1,512,0.708801031112671,cat,oven,64-0-10,0512_eid_s03_64-0-10_oven_10_n04111531_15317.png
subject-03,1,513,0.686578989028931,cat,truck,32-0-10,0513_eid_s03_32-0-10_truck_10_n03417042_2812.png
subject-03,1,514,0.708468914031982,oven,cat,128-0-10,0514_eid_s03_128-0-10_cat_10_n02124075_12069.png
subject-03,1,515,0.778144836425781,cat,chair,8-0-10,0515_eid_s03_8-0-10_chair_10_n03376595_3214.png
subject-03,1,516,1.38176798820496,bird,truck,8-0-10,0516_eid_s03_8-0-10_truck_10_n03417042_11439.png
subject-03,1,517,0.957828998565674,bear,knife,8-0-10,0517_eid_s03_8-0-10_knife_10_n03041632_20517.png
subject-03,1,518,0.971659898757935,boat,boat,1-0-10,0518_eid_s03_1-0-10_boat_10_n04273569_15455.png
subject-03,1,519,0.711359977722168,boat,boat,8-0-10,0519_eid_s03_8-0-10_boat_10_n03662601_33374.png
subject-03,1,520,1.00921893119812,bear,bear,1-0-10,0520_eid_s03_1-0-10_bear_10_n02134084_1694.png
subject-03,1,521,1.16101908683777,oven,airplane,128-0-10,0521_eid_s03_128-0-10_airplane_10_n02690373_9293.png
subject-03,1,522,1.22474789619446,elephant,clock,64-0-10,0522_eid_s03_64-0-10_clock_10_n04548280_2588.png
subject-03,1,523,1.50014495849609,oven,knife,128-0-10,0523_eid_s03_128-0-10_knife_10_n03041632_7448.png
subject-03,1,524,1.41033411026001,bird,clock,16-0-10,0524_eid_s03_16-0-10_clock_10_n04548280_10066.png
subject-03,1,525,1.42412900924683,keyboard,bear,128-0-10,0525_eid_s03_128-0-10_bear_10_n02134418_278.png
subject-03,1,526,1.41399002075195,oven,chair,64-0-10,0526_eid_s03_64-0-10_chair_10_n03376595_3015.png
subject-03,1,527,1.47967600822449,bird,truck,8-0-10,0527_eid_s03_8-0-10_truck_10_n04467665_69892.png
subject-03,1,528,1.40370798110962,knife,bicycle,64-0-10,0528_eid_s03_64-0-10_bicycle_10_n02835271_7051.png
subject-03,1,529,NaN,na,car,128-0-10,0529_eid_s03_128-0-10_car_10_n03100240_963.png
subject-03,1,530,1.4113621711731,bear,bicycle,128-0-10,0530_eid_s03_128-0-10_bicycle_10_n02835271_42320.png
subject-03,1,531,0.711153030395508,bear,bird,128-0-10,0531_eid_s03_128-0-10_bird_10_n01855032_8576.png
subject-03,1,532,1.50011801719666,chair,chair,4-0-10,0532_eid_s03_4-0-10_chair_10_n04429376_10544.png
subject-03,1,533,0.962790966033936,truck,truck,2-0-10,0533_eid_s03_2-0-10_truck_10_n04467665_58500.png
subject-03,1,534,1.30435609817505,bear,clock,16-0-10,0534_eid_s03_16-0-10_clock_10_n04548280_5130.png
subject-03,1,535,0.938244104385376,elephant,bear,8-0-10,0535_eid_s03_8-0-10_bear_10_n02134084_2598.png
subject-03,1,536,1.50010085105896,oven,knife,64-0-10,0536_eid_s03_64-0-10_knife_10_n03041632_21425.png
subject-03,1,537,1.44779992103577,chair,chair,2-0-10,0537_eid_s03_2-0-10_chair_10_n03376595_17811.png
subject-03,1,538,1.50019288063049,bear,bird,128-0-10,0538_eid_s03_128-0-10_bird_10_n01855672_8041.png
subject-03,1,539,1.44550704956055,bear,elephant,32-0-10,0539_eid_s03_32-0-10_elephant_10_n02504458_379.png
subject-03,1,540,1.04174113273621,bear,clock,128-0-10,0540_eid_s03_128-0-10_clock_10_n04548280_5466.png
subject-03,1,541,0.94917106628418,dog,dog,4-0-10,0541_eid_s03_4-0-10_dog_10_n02107574_1519.png
subject-03,1,542,0.896981954574585,cat,cat,64-0-10,0542_eid_s03_64-0-10_cat_10_n02123394_292.png
subject-03,1,543,1.46865606307983,bottle,bottle,128-0-10,0543_eid_s03_128-0-10_bottle_10_n02823428_7788.png
subject-03,1,544,0.6924889087677,elephant,elephant,2-0-10,0544_eid_s03_2-0-10_elephant_10_n02504013_1692.png
subject-03,1,545,1.21069598197937,boat,truck,8-0-10,0545_eid_s03_8-0-10_truck_10_n04467665_21900.png
subject-03,1,546,0.798120975494385,boat,cat,32-0-10,0546_eid_s03_32-0-10_cat_10_n02123597_5768.png
subject-03,1,547,0.846012115478516,cat,bear,4-0-10,0547_eid_s03_4-0-10_bear_10_n02134418_6030.png
subject-03,1,548,0.881820917129517,bicycle,bicycle,2-0-10,0548_eid_s03_2-0-10_bicycle_10_n03792782_3388.png
subject-03,1,549,1.12549710273743,cat,bird,128-0-10,0549_eid_s03_128-0-10_bird_10_n02056570_8553.png
subject-03,1,550,1.01365494728088,bear,boat,64-0-10,0550_eid_s03_64-0-10_boat_10_n02951358_15252.png
subject-03,1,551,1.0332179069519,oven,dog,8-0-10,0551_eid_s03_8-0-10_dog_10_n02104029_5465.png
subject-03,1,552,1.50006890296936,car,car,4-0-10,0552_eid_s03_4-0-10_car_10_n03100240_18711.png
subject-03,1,553,1.40482401847839,cat,airplane,128-0-10,0553_eid_s03_128-0-10_airplane_10_n02690373_8524.png
subject-03,1,554,1.49466300010681,keyboard,boat,128-0-10,0554_eid_s03_128-0-10_boat_10_n04273569_4605.png
subject-03,1,555,1.37246704101562,chair,clock,64-0-10,0555_eid_s03_64-0-10_clock_10_n04548280_8296.png
subject-03,1,556,1.40632295608521,elephant,car,16-0-10,0556_eid_s03_16-0-10_car_10_n04285008_7904.png
subject-03,1,557,1.29615092277527,boat,clock,128-0-10,0557_eid_s03_128-0-10_clock_10_n03196217_2919.png
subject-03,1,558,1.10789394378662,truck,truck,1-0-10,0558_eid_s03_1-0-10_truck_10_n04467665_49282.png
subject-03,1,559,0.761814117431641,car,car,1-0-10,0559_eid_s03_1-0-10_car_10_n03100240_1745.png
subject-03,1,560,1.13581705093384,truck,elephant,8-0-10,0560_eid_s03_8-0-10_elephant_10_n02504458_2841.png
subject-03,1,561,1.02071595191956,bird,dog,32-0-10,0561_eid_s03_32-0-10_dog_10_n02101388_4808.png
subject-03,1,562,1.09229707717896,bird,clock,64-0-10,0562_eid_s03_64-0-10_clock_10_n04548280_3293.png
subject-03,1,563,1.50008821487427,keyboard,oven,32-0-10,0563_eid_s03_32-0-10_oven_10_n04111531_7067.png
subject-03,1,564,1.50006508827209,clock,dog,128-0-10,0564_eid_s03_128-0-10_dog_10_n02101006_17876.png
subject-03,1,565,1.28157901763916,dog,oven,16-0-10,0565_eid_s03_16-0-10_oven_10_n04111531_3805.png
subject-03,1,566,0.743858098983765,bottle,bottle,2-0-10,0566_eid_s03_2-0-10_bottle_10_n03937543_7877.png
subject-03,1,567,1.48946905136108,clock,truck,64-0-10,0567_eid_s03_64-0-10_truck_10_n04467665_80465.png
subject-03,1,568,1.50009608268738,bottle,bear,64-0-10,0568_eid_s03_64-0-10_bear_10_n02132136_11027.png
subject-03,1,569,1.49895811080933,oven,dog,64-0-10,0569_eid_s03_64-0-10_dog_10_n02097130_5859.png
subject-03,1,570,1.23673510551453,boat,boat,2-0-10,0570_eid_s03_2-0-10_boat_10_n02951358_7137.png
subject-03,1,571,1.50005483627319,bottle,dog,128-0-10,0571_eid_s03_128-0-10_dog_10_n02091831_538.png
subject-03,1,572,1.40638709068298,boat,elephant,4-0-10,0572_eid_s03_4-0-10_elephant_10_n02504458_5816.png
subject-03,1,573,1.48420596122742,cat,truck,128-0-10,0573_eid_s03_128-0-10_truck_10_n04467665_19747.png
subject-03,1,574,0.793968915939331,boat,bird,4-0-10,0574_eid_s03_4-0-10_bird_10_n02028035_32557.png
subject-03,1,575,1.21557021141052,elephant,bear,128-0-10,0575_eid_s03_128-0-10_bear_10_n02132136_15806.png
subject-03,1,576,0.861555099487305,bicycle,bicycle,2-0-10,0576_eid_s03_2-0-10_bicycle_10_n03792782_7913.png
subject-03,1,577,0.809475898742676,bicycle,bicycle,2-0-10,0577_eid_s03_2-0-10_bicycle_10_n02835271_3406.png
subject-03,1,578,0.693303108215332,car,car,8-0-10,0578_eid_s03_8-0-10_car_10_n04285008_8545.png
subject-03,1,579,1.02701592445374,car,car,1-0-10,0579_eid_s03_1-0-10_car_10_n02814533_149.png
subject-03,1,580,1.12106108665466,cat,bear,128-0-10,0580_eid_s03_128-0-10_bear_10_n02134084_6286.png
subject-03,1,581,0.902966022491455,oven,oven,64-0-10,0581_eid_s03_64-0-10_oven_10_n04111531_8553.png
subject-03,1,582,0.728784084320068,oven,bear,8-0-10,0582_eid_s03_8-0-10_bear_10_n02134418_6133.png
subject-03,1,583,0.738359928131104,bird,oven,8-0-10,0583_eid_s03_8-0-10_oven_10_n04111531_16198.png
subject-03,1,584,1.00594687461853,clock,clock,8-0-10,0584_eid_s03_8-0-10_clock_10_n04548280_7826.png
subject-03,1,585,1.21777391433716,knife,knife,4-0-10,0585_eid_s03_4-0-10_knife_10_n03041632_11969.png
subject-03,1,586,0.987800121307373,bottle,cat,8-0-10,0586_eid_s03_8-0-10_cat_10_n02125311_47927.png
subject-03,1,587,1.31756901741028,boat,boat,1-0-10,0587_eid_s03_1-0-10_boat_10_n03344393_1017.png
subject-03,1,588,1.45329213142395,car,car,1-0-10,0588_eid_s03_1-0-10_car_10_n03100240_9171.png
subject-03,1,589,1.50006222724915,oven,dog,64-0-10,0589_eid_s03_64-0-10_dog_10_n02106662_4437.png
subject-03,1,590,0.985111951828003,knife,knife,2-0-10,0590_eid_s03_2-0-10_knife_10_n03041632_54191.png
subject-03,1,591,1.36700510978699,bird,elephant,128-0-10,0591_eid_s03_128-0-10_elephant_10_n02504013_4247.png
subject-03,1,592,0.900699853897095,bear,bear,4-0-10,0592_eid_s03_4-0-10_bear_10_n02134084_7079.png
subject-03,1,593,0.724514007568359,bird,bird,16-0-10,0593_eid_s03_16-0-10_bird_10_n01534433_31697.png
subject-03,1,594,1.38219714164734,cat,keyboard,16-0-10,0594_eid_s03_16-0-10_keyboard_10_n04505470_1719.png
subject-03,1,595,1.41594004631042,bear,bicycle,128-0-10,0595_eid_s03_128-0-10_bicycle_10_n03792782_4540.png
subject-03,1,596,0.93176794052124,airplane,airplane,4-0-10,0596_eid_s03_4-0-10_airplane_10_n02690373_4061.png
subject-03,1,597,0.993505954742432,keyboard,keyboard,4-0-10,0597_eid_s03_4-0-10_keyboard_10_n03085013_14764.png
subject-03,1,598,1.50004196166992,cat,dog,128-0-10,0598_eid_s03_128-0-10_dog_10_n02107908_8814.png
subject-03,1,599,1.50011396408081,boat,boat,2-0-10,0599_eid_s03_2-0-10_boat_10_n03662601_840.png
subject-03,1,600,1.50000214576721,dog,clock,32-0-10,0600_eid_s03_32-0-10_clock_10_n02708093_6982.png
subject-03,1,601,0.804794073104858,cat,cat,32-0-10,0601_eid_s03_32-0-10_cat_10_n02123394_4167.png
subject-03,1,602,1.23470401763916,keyboard,bottle,2-0-10,0602_eid_s03_2-0-10_bottle_10_n04591713_6351.png
subject-03,1,603,0.898544073104858,chair,chair,1-0-10,0603_eid_s03_1-0-10_chair_10_n03376595_10149.png
subject-03,1,604,1.31838297843933,boat,bottle,128-0-10,0604_eid_s03_128-0-10_bottle_10_n04591713_2555.png
subject-03,1,605,1.47222900390625,boat,oven,64-0-10,0605_eid_s03_64-0-10_oven_10_n04111531_15489.png
subject-03,1,606,1.14186501502991,boat,bottle,4-0-10,0606_eid_s03_4-0-10_bottle_10_n03983396_3027.png
subject-03,1,607,0.631821870803833,bicycle,bicycle,1-0-10,0607_eid_s03_1-0-10_bicycle_10_n02835271_1530.png
subject-03,1,608,1.0677011013031,cat,oven,128-0-10,0608_eid_s03_128-0-10_oven_10_n04111531_11221.png
subject-03,1,609,0.859663009643555,bear,oven,128-0-10,0609_eid_s03_128-0-10_oven_10_n04111531_6622.png
subject-03,1,610,1.29715991020203,dog,car,16-0-10,0610_eid_s03_16-0-10_car_10_n04285008_8959.png
subject-03,1,611,1.43927907943726,boat,airplane,8-0-10,0611_eid_s03_8-0-10_airplane_10_n02690373_4979.png
subject-03,1,612,0.938730955123901,bear,bear,2-0-10,0612_eid_s03_2-0-10_bear_10_n02132136_10057.png
subject-03,1,613,0.640799999237061,cat,car,64-0-10,0613_eid_s03_64-0-10_car_10_n04285008_9811.png
subject-03,1,614,1.41026496887207,knife,keyboard,1-0-10,0614_eid_s03_1-0-10_keyboard_10_n03085013_23286.png
subject-03,1,615,0.88230299949646,bird,knife,32-0-10,0615_eid_s03_32-0-10_knife_10_n03041632_87380.png
subject-03,1,616,1.26446509361267,elephant,oven,64-0-10,0616_eid_s03_64-0-10_oven_10_n04111531_17781.png
subject-03,1,617,1.29376482963562,cat,elephant,64-0-10,0617_eid_s03_64-0-10_elephant_10_n02504458_6729.png
subject-03,1,618,0.685659885406494,clock,clock,2-0-10,0618_eid_s03_2-0-10_clock_10_n03196217_300.png
subject-03,1,619,1.43166995048523,bird,airplane,64-0-10,0619_eid_s03_64-0-10_airplane_10_n02690373_3617.png
subject-03,1,620,0.761474132537842,keyboard,keyboard,1-0-10,0620_eid_s03_1-0-10_keyboard_10_n04505470_3371.png
subject-03,1,621,1.08504414558411,boat,boat,8-0-10,0621_eid_s03_8-0-10_boat_10_n04273569_7315.png
subject-03,1,622,1.07690715789795,bird,dog,32-0-10,0622_eid_s03_32-0-10_dog_10_n02097209_8270.png
subject-03,1,623,0.828809976577759,cat,oven,16-0-10,0623_eid_s03_16-0-10_oven_10_n04111531_9867.png
subject-03,1,624,0.852596044540405,oven,oven,1-0-10,0624_eid_s03_1-0-10_oven_10_n04111531_10749.png
subject-03,1,625,0.784702062606812,airplane,airplane,8-0-10,0625_eid_s03_8-0-10_airplane_10_n02690373_19152.png
subject-03,1,626,0.852323770523071,elephant,elephant,8-0-10,0626_eid_s03_8-0-10_elephant_10_n02504013_4005.png
subject-03,1,627,0.746002912521362,bicycle,bicycle,2-0-10,0627_eid_s03_2-0-10_bicycle_10_n03792782_12704.png
subject-03,1,628,0.737759113311768,elephant,elephant,8-0-10,0628_eid_s03_8-0-10_elephant_10_n02504013_1986.png
subject-03,1,629,0.763529062271118,cat,chair,64-0-10,0629_eid_s03_64-0-10_chair_10_n03376595_3038.png
subject-03,1,630,0.873365163803101,elephant,oven,2-0-10,0630_eid_s03_2-0-10_oven_10_n04111531_14913.png
subject-03,1,631,1.3231680393219,airplane,airplane,16-0-10,0631_eid_s03_16-0-10_airplane_10_n02690373_1075.png
subject-03,1,632,0.877120971679688,oven,truck,64-0-10,0632_eid_s03_64-0-10_truck_10_n03796401_25102.png
subject-03,1,633,1.3087329864502,dog,bird,32-0-10,0633_eid_s03_32-0-10_bird_10_n01582220_10508.png
subject-03,1,634,0.876844882965088,bottle,bottle,1-0-10,0634_eid_s03_1-0-10_bottle_10_n04560804_5610.png
subject-03,1,635,1.09089016914368,bear,truck,8-0-10,0635_eid_s03_8-0-10_truck_10_n03417042_6493.png
subject-03,1,636,1.50009298324585,chair,chair,1-0-10,0636_eid_s03_1-0-10_chair_10_n02791124_3601.png
subject-03,1,637,1.36221408843994,dog,bicycle,128-0-10,0637_eid_s03_128-0-10_bicycle_10_n03792782_1475.png
subject-03,1,638,0.634197950363159,boat,boat,1-0-10,0638_eid_s03_1-0-10_boat_10_n04273569_13290.png
subject-03,1,639,1.12358403205872,cat,keyboard,64-0-10,0639_eid_s03_64-0-10_keyboard_10_n03085013_20460.png
subject-03,1,640,1.02153015136719,bird,bottle,16-0-10,0640_eid_s03_16-0-10_bottle_10_n04557648_10302.png
subject-03,1,641,1.43404102325439,bottle,knife,64-0-10,0641_eid_s03_64-0-10_knife_10_n03041632_20504.png
subject-03,1,642,0.631798028945923,boat,boat,1-0-10,0642_eid_s03_1-0-10_boat_10_n02951358_30458.png
subject-03,1,643,0.961387872695923,cat,clock,128-0-10,0643_eid_s03_128-0-10_clock_10_n04548280_4872.png
subject-03,1,644,1.44941306114197,car,keyboard,64-0-10,0644_eid_s03_64-0-10_keyboard_10_n04505470_4660.png
subject-03,1,645,1.03698706626892,bird,cat,64-0-10,0645_eid_s03_64-0-10_cat_10_n02123597_12711.png
subject-03,1,646,1.43920493125916,bottle,bottle,4-0-10,0646_eid_s03_4-0-10_bottle_10_n02823428_2754.png
subject-03,1,647,0.688864946365356,keyboard,keyboard,4-0-10,0647_eid_s03_4-0-10_keyboard_10_n04505470_3306.png
subject-03,1,648,1.37651395797729,knife,airplane,32-0-10,0648_eid_s03_32-0-10_airplane_10_n02690373_9335.png
subject-03,1,649,1.09240508079529,bear,bear,32-0-10,0649_eid_s03_32-0-10_bear_10_n02132136_26438.png
subject-03,1,650,1.35201716423035,cat,dog,2-0-10,0650_eid_s03_2-0-10_dog_10_n02106550_7165.png
subject-03,1,651,1.44579291343689,oven,bottle,4-0-10,0651_eid_s03_4-0-10_bottle_10_n03937543_4912.png
subject-03,1,652,0.903743982315063,boat,boat,1-0-10,0652_eid_s03_1-0-10_boat_10_n03344393_2301.png
subject-03,1,653,0.911971807479858,knife,knife,1-0-10,0653_eid_s03_1-0-10_knife_10_n03041632_16606.png
subject-03,1,654,0.659850120544434,cat,bicycle,64-0-10,0654_eid_s03_64-0-10_bicycle_10_n02835271_7900.png
subject-03,1,655,1.13731503486633,elephant,cat,4-0-10,0655_eid_s03_4-0-10_cat_10_n02125311_9074.png
subject-03,1,656,0.673207998275757,cat,bear,32-0-10,0656_eid_s03_32-0-10_bear_10_n02132136_1738.png
subject-03,1,657,1.04282212257385,dog,airplane,16-0-10,0657_eid_s03_16-0-10_airplane_10_n02690373_9959.png
subject-03,1,658,1.14058399200439,bird,dog,64-0-10,0658_eid_s03_64-0-10_dog_10_n02104029_5234.png
subject-03,1,659,0.922430992126465,elephant,boat,32-0-10,0659_eid_s03_32-0-10_boat_10_n02951358_15087.png
subject-03,1,660,0.766214847564697,cat,dog,2-0-10,0660_eid_s03_2-0-10_dog_10_n02113624_1170.png
subject-03,1,661,0.680459976196289,cat,elephant,64-0-10,0661_eid_s03_64-0-10_elephant_10_n02504013_24621.png
subject-03,1,662,1.13991618156433,bottle,dog,1-0-10,0662_eid_s03_1-0-10_dog_10_n02086240_3614.png
subject-03,1,663,1.27017688751221,keyboard,bird,8-0-10,0663_eid_s03_8-0-10_bird_10_n01514859_7974.png
subject-03,1,664,1.48757195472717,clock,truck,16-0-10,0664_eid_s03_16-0-10_truck_10_n03417042_1875.png
subject-03,1,665,0.633299827575684,cat,car,8-0-10,0665_eid_s03_8-0-10_car_10_n03100240_2619.png
subject-03,1,666,0.551079988479614,cat,cat,32-0-10,0666_eid_s03_32-0-10_cat_10_n02123394_1879.png
subject-03,1,667,0.660839080810547,cat,bird,32-0-10,0667_eid_s03_32-0-10_bird_10_n01796340_8342.png
subject-03,1,668,0.886691093444824,clock,clock,1-0-10,0668_eid_s03_1-0-10_clock_10_n02708093_2843.png
subject-03,1,669,0.774458885192871,keyboard,keyboard,4-0-10,0669_eid_s03_4-0-10_keyboard_10_n04505470_64.png
subject-03,1,670,0.916281938552856,bottle,knife,4-0-10,0670_eid_s03_4-0-10_knife_10_n03041632_14293.png
subject-03,1,671,0.746122121810913,cat,dog,16-0-10,0671_eid_s03_16-0-10_dog_10_n02090721_835.png
subject-03,1,672,0.752006053924561,cat,car,16-0-10,0672_eid_s03_16-0-10_car_10_n03100240_7257.png
subject-03,1,673,1.07378888130188,bear,car,16-0-10,0673_eid_s03_16-0-10_car_10_n03100240_7788.png
subject-03,1,674,0.679646968841553,cat,truck,128-0-10,0674_eid_s03_128-0-10_truck_10_n04467665_22573.png
subject-03,1,675,1.32964110374451,oven,knife,16-0-10,0675_eid_s03_16-0-10_knife_10_n03041632_14766.png
subject-03,1,676,0.671330213546753,airplane,airplane,4-0-10,0676_eid_s03_4-0-10_airplane_10_n02690373_2324.png
subject-03,1,677,0.733136177062988,oven,oven,2-0-10,0677_eid_s03_2-0-10_oven_10_n04111531_1815.png
subject-03,1,678,1.44469285011292,bear,oven,32-0-10,0678_eid_s03_32-0-10_oven_10_n04111531_4392.png
subject-03,1,679,1.31063604354858,airplane,airplane,8-0-10,0679_eid_s03_8-0-10_airplane_10_n02690373_7293.png
subject-03,1,680,NaN,na,cat,4-0-10,0680_eid_s03_4-0-10_cat_10_n02123597_2069.png
subject-03,1,681,1.45814394950867,boat,keyboard,32-0-10,0681_eid_s03_32-0-10_keyboard_10_n03085013_3264.png
subject-03,1,682,0.95207691192627,boat,boat,2-0-10,0682_eid_s03_2-0-10_boat_10_n04273569_17322.png
subject-03,1,683,0.965910911560059,cat,bicycle,16-0-10,0683_eid_s03_16-0-10_bicycle_10_n02835271_29741.png
subject-03,1,684,1.50006198883057,dog,truck,64-0-10,0684_eid_s03_64-0-10_truck_10_n04467665_43222.png
subject-03,1,685,1.50001215934753,cat,airplane,128-0-10,0685_eid_s03_128-0-10_airplane_10_n02690373_6988.png
subject-03,1,686,1.38567614555359,boat,elephant,16-0-10,0686_eid_s03_16-0-10_elephant_10_n02504013_3857.png
subject-03,1,687,1.41152906417847,bicycle,airplane,64-0-10,0687_eid_s03_64-0-10_airplane_10_n02690373_8543.png
subject-03,1,688,1.50011491775513,clock,clock,2-0-10,0688_eid_s03_2-0-10_clock_10_n02708093_772.png
subject-03,1,689,1.20878386497498,car,car,4-0-10,0689_eid_s03_4-0-10_car_10_n04285008_3445.png
subject-03,1,690,1.45060110092163,bird,cat,16-0-10,0690_eid_s03_16-0-10_cat_10_n02123045_873.png
subject-03,1,691,1.47248721122742,bird,car,32-0-10,0691_eid_s03_32-0-10_car_10_n03100240_11224.png
subject-03,1,692,1.50004887580872,cat,bear,64-0-10,0692_eid_s03_64-0-10_bear_10_n02132136_14832.png
subject-03,1,693,1.50003600120544,keyboard,keyboard,2-0-10,0693_eid_s03_2-0-10_keyboard_10_n04505470_3531.png
subject-03,1,694,1.36601996421814,keyboard,knife,64-0-10,0694_eid_s03_64-0-10_knife_10_n03041632_3171.png
subject-03,1,695,0.623605966567993,bottle,bottle,1-0-10,0695_eid_s03_1-0-10_bottle_10_n04579145_5979.png
subject-03,1,696,1.50012803077698,keyboard,knife,32-0-10,0696_eid_s03_32-0-10_knife_10_n03041632_24883.png
subject-03,1,697,NaN,na,chair,8-0-10,0697_eid_s03_8-0-10_chair_10_n04099969_9017.png
subject-03,1,698,1.27903509140015,dog,oven,1-0-10,0698_eid_s03_1-0-10_oven_10_n04111531_687.png
subject-03,1,699,1.31886506080627,bear,bear,1-0-10,0699_eid_s03_1-0-10_bear_10_n02134418_2545.png
subject-03,1,700,1.42077016830444,bear,airplane,2-0-10,0700_eid_s03_2-0-10_airplane_10_n02690373_1979.png
subject-03,1,701,1.02866387367249,bird,cat,2-0-10,0701_eid_s03_2-0-10_cat_10_n02123394_830.png
subject-03,1,702,1.5001049041748,bird,bear,4-0-10,0702_eid_s03_4-0-10_bear_10_n02133161_11816.png
subject-03,1,703,0.726394891738892,boat,car,4-0-10,0703_eid_s03_4-0-10_car_10_n03100240_5570.png
subject-03,1,704,0.795970916748047,cat,car,32-0-10,0704_eid_s03_32-0-10_car_10_n03100240_21737.png
subject-03,1,705,1.50008392333984,dog,car,128-0-10,0705_eid_s03_128-0-10_car_10_n02814533_10995.png
subject-03,1,706,0.629806041717529,bicycle,bicycle,4-0-10,0706_eid_s03_4-0-10_bicycle_10_n03792782_22908.png
subject-03,1,707,1.50008702278137,knife,knife,8-0-10,0707_eid_s03_8-0-10_knife_10_n03041632_26933.png
subject-03,1,708,0.795068025588989,cat,cat,16-0-10,0708_eid_s03_16-0-10_cat_10_n02123394_5726.png
subject-03,1,709,0.910953998565674,airplane,airplane,8-0-10,0709_eid_s03_8-0-10_airplane_10_n02690373_2941.png
subject-03,1,710,1.31685209274292,bear,bear,2-0-10,0710_eid_s03_2-0-10_bear_10_n02133161_9371.png
subject-03,1,711,1.50018000602722,boat,clock,64-0-10,0711_eid_s03_64-0-10_clock_10_n02708093_1430.png
subject-03,1,712,1.44656300544739,bottle,airplane,128-0-10,0712_eid_s03_128-0-10_airplane_10_n02690373_6223.png
subject-03,1,713,1.34668207168579,cat,bird,16-0-10,0713_eid_s03_16-0-10_bird_10_n01616318_4246.png
subject-03,1,714,0.996313095092773,cat,cat,1-0-10,0714_eid_s03_1-0-10_cat_10_n02123597_5692.png
subject-03,1,715,0.735885143280029,cat,dog,128-0-10,0715_eid_s03_128-0-10_dog_10_n02112350_502.png
subject-03,1,716,0.795849800109863,cat,cat,64-0-10,0716_eid_s03_64-0-10_cat_10_n02123394_5071.png
subject-03,1,717,0.851377010345459,bear,chair,32-0-10,0717_eid_s03_32-0-10_chair_10_n03376595_8083.png
subject-03,1,718,1.13933610916138,elephant,cat,64-0-10,0718_eid_s03_64-0-10_cat_10_n02125311_2576.png
subject-03,1,719,1.25742697715759,dog,bicycle,8-0-10,0719_eid_s03_8-0-10_bicycle_10_n03792782_14293.png
subject-03,1,720,1.15520191192627,dog,knife,32-0-10,0720_eid_s03_32-0-10_knife_10_n03041632_41493.png
subject-03,1,721,0.874513149261475,bear,bear,8-0-10,0721_eid_s03_8-0-10_bear_10_n02134084_14992.png
subject-03,1,722,0.964181900024414,cat,chair,32-0-10,0722_eid_s03_32-0-10_chair_10_n04429376_25268.png
subject-03,1,723,1.13015484809875,truck,truck,4-0-10,0723_eid_s03_4-0-10_truck_10_n03417042_26102.png
subject-03,1,724,1.05573296546936,cat,truck,16-0-10,0724_eid_s03_16-0-10_truck_10_n03417042_12328.png
subject-03,1,725,1.0877320766449,oven,airplane,16-0-10,0725_eid_s03_16-0-10_airplane_10_n02690373_1909.png
subject-03,1,726,1.50013995170593,bicycle,bicycle,1-0-10,0726_eid_s03_1-0-10_bicycle_10_n02835271_2570.png
subject-03,1,727,1.4213490486145,bear,chair,16-0-10,0727_eid_s03_16-0-10_chair_10_n02791124_14.png
subject-03,1,728,1.319002866745,bicycle,dog,1-0-10,0728_eid_s03_1-0-10_dog_10_n02093991_4081.png
subject-03,1,729,0.948835134506226,bird,knife,128-0-10,0729_eid_s03_128-0-10_knife_10_n03041632_29343.png
subject-03,1,730,0.987082004547119,cat,cat,1-0-10,0730_eid_s03_1-0-10_cat_10_n02123159_8039.png
subject-03,1,731,1.05690002441406,truck,truck,4-0-10,0731_eid_s03_4-0-10_truck_10_n03417042_3807.png
subject-03,1,732,0.858389139175415,elephant,clock,128-0-10,0732_eid_s03_128-0-10_clock_10_n02708093_1862.png
subject-03,1,733,0.918188095092773,elephant,chair,64-0-10,0733_eid_s03_64-0-10_chair_10_n03376595_1770.png
subject-03,1,734,1.22988080978394,dog,oven,32-0-10,0734_eid_s03_32-0-10_oven_10_n04111531_21309.png
subject-03,1,735,0.941678047180176,truck,truck,4-0-10,0735_eid_s03_4-0-10_truck_10_n03796401_2893.png
subject-03,1,736,0.763592004776001,chair,chair,4-0-10,0736_eid_s03_4-0-10_chair_10_n04429376_17100.png
subject-03,1,737,1.45738410949707,bird,cat,32-0-10,0737_eid_s03_32-0-10_cat_10_n02123159_7616.png
subject-03,1,738,1.07912802696228,chair,truck,1-0-10,0738_eid_s03_1-0-10_truck_10_n04467665_2797.png
subject-03,1,739,1.45908212661743,dog,clock,32-0-10,0739_eid_s03_32-0-10_clock_10_n02708093_3669.png
subject-03,1,740,1.50014519691467,chair,bird,32-0-10,0740_eid_s03_32-0-10_bird_10_n02051845_34393.png
subject-03,1,741,1.47103786468506,cat,bird,4-0-10,0741_eid_s03_4-0-10_bird_10_n01796340_4181.png
subject-03,1,742,1.24646806716919,knife,knife,32-0-10,0742_eid_s03_32-0-10_knife_10_n03041632_383.png
subject-03,1,743,0.944230794906616,airplane,clock,16-0-10,0743_eid_s03_16-0-10_clock_10_n03196217_5888.png
subject-03,1,744,1.11012196540833,bird,dog,16-0-10,0744_eid_s03_16-0-10_dog_10_n02088094_2292.png
subject-03,1,745,0.673850059509277,cat,oven,128-0-10,0745_eid_s03_128-0-10_oven_10_n04111531_4795.png
subject-03,1,746,NaN,na,dog,1-0-10,0746_eid_s03_1-0-10_dog_10_n02109047_26316.png
subject-03,1,747,0.861590147018433,clock,clock,2-0-10,0747_eid_s03_2-0-10_clock_10_n02708093_1701.png
subject-03,1,748,1.46335291862488,boat,knife,8-0-10,0748_eid_s03_8-0-10_knife_10_n03041632_3063.png
subject-03,1,749,0.683371067047119,cat,car,32-0-10,0749_eid_s03_32-0-10_car_10_n02814533_6498.png
subject-03,1,750,0.906983137130737,cat,bird,16-0-10,0750_eid_s03_16-0-10_bird_10_n02007558_15130.png
subject-03,1,751,0.950803995132446,boat,bear,64-0-10,0751_eid_s03_64-0-10_bear_10_n02132136_699.png
subject-03,1,752,0.668573141098022,cat,clock,32-0-10,0752_eid_s03_32-0-10_clock_10_n04548280_2260.png
subject-03,1,753,0.83059287071228,cat,bottle,64-0-10,0753_eid_s03_64-0-10_bottle_10_n02823428_12623.png
subject-03,1,754,0.554105043411255,cat,oven,64-0-10,0754_eid_s03_64-0-10_oven_10_n04111531_136.png
subject-03,1,755,1.38405394554138,elephant,oven,2-0-10,0755_eid_s03_2-0-10_oven_10_n04111531_22097.png
subject-03,1,756,0.613878011703491,cat,truck,64-0-10,0756_eid_s03_64-0-10_truck_10_n04467665_30588.png
subject-03,1,757,1.16173601150513,boat,boat,1-0-10,0757_eid_s03_1-0-10_boat_10_n02951358_7478.png
subject-03,1,758,0.651362895965576,cat,dog,128-0-10,0758_eid_s03_128-0-10_dog_10_n02101556_1042.png
subject-03,1,759,1.40320706367493,bear,oven,16-0-10,0759_eid_s03_16-0-10_oven_10_n04111531_766.png
subject-03,1,760,1.46508502960205,chair,bird,32-0-10,0760_eid_s03_32-0-10_bird_10_n01797886_14611.png
subject-03,1,761,0.542937040328979,cat,airplane,64-0-10,0761_eid_s03_64-0-10_airplane_10_n02690373_10012.png
subject-03,1,762,1.50004601478577,keyboard,cat,128-0-10,0762_eid_s03_128-0-10_cat_10_n02125311_35098.png
subject-03,1,763,1.30456686019897,dog,bottle,64-0-10,0763_eid_s03_64-0-10_bottle_10_n03983396_4024.png
subject-03,1,764,0.790420055389404,bottle,bottle,2-0-10,0764_eid_s03_2-0-10_bottle_10_n04591713_5406.png
subject-03,1,765,1.47412800788879,keyboard,chair,64-0-10,0765_eid_s03_64-0-10_chair_10_n04099969_38787.png
subject-03,1,766,1.30782699584961,bottle,bottle,128-0-10,0766_eid_s03_128-0-10_bottle_10_n04591713_8914.png
subject-03,1,767,1.50004601478577,boat,boat,8-0-10,0767_eid_s03_8-0-10_boat_10_n02951358_13144.png
subject-03,1,768,0.935876846313477,cat,bottle,64-0-10,0768_eid_s03_64-0-10_bottle_10_n04591713_360.png
subject-03,1,769,1.48946499824524,boat,elephant,128-0-10,0769_eid_s03_128-0-10_elephant_10_n02504458_3094.png
subject-03,1,770,0.755239963531494,car,car,1-0-10,0770_eid_s03_1-0-10_car_10_n04285008_3015.png
subject-03,1,771,1.50015997886658,car,car,8-0-10,0771_eid_s03_8-0-10_car_10_n02814533_12271.png
subject-03,1,772,1.45875191688538,knife,bear,4-0-10,0772_eid_s03_4-0-10_bear_10_n02134084_967.png
subject-03,1,773,0.980568885803223,car,car,4-0-10,0773_eid_s03_4-0-10_car_10_n04285008_7630.png
subject-03,1,774,1.01233100891113,truck,boat,4-0-10,0774_eid_s03_4-0-10_boat_10_n03344393_640.png
subject-03,1,775,1.40252304077148,bear,keyboard,128-0-10,0775_eid_s03_128-0-10_keyboard_10_n03085013_23561.png
subject-03,1,776,0.63018012046814,cat,cat,1-0-10,0776_eid_s03_1-0-10_cat_10_n02124075_13436.png
subject-03,1,777,0.853972196578979,cat,oven,8-0-10,0777_eid_s03_8-0-10_oven_10_n04111531_13296.png
subject-03,1,778,1.12764811515808,cat,keyboard,64-0-10,0778_eid_s03_64-0-10_keyboard_10_n03085013_20322.png
subject-03,1,779,0.76150107383728,airplane,airplane,1-0-10,0779_eid_s03_1-0-10_airplane_10_n02690373_3728.png
subject-03,1,780,1.43942809104919,bear,bird,8-0-10,0780_eid_s03_8-0-10_bird_10_n01817953_1734.png
subject-03,1,781,0.69919490814209,cat,keyboard,64-0-10,0781_eid_s03_64-0-10_keyboard_10_n03085013_1483.png
subject-03,1,782,0.652909994125366,cat,cat,16-0-10,0782_eid_s03_16-0-10_cat_10_n02124075_6716.png
subject-03,1,783,1.36258888244629,cat,bicycle,64-0-10,0783_eid_s03_64-0-10_bicycle_10_n03792782_973.png
subject-03,1,784,1.16072201728821,dog,bottle,32-0-10,0784_eid_s03_32-0-10_bottle_10_n04560804_1356.png
subject-03,1,785,1.12448501586914,cat,airplane,64-0-10,0785_eid_s03_64-0-10_airplane_10_n02690373_3840.png
subject-03,1,786,0.884289026260376,truck,truck,2-0-10,0786_eid_s03_2-0-10_truck_10_n03417042_1716.png
subject-03,1,787,1.22187495231628,knife,boat,8-0-10,0787_eid_s03_8-0-10_boat_10_n03344393_3535.png
subject-03,1,788,1.27992796897888,elephant,dog,64-0-10,0788_eid_s03_64-0-10_dog_10_n02106030_17418.png
subject-03,1,789,0.835561990737915,bear,chair,32-0-10,0789_eid_s03_32-0-10_chair_10_n02791124_4595.png
subject-03,1,790,0.665631055831909,cat,bear,16-0-10,0790_eid_s03_16-0-10_bear_10_n02132136_6378.png
subject-03,1,791,1.48532605171204,cat,elephant,1-0-10,0791_eid_s03_1-0-10_elephant_10_n02504458_3628.png
subject-03,1,792,1.27107882499695,elephant,elephant,1-0-10,0792_eid_s03_1-0-10_elephant_10_n02504458_5951.png
subject-03,1,793,1.237135887146,boat,bird,16-0-10,0793_eid_s03_16-0-10_bird_10_n02017213_6104.png
subject-03,1,794,1.46064019203186,dog,cat,8-0-10,0794_eid_s03_8-0-10_cat_10_n02125311_10230.png
subject-03,1,795,1.47449398040771,dog,boat,64-0-10,0795_eid_s03_64-0-10_boat_10_n04273569_5672.png
subject-03,1,796,0.526355028152466,car,car,4-0-10,0796_eid_s03_4-0-10_car_10_n04285008_13054.png
subject-03,1,797,1.07008409500122,bicycle,bicycle,4-0-10,0797_eid_s03_4-0-10_bicycle_10_n03792782_16034.png
subject-03,1,798,0.832134008407593,knife,knife,4-0-10,0798_eid_s03_4-0-10_knife_10_n03041632_12748.png
subject-03,1,799,1.0158851146698,oven,chair,2-0-10,0799_eid_s03_2-0-10_chair_10_n02791124_11523.png
subject-03,1,800,0.641561985015869,boat,keyboard,8-0-10,0800_eid_s03_8-0-10_keyboard_10_n03085013_24217.png
subject-03,1,801,1.50004100799561,elephant,elephant,4-0-10,0801_eid_s03_4-0-10_elephant_10_n02504013_9796.png
subject-03,1,802,1.27587580680847,bird,oven,1-0-10,0802_eid_s03_1-0-10_oven_10_n04111531_18979.png
subject-03,1,803,0.943793058395386,cat,bird,2-0-10,0803_eid_s03_2-0-10_bird_10_n01843383_7800.png
subject-03,1,804,1.12760305404663,cat,chair,64-0-10,0804_eid_s03_64-0-10_chair_10_n04429376_29954.png
subject-03,1,805,0.879463911056519,cat,cat,4-0-10,0805_eid_s03_4-0-10_cat_10_n02123159_5764.png
subject-03,1,806,1.24895191192627,elephant,truck,32-0-10,0806_eid_s03_32-0-10_truck_10_n03796401_8117.png
subject-03,1,807,1.11074614524841,oven,boat,32-0-10,0807_eid_s03_32-0-10_boat_10_n02951358_18762.png
subject-03,1,808,0.886618852615356,bear,car,32-0-10,0808_eid_s03_32-0-10_car_10_n04285008_5869.png
subject-03,1,809,1.05650591850281,cat,chair,32-0-10,0809_eid_s03_32-0-10_chair_10_n03376595_8137.png
subject-03,1,810,1.24235010147095,oven,bird,1-0-10,0810_eid_s03_1-0-10_bird_10_n01532829_4319.png
subject-03,1,811,0.74215292930603,clock,clock,4-0-10,0811_eid_s03_4-0-10_clock_10_n04548280_5991.png
subject-03,1,812,1.48793005943298,bottle,oven,16-0-10,0812_eid_s03_16-0-10_oven_10_n04111531_8603.png
subject-03,1,813,0.959761142730713,cat,bear,32-0-10,0813_eid_s03_32-0-10_bear_10_n02132136_4203.png
subject-03,1,814,1.49352717399597,clock,keyboard,16-0-10,0814_eid_s03_16-0-10_keyboard_10_n04505470_4974.png
subject-03,1,815,1.36363196372986,dog,bottle,32-0-10,0815_eid_s03_32-0-10_bottle_10_n04591713_13589.png
subject-03,1,816,1.50009298324585,boat,bicycle,2-0-10,0816_eid_s03_2-0-10_bicycle_10_n03792782_42626.png
subject-03,1,817,0.700957059860229,cat,bicycle,128-0-10,0817_eid_s03_128-0-10_bicycle_10_n02835271_4726.png
subject-03,1,818,0.740827083587646,bottle,truck,2-0-10,0818_eid_s03_2-0-10_truck_10_n04467665_3211.png
subject-03,1,819,1.14068007469177,dog,dog,2-0-10,0819_eid_s03_2-0-10_dog_10_n02101006_1160.png
subject-03,1,820,1.50001096725464,airplane,keyboard,32-0-10,0820_eid_s03_32-0-10_keyboard_10_n03085013_23625.png
subject-03,1,821,1.07839894294739,airplane,airplane,8-0-10,0821_eid_s03_8-0-10_airplane_10_n02690373_6836.png
subject-03,1,822,0.979966163635254,clock,dog,16-0-10,0822_eid_s03_16-0-10_dog_10_n02085936_4491.png
subject-03,1,823,1.42801284790039,bottle,chair,128-0-10,0823_eid_s03_128-0-10_chair_10_n03376595_8409.png
subject-03,1,824,0.931579113006592,airplane,bear,8-0-10,0824_eid_s03_8-0-10_bear_10_n02132136_20770.png
subject-03,1,825,0.639899015426636,cat,knife,16-0-10,0825_eid_s03_16-0-10_knife_10_n03041632_992.png
subject-03,1,826,0.637363910675049,oven,bottle,64-0-10,0826_eid_s03_64-0-10_bottle_10_n03983396_14002.png
subject-03,1,827,0.679425954818726,clock,clock,4-0-10,0827_eid_s03_4-0-10_clock_10_n03196217_5688.png
subject-03,1,828,1.2309091091156,elephant,elephant,8-0-10,0828_eid_s03_8-0-10_elephant_10_n02504013_23154.png
subject-03,1,829,1.26471090316772,cat,boat,8-0-10,0829_eid_s03_8-0-10_boat_10_n03662601_3903.png
subject-03,1,830,0.652601957321167,airplane,airplane,8-0-10,0830_eid_s03_8-0-10_airplane_10_n02690373_1161.png
subject-03,1,831,1.40232586860657,knife,dog,64-0-10,0831_eid_s03_64-0-10_dog_10_n02096051_3825.png
subject-03,1,832,1.50007104873657,chair,bicycle,16-0-10,0832_eid_s03_16-0-10_bicycle_10_n03792782_1778.png
subject-03,1,833,1.09641599655151,keyboard,keyboard,4-0-10,0833_eid_s03_4-0-10_keyboard_10_n03085013_20302.png
subject-03,1,834,0.919647932052612,boat,boat,1-0-10,0834_eid_s03_1-0-10_boat_10_n04273569_10847.png
subject-03,1,835,0.711925983428955,cat,dog,32-0-10,0835_eid_s03_32-0-10_dog_10_n02088238_4028.png
subject-03,1,836,1.49743294715881,bear,bird,2-0-10,0836_eid_s03_2-0-10_bird_10_n02056570_9511.png
subject-03,1,837,1.31929087638855,elephant,chair,16-0-10,0837_eid_s03_16-0-10_chair_10_n03376595_3130.png
subject-03,1,838,1.3191180229187,cat,truck,64-0-10,0838_eid_s03_64-0-10_truck_10_n03417042_26843.png
subject-03,1,839,1.47080302238464,bottle,chair,128-0-10,0839_eid_s03_128-0-10_chair_10_n04099969_20604.png
subject-03,1,840,1.21678900718689,dog,bicycle,16-0-10,0840_eid_s03_16-0-10_bicycle_10_n02835271_3989.png
subject-03,1,841,1.19641590118408,oven,airplane,2-0-10,0841_eid_s03_2-0-10_airplane_10_n02690373_1441.png
subject-03,1,842,1.49999380111694,bottle,knife,2-0-10,0842_eid_s03_2-0-10_knife_10_n03041632_22480.png
subject-03,1,843,1.49812698364258,keyboard,oven,128-0-10,0843_eid_s03_128-0-10_oven_10_n04111531_12450.png
subject-03,1,844,0.664152145385742,bicycle,bicycle,2-0-10,0844_eid_s03_2-0-10_bicycle_10_n03792782_1933.png
subject-03,1,845,1.15983295440674,knife,oven,4-0-10,0845_eid_s03_4-0-10_oven_10_n04111531_5776.png
subject-03,1,846,1.47560882568359,bear,bear,2-0-10,0846_eid_s03_2-0-10_bear_10_n02134084_8503.png
subject-03,1,847,1.50003099441528,dog,bear,16-0-10,0847_eid_s03_16-0-10_bear_10_n02133161_25789.png
subject-03,1,848,1.42712593078613,truck,truck,1-0-10,0848_eid_s03_1-0-10_truck_10_n03417042_9668.png
subject-03,1,849,1.5001060962677,knife,bird,8-0-10,0849_eid_s03_8-0-10_bird_10_n02025239_17670.png
subject-03,1,850,1.12472295761108,boat,dog,4-0-10,0850_eid_s03_4-0-10_dog_10_n02086910_8694.png
subject-03,1,851,1.37254905700684,dog,dog,4-0-10,0851_eid_s03_4-0-10_dog_10_n02099601_9973.png
subject-03,1,852,1.00048995018005,car,car,2-0-10,0852_eid_s03_2-0-10_car_10_n03100240_18788.png
subject-03,1,853,1.50000810623169,bottle,knife,2-0-10,0853_eid_s03_2-0-10_knife_10_n03041632_25512.png
subject-03,1,854,1.50008106231689,keyboard,boat,128-0-10,0854_eid_s03_128-0-10_boat_10_n04612504_1889.png
subject-03,1,855,0.991820096969604,airplane,boat,4-0-10,0855_eid_s03_4-0-10_boat_10_n04612504_27504.png
subject-03,1,856,1.16767907142639,bird,bird,1-0-10,0856_eid_s03_1-0-10_bird_10_n02027492_5222.png
subject-03,1,857,0.925510883331299,bicycle,bicycle,1-0-10,0857_eid_s03_1-0-10_bicycle_10_n02835271_17184.png
subject-03,1,858,0.745195865631104,car,boat,1-0-10,0858_eid_s03_1-0-10_boat_10_n04273569_29113.png
subject-03,1,859,1.50000786781311,bicycle,airplane,64-0-10,0859_eid_s03_64-0-10_airplane_10_n02690373_3313.png
subject-03,1,860,0.888828039169312,elephant,elephant,4-0-10,0860_eid_s03_4-0-10_elephant_10_n02504458_6339.png
subject-03,1,861,0.866958141326904,cat,chair,8-0-10,0861_eid_s03_8-0-10_chair_10_n04099969_3404.png
subject-03,1,862,1.27641606330872,bird,bear,4-0-10,0862_eid_s03_4-0-10_bear_10_n02133161_9098.png
subject-03,1,863,0.772525787353516,cat,bottle,64-0-10,0863_eid_s03_64-0-10_bottle_10_n02823428_1034.png
subject-03,1,864,1.38015389442444,cat,bicycle,16-0-10,0864_eid_s03_16-0-10_bicycle_10_n02835271_18228.png
subject-03,1,865,1.24584484100342,bird,bottle,64-0-10,0865_eid_s03_64-0-10_bottle_10_n04591713_5815.png
subject-03,1,866,1.26818513870239,cat,truck,64-0-10,0866_eid_s03_64-0-10_truck_10_n03796401_1458.png
subject-03,1,867,0.535822868347168,cat,elephant,32-0-10,0867_eid_s03_32-0-10_elephant_10_n02504013_7732.png
subject-03,1,868,1.39742088317871,elephant,bear,16-0-10,0868_eid_s03_16-0-10_bear_10_n02134418_17.png
subject-03,1,869,0.755268096923828,cat,keyboard,8-0-10,0869_eid_s03_8-0-10_keyboard_10_n03085013_22187.png
subject-03,1,870,0.627127885818481,cat,cat,64-0-10,0870_eid_s03_64-0-10_cat_10_n02125311_42593.png
subject-03,1,871,0.616812944412231,cat,elephant,32-0-10,0871_eid_s03_32-0-10_elephant_10_n02504458_10344.png
subject-03,1,872,1.50008583068848,oven,cat,128-0-10,0872_eid_s03_128-0-10_cat_10_n02125311_2981.png
subject-03,1,873,0.848453998565674,truck,boat,2-0-10,0873_eid_s03_2-0-10_boat_10_n03662601_2171.png
subject-03,1,874,1.48457789421082,car,dog,32-0-10,0874_eid_s03_32-0-10_dog_10_n02105855_995.png
subject-03,1,875,NaN,na,bear,1-0-10,0875_eid_s03_1-0-10_bear_10_n02134084_18083.png
subject-03,1,876,1.21170806884766,keyboard,dog,16-0-10,0876_eid_s03_16-0-10_dog_10_n02107142_9379.png
subject-03,1,877,0.807940006256104,car,keyboard,32-0-10,0877_eid_s03_32-0-10_keyboard_10_n03085013_24030.png
subject-03,1,878,1.10951995849609,bird,oven,8-0-10,0878_eid_s03_8-0-10_oven_10_n04111531_114.png
subject-03,1,879,0.979344129562378,boat,keyboard,16-0-10,0879_eid_s03_16-0-10_keyboard_10_n03085013_6643.png
subject-03,1,880,1.45722198486328,keyboard,car,16-0-10,0880_eid_s03_16-0-10_car_10_n02814533_28371.png
subject-03,1,881,1.28820586204529,bird,elephant,128-0-10,0881_eid_s03_128-0-10_elephant_10_n02504013_6903.png
subject-03,1,882,1.1362030506134,oven,truck,128-0-10,0882_eid_s03_128-0-10_truck_10_n03796401_4898.png
subject-03,1,883,1.27189588546753,elephant,elephant,1-0-10,0883_eid_s03_1-0-10_elephant_10_n02504013_6287.png
subject-03,1,884,1.29750204086304,dog,dog,16-0-10,0884_eid_s03_16-0-10_dog_10_n02096051_4804.png
subject-03,1,885,1.50011992454529,oven,bird,128-0-10,0885_eid_s03_128-0-10_bird_10_n02025239_1723.png
subject-03,1,886,1.50007390975952,bird,bottle,2-0-10,0886_eid_s03_2-0-10_bottle_10_n04591713_335.png
subject-03,1,887,1.43704390525818,cat,chair,128-0-10,0887_eid_s03_128-0-10_chair_10_n02791124_1482.png
subject-03,1,888,1.3152129650116,truck,truck,1-0-10,0888_eid_s03_1-0-10_truck_10_n04467665_9589.png
subject-03,1,889,1.4745762348175,bottle,keyboard,16-0-10,0889_eid_s03_16-0-10_keyboard_10_n04505470_3961.png
subject-03,1,890,1.09439897537231,truck,truck,1-0-10,0890_eid_s03_1-0-10_truck_10_n03417042_8953.png
subject-03,1,891,1.07839202880859,bird,bird,1-0-10,0891_eid_s03_1-0-10_bird_10_n01798484_4934.png
subject-03,1,892,1.05597996711731,boat,boat,16-0-10,0892_eid_s03_16-0-10_boat_10_n04612504_1491.png
subject-03,1,893,1.39215302467346,bear,car,64-0-10,0893_eid_s03_64-0-10_car_10_n04285008_11893.png
subject-03,1,894,1.05358600616455,boat,boat,1-0-10,0894_eid_s03_1-0-10_boat_10_n02951358_9323.png
subject-03,1,895,1.00148320198059,bird,airplane,32-0-10,0895_eid_s03_32-0-10_airplane_10_n02690373_2823.png
subject-03,1,896,1.35725498199463,boat,boat,4-0-10,0896_eid_s03_4-0-10_boat_10_n04612504_21132.png
subject-03,1,897,1.41554307937622,airplane,oven,32-0-10,0897_eid_s03_32-0-10_oven_10_n04111531_9314.png
subject-03,1,898,1.45904207229614,elephant,cat,32-0-10,0898_eid_s03_32-0-10_cat_10_n02123045_12766.png
subject-03,1,899,1.28672909736633,bird,elephant,128-0-10,0899_eid_s03_128-0-10_elephant_10_n02504013_6501.png
subject-03,1,900,0.996510028839111,cat,clock,64-0-10,0900_eid_s03_64-0-10_clock_10_n04548280_1324.png
subject-03,1,901,0.916578054428101,keyboard,keyboard,1-0-10,0901_eid_s03_1-0-10_keyboard_10_n04505470_1744.png
subject-03,1,902,0.914427042007446,clock,clock,1-0-10,0902_eid_s03_1-0-10_clock_10_n04548280_4560.png
subject-03,1,903,1.12801384925842,elephant,elephant,2-0-10,0903_eid_s03_2-0-10_elephant_10_n02504458_3063.png
subject-03,1,904,1.07205510139465,bird,bird,64-0-10,0904_eid_s03_64-0-10_bird_10_n01514859_6021.png
subject-03,1,905,1.47602605819702,bottle,bicycle,64-0-10,0905_eid_s03_64-0-10_bicycle_10_n03792782_9412.png
subject-03,1,906,1.49150705337524,chair,bird,128-0-10,0906_eid_s03_128-0-10_bird_10_n02009229_5290.png
subject-03,1,907,0.769360065460205,clock,clock,1-0-10,0907_eid_s03_1-0-10_clock_10_n03196217_3063.png
subject-03,1,908,1.49299192428589,oven,bottle,4-0-10,0908_eid_s03_4-0-10_bottle_10_n04560804_15122.png
subject-03,1,909,1.17081713676453,clock,clock,1-0-10,0909_eid_s03_1-0-10_clock_10_n04548280_1051.png
subject-03,1,910,1.2165470123291,bear,keyboard,32-0-10,0910_eid_s03_32-0-10_keyboard_10_n03085013_23566.png
subject-03,1,911,1.19674897193909,bear,bear,4-0-10,0911_eid_s03_4-0-10_bear_10_n02133161_499.png
subject-03,1,912,1.50010204315186,knife,bird,8-0-10,0912_eid_s03_8-0-10_bird_10_n02009912_27132.png
subject-03,1,913,1.3901379108429,elephant,bear,64-0-10,0913_eid_s03_64-0-10_bear_10_n02134084_5794.png
subject-03,1,914,1.27601408958435,dog,dog,2-0-10,0914_eid_s03_2-0-10_dog_10_n02102177_3185.png
subject-03,1,915,1.07988309860229,bird,cat,16-0-10,0915_eid_s03_16-0-10_cat_10_n02123597_6456.png
subject-03,1,916,0.893468141555786,knife,keyboard,8-0-10,0916_eid_s03_8-0-10_keyboard_10_n03085013_17035.png
subject-03,1,917,0.999393939971924,clock,clock,4-0-10,0917_eid_s03_4-0-10_clock_10_n04548280_4526.png
subject-03,1,918,0.975160121917725,bird,bird,2-0-10,0918_eid_s03_2-0-10_bird_10_n02025239_15032.png
subject-03,1,919,1.33112406730652,cat,knife,4-0-10,0919_eid_s03_4-0-10_knife_10_n03041632_39739.png
subject-03,1,920,0.894767999649048,keyboard,keyboard,8-0-10,0920_eid_s03_8-0-10_keyboard_10_n04505470_4776.png
subject-03,1,921,0.990923881530762,bird,bear,16-0-10,0921_eid_s03_16-0-10_bear_10_n02132136_2765.png
subject-03,1,922,1.29485511779785,cat,knife,8-0-10,0922_eid_s03_8-0-10_knife_10_n03041632_86783.png
subject-03,1,923,1.15231013298035,keyboard,oven,2-0-10,0923_eid_s03_2-0-10_oven_10_n04111531_12820.png
subject-03,1,924,1.19001698493958,bear,bear,2-0-10,0924_eid_s03_2-0-10_bear_10_n02132136_2372.png
subject-03,1,925,0.907948970794678,dog,dog,4-0-10,0925_eid_s03_4-0-10_dog_10_n02086079_29044.png
subject-03,1,926,0.861636161804199,boat,boat,4-0-10,0926_eid_s03_4-0-10_boat_10_n02951358_16217.png
subject-03,1,927,0.993932962417603,airplane,airplane,2-0-10,0927_eid_s03_2-0-10_airplane_10_n02690373_4064.png
subject-03,1,928,0.83112096786499,boat,boat,1-0-10,0928_eid_s03_1-0-10_boat_10_n04273569_6158.png
subject-03,1,929,1.04528212547302,knife,knife,4-0-10,0929_eid_s03_4-0-10_knife_10_n03041632_39840.png
subject-03,1,930,1.19498205184937,cat,cat,8-0-10,0930_eid_s03_8-0-10_cat_10_n02123159_5733.png
subject-03,1,931,1.50000905990601,dog,boat,32-0-10,0931_eid_s03_32-0-10_boat_10_n03344393_5599.png
subject-03,1,932,0.606504917144775,cat,clock,8-0-10,0932_eid_s03_8-0-10_clock_10_n03196217_884.png
subject-03,1,933,0.796722888946533,elephant,elephant,1-0-10,0933_eid_s03_1-0-10_elephant_10_n02504458_12074.png
subject-03,1,934,0.804481029510498,cat,elephant,16-0-10,0934_eid_s03_16-0-10_elephant_10_n02504458_2054.png
subject-03,1,935,1.1362030506134,dog,bear,64-0-10,0935_eid_s03_64-0-10_bear_10_n02132136_949.png
subject-03,1,936,0.894021034240723,knife,knife,4-0-10,0936_eid_s03_4-0-10_knife_10_n03041632_32054.png
subject-03,1,937,1.50003600120544,bicycle,airplane,32-0-10,0937_eid_s03_32-0-10_airplane_10_n02690373_2024.png
subject-03,1,938,1.41368913650513,oven,chair,4-0-10,0938_eid_s03_4-0-10_chair_10_n04429376_33792.png
subject-03,1,939,1.49155807495117,truck,cat,128-0-10,0939_eid_s03_128-0-10_cat_10_n02125311_19340.png
subject-03,1,940,1.27314805984497,oven,bottle,4-0-10,0940_eid_s03_4-0-10_bottle_10_n04557648_1938.png
subject-03,1,941,1.17108106613159,dog,dog,1-0-10,0941_eid_s03_1-0-10_dog_10_n02097209_5571.png
subject-03,1,942,1.50011706352234,bottle,chair,1-0-10,0942_eid_s03_1-0-10_chair_10_n04099969_4675.png
subject-03,1,943,1.33042216300964,bear,dog,32-0-10,0943_eid_s03_32-0-10_dog_10_n02113624_2109.png
subject-03,1,944,0.814381837844849,car,car,2-0-10,0944_eid_s03_2-0-10_car_10_n03100240_2539.png
subject-03,1,945,1.31844902038574,bird,bird,16-0-10,0945_eid_s03_16-0-10_bird_10_n01855032_8095.png
subject-03,1,946,1.39594483375549,keyboard,bottle,1-0-10,0946_eid_s03_1-0-10_bottle_10_n04591713_956.png
subject-03,1,947,0.957750797271729,elephant,elephant,1-0-10,0947_eid_s03_1-0-10_elephant_10_n02504013_5351.png
subject-03,1,948,1.10986280441284,bird,cat,64-0-10,0948_eid_s03_64-0-10_cat_10_n02125311_47792.png
subject-03,1,949,1.17949986457825,truck,truck,2-0-10,0949_eid_s03_2-0-10_truck_10_n04467665_78325.png
subject-03,1,950,1.04524111747742,bottle,dog,4-0-10,0950_eid_s03_4-0-10_dog_10_n02093991_141.png
subject-03,1,951,0.914889097213745,elephant,elephant,4-0-10,0951_eid_s03_4-0-10_elephant_10_n02504013_1865.png
subject-03,1,952,0.900701999664307,airplane,airplane,2-0-10,0952_eid_s03_2-0-10_airplane_10_n02690373_2316.png
subject-03,1,953,1.40679502487183,chair,clock,32-0-10,0953_eid_s03_32-0-10_clock_10_n04548280_1119.png
subject-03,1,954,1.47861099243164,knife,keyboard,128-0-10,0954_eid_s03_128-0-10_keyboard_10_n03085013_18854.png
subject-03,1,955,1.26620507240295,truck,clock,8-0-10,0955_eid_s03_8-0-10_clock_10_n03196217_5433.png
subject-03,1,956,1.27599906921387,bird,knife,32-0-10,0956_eid_s03_32-0-10_knife_10_n03041632_18141.png
subject-03,1,957,1.27192115783691,bear,bear,8-0-10,0957_eid_s03_8-0-10_bear_10_n02134084_3960.png
subject-03,1,958,1.27153611183167,dog,elephant,16-0-10,0958_eid_s03_16-0-10_elephant_10_n02504458_1727.png
subject-03,1,959,0.823367834091187,clock,clock,2-0-10,0959_eid_s03_2-0-10_clock_10_n03196217_6375.png
subject-03,1,960,1.16769909858704,bird,bicycle,128-0-10,0960_eid_s03_128-0-10_bicycle_10_n02835271_7476.png
subject-03,1,961,1.39839196205139,bottle,car,64-0-10,0961_eid_s03_64-0-10_car_10_n02814533_48754.png
subject-03,1,962,1.25619697570801,cat,cat,2-0-10,0962_eid_s03_2-0-10_cat_10_n02123159_2682.png
subject-03,1,963,1.26392197608948,elephant,truck,16-0-10,0963_eid_s03_16-0-10_truck_10_n03417042_910.png
subject-03,1,964,1.32996606826782,bird,knife,128-0-10,0964_eid_s03_128-0-10_knife_10_n03041632_15754.png
subject-03,1,965,1.21172213554382,cat,bear,32-0-10,0965_eid_s03_32-0-10_bear_10_n02134418_163.png
subject-03,1,966,1.36362504959106,dog,airplane,64-0-10,0966_eid_s03_64-0-10_airplane_10_n02690373_4134.png
subject-03,1,967,1.34520292282104,boat,airplane,32-0-10,0967_eid_s03_32-0-10_airplane_10_n02690373_2874.png
subject-03,1,968,0.701067924499512,clock,clock,2-0-10,0968_eid_s03_2-0-10_clock_10_n03196217_1272.png
subject-03,1,969,0.798877954483032,cat,boat,128-0-10,0969_eid_s03_128-0-10_boat_10_n03344393_2412.png
subject-03,1,970,1.04062104225159,bottle,boat,16-0-10,0970_eid_s03_16-0-10_boat_10_n03662601_17198.png
subject-03,1,971,1.08660292625427,bear,dog,8-0-10,0971_eid_s03_8-0-10_dog_10_n02101388_9815.png
subject-03,1,972,1.50013899803162,dog,elephant,4-0-10,0972_eid_s03_4-0-10_elephant_10_n02504013_6897.png
subject-03,1,973,1.18629598617554,dog,elephant,8-0-10,0973_eid_s03_8-0-10_elephant_10_n02504458_3953.png
subject-03,1,974,1.27386593818665,cat,knife,8-0-10,0974_eid_s03_8-0-10_knife_10_n03041632_6446.png
subject-03,1,975,0.793622970581055,cat,bottle,128-0-10,0975_eid_s03_128-0-10_bottle_10_n04557648_4106.png
subject-03,1,976,0.619658946990967,cat,truck,8-0-10,0976_eid_s03_8-0-10_truck_10_n03417042_6517.png
subject-03,1,977,1.50014281272888,bottle,knife,16-0-10,0977_eid_s03_16-0-10_knife_10_n03041632_53874.png
