subj,Session,trial,rt,object_response,category,condition,imagename
subject-01,1,1,1.176265001297,bear,oven,16-0-10,0001_eid_s01_16-0-10_oven_10_n04111531_13542.png
subject-01,1,2,0.715971946716309,car,car,4-0-10,0002_eid_s01_4-0-10_car_10_n03100240_5570.png
subject-01,1,3,0.559852123260498,cat,bird,8-0-10,0003_eid_s01_8-0-10_bird_10_n01820546_4847.png
subject-01,1,4,0.963662147521973,bear,bear,32-0-10,0004_eid_s01_32-0-10_bear_10_n02133161_15561.png
subject-01,1,5,0.835409164428711,keyboard,bird,64-0-10,0005_eid_s01_64-0-10_bird_10_n01531178_9584.png
subject-01,1,6,1.07508206367493,dog,bicycle,8-0-10,0006_eid_s01_8-0-10_bicycle_10_n02835271_18846.png
subject-01,1,7,0.696997880935669,oven,oven,4-0-10,0007_eid_s01_4-0-10_oven_10_n04111531_73.png
subject-01,1,8,0.546862125396729,clock,clock,2-0-10,0008_eid_s01_2-0-10_clock_10_n04548280_6159.png
subject-01,1,9,1.02276110649109,chair,chair,32-0-10,0009_eid_s01_32-0-10_chair_10_n03376595_9395.png
subject-01,1,10,0.816303014755249,bottle,bicycle,64-0-10,0010_eid_s01_64-0-10_bicycle_10_n02835271_1918.png
subject-01,1,11,1.22644090652466,keyboard,bicycle,128-0-10,0011_eid_s01_128-0-10_bicycle_10_n02835271_42320.png
subject-01,1,12,0.722123146057129,elephant,elephant,1-0-10,0012_eid_s01_1-0-10_elephant_10_n02504458_3628.png
subject-01,1,13,1.11795282363892,car,knife,64-0-10,0013_eid_s01_64-0-10_knife_10_n03041632_86554.png
subject-01,1,14,1.04958510398865,bear,cat,8-0-10,0014_eid_s01_8-0-10_cat_10_n02123394_1726.png
subject-01,1,15,1.02940607070923,boat,cat,32-0-10,0015_eid_s01_32-0-10_cat_10_n02123597_6721.png
subject-01,1,16,1.24545097351074,clock,oven,2-0-10,0016_eid_s01_2-0-10_oven_10_n04111531_21869.png
subject-01,1,17,1.27309513092041,dog,bear,4-0-10,0017_eid_s01_4-0-10_bear_10_n02134084_2949.png
subject-01,1,18,1.14299011230469,bird,truck,8-0-10,0018_eid_s01_8-0-10_truck_10_n03417042_18743.png
subject-01,1,19,1.27084994316101,airplane,bird,16-0-10,0019_eid_s01_16-0-10_bird_10_n01616318_4246.png
subject-01,1,20,1.33452200889587,bear,bicycle,8-0-10,0020_eid_s01_8-0-10_bicycle_10_n03792782_66771.png
subject-01,1,21,0.594458103179932,keyboard,keyboard,2-0-10,0021_eid_s01_2-0-10_keyboard_10_n04505470_3531.png
subject-01,1,22,0.600131988525391,clock,clock,8-0-10,0022_eid_s01_8-0-10_clock_10_n04548280_6463.png
subject-01,1,23,1.21405386924744,boat,keyboard,16-0-10,0023_eid_s01_16-0-10_keyboard_10_n04505470_4974.png
subject-01,1,24,0.686115026473999,keyboard,chair,4-0-10,0024_eid_s01_4-0-10_chair_10_n03376595_360.png
subject-01,1,25,1.23158192634583,bird,dog,16-0-10,0025_eid_s01_16-0-10_dog_10_n02097130_2752.png
subject-01,1,26,1.5000581741333,cat,bicycle,2-0-10,0026_eid_s01_2-0-10_bicycle_10_n02835271_3406.png
subject-01,1,27,1.07159686088562,chair,bottle,16-0-10,0027_eid_s01_16-0-10_bottle_10_n04560804_11732.png
subject-01,1,28,0.949134826660156,car,bottle,32-0-10,0028_eid_s01_32-0-10_bottle_10_n04591713_13589.png
subject-01,1,29,0.719342947006226,cat,cat,2-0-10,0029_eid_s01_2-0-10_cat_10_n02123045_4009.png
subject-01,1,30,1.50005412101746,bear,chair,8-0-10,0030_eid_s01_8-0-10_chair_10_n02791124_1704.png
subject-01,1,31,0.868928909301758,oven,bicycle,128-0-10,0031_eid_s01_128-0-10_bicycle_10_n03792782_28395.png
subject-01,1,32,1.02844882011414,cat,truck,16-0-10,0032_eid_s01_16-0-10_truck_10_n03417042_4288.png
subject-01,1,33,0.626168012619019,keyboard,keyboard,1-0-10,0033_eid_s01_1-0-10_keyboard_10_n04505470_3371.png
subject-01,1,34,0.578294992446899,cat,cat,1-0-10,0034_eid_s01_1-0-10_cat_10_n02124075_13436.png
subject-01,1,35,1.50008010864258,clock,dog,32-0-10,0035_eid_s01_32-0-10_dog_10_n02097209_8270.png
subject-01,1,36,1.19559597969055,dog,clock,128-0-10,0036_eid_s01_128-0-10_clock_10_n04548280_7795.png
subject-01,1,37,0.903419017791748,bottle,car,32-0-10,0037_eid_s01_32-0-10_car_10_n03100240_21737.png
subject-01,1,38,1.14300513267517,truck,clock,128-0-10,0038_eid_s01_128-0-10_clock_10_n02708093_1862.png
subject-01,1,39,1.24293303489685,elephant,bicycle,64-0-10,0039_eid_s01_64-0-10_bicycle_10_n03792782_9412.png
subject-01,1,40,0.809031009674072,cat,bear,32-0-10,0040_eid_s01_32-0-10_bear_10_n02134418_163.png
subject-01,1,41,1.09460401535034,boat,keyboard,16-0-10,0041_eid_s01_16-0-10_keyboard_10_n03085013_25675.png
subject-01,1,42,0.650599002838135,truck,truck,2-0-10,0042_eid_s01_2-0-10_truck_10_n03417042_1716.png
subject-01,1,43,1.1481659412384,knife,keyboard,128-0-10,0043_eid_s01_128-0-10_keyboard_10_n03085013_18854.png
subject-01,1,44,1.23622798919678,truck,bottle,32-0-10,0044_eid_s01_32-0-10_bottle_10_n04591713_4865.png
subject-01,1,45,1.02193212509155,car,bicycle,32-0-10,0045_eid_s01_32-0-10_bicycle_10_n03792782_693.png
subject-01,1,46,1.48371887207031,bicycle,bottle,1-0-10,0046_eid_s01_1-0-10_bottle_10_n04557648_264.png
subject-01,1,47,0.811625003814697,knife,knife,2-0-10,0047_eid_s01_2-0-10_knife_10_n03041632_25512.png
subject-01,1,48,1.15144801139832,boat,boat,16-0-10,0048_eid_s01_16-0-10_boat_10_n03344393_2381.png
subject-01,1,49,1.29143404960632,oven,dog,128-0-10,0049_eid_s01_128-0-10_dog_10_n02110627_17670.png
subject-01,1,50,1.24695611000061,bottle,bear,64-0-10,0050_eid_s01_64-0-10_bear_10_n02133161_15981.png
subject-01,1,51,1.14873790740967,car,elephant,16-0-10,0051_eid_s01_16-0-10_elephant_10_n02504458_3570.png
subject-01,1,52,0.812573909759521,truck,truck,4-0-10,0052_eid_s01_4-0-10_truck_10_n03417042_6241.png
subject-01,1,53,1.15828704833984,boat,bird,8-0-10,0053_eid_s01_8-0-10_bird_10_n02025239_17670.png
subject-01,1,54,0.936166048049927,bear,dog,16-0-10,0054_eid_s01_16-0-10_dog_10_n02106030_19249.png
subject-01,1,55,1.03435587882996,bicycle,keyboard,32-0-10,0055_eid_s01_32-0-10_keyboard_10_n04505470_2326.png
subject-01,1,56,0.680009126663208,clock,dog,16-0-10,0056_eid_s01_16-0-10_dog_10_n02107142_9379.png
subject-01,1,57,1.03160285949707,car,cat,64-0-10,0057_eid_s01_64-0-10_cat_10_n02123394_1828.png
subject-01,1,58,1.28148198127747,oven,car,32-0-10,0058_eid_s01_32-0-10_car_10_n03100240_4605.png
subject-01,1,59,0.933128118515015,bicycle,bicycle,4-0-10,0059_eid_s01_4-0-10_bicycle_10_n03792782_6765.png
subject-01,1,60,1.09498500823975,airplane,boat,8-0-10,0060_eid_s01_8-0-10_boat_10_n03344393_8455.png
subject-01,1,61,1.22491097450256,car,oven,16-0-10,0061_eid_s01_16-0-10_oven_10_n04111531_8603.png
subject-01,1,62,0.651141166687012,bird,bird,2-0-10,0062_eid_s01_2-0-10_bird_10_n02051845_2574.png
subject-01,1,63,0.662677049636841,boat,boat,4-0-10,0063_eid_s01_4-0-10_boat_10_n04612504_15875.png
subject-01,1,64,1.08223700523376,bicycle,bottle,4-0-10,0064_eid_s01_4-0-10_bottle_10_n03983396_7337.png
subject-01,1,65,0.786207914352417,clock,clock,8-0-10,0065_eid_s01_8-0-10_clock_10_n02708093_6822.png
subject-01,1,66,0.843914031982422,truck,truck,2-0-10,0066_eid_s01_2-0-10_truck_10_n04467665_15994.png
subject-01,1,67,1.22382020950317,elephant,cat,128-0-10,0067_eid_s01_128-0-10_cat_10_n02123597_6291.png
subject-01,1,68,0.753518104553223,bird,bird,8-0-10,0068_eid_s01_8-0-10_bird_10_n01817953_1734.png
subject-01,1,69,0.69323992729187,cat,elephant,32-0-10,0069_eid_s01_32-0-10_elephant_10_n02504458_6880.png
subject-01,1,70,0.825191020965576,cat,cat,16-0-10,0070_eid_s01_16-0-10_cat_10_n02123597_13197.png
subject-01,1,71,1.24513411521912,oven,bicycle,64-0-10,0071_eid_s01_64-0-10_bicycle_10_n03792782_973.png
subject-01,1,72,0.576925039291382,cat,cat,2-0-10,0072_eid_s01_2-0-10_cat_10_n02124075_8310.png
subject-01,1,73,1.20061779022217,dog,oven,32-0-10,0073_eid_s01_32-0-10_oven_10_n04111531_5168.png
subject-01,1,74,0.656498908996582,airplane,airplane,1-0-10,0074_eid_s01_1-0-10_airplane_10_n02690373_4893.png
subject-01,1,75,1.26238799095154,dog,dog,1-0-10,0075_eid_s01_1-0-10_dog_10_n02086240_3614.png
subject-01,1,76,1.29197001457214,boat,oven,16-0-10,0076_eid_s01_16-0-10_oven_10_n04111531_2937.png
subject-01,1,77,1.28819799423218,truck,clock,1-0-10,0077_eid_s01_1-0-10_clock_10_n03196217_2022.png
subject-01,1,78,1.00168108940125,chair,bottle,64-0-10,0078_eid_s01_64-0-10_bottle_10_n04591713_2732.png
subject-01,1,79,0.595628976821899,car,car,2-0-10,0079_eid_s01_2-0-10_car_10_n03100240_8794.png
subject-01,1,80,1.23341608047485,airplane,airplane,16-0-10,0080_eid_s01_16-0-10_airplane_10_n02690373_3640.png
subject-01,1,81,1.02425694465637,bear,bicycle,64-0-10,0081_eid_s01_64-0-10_bicycle_10_n03792782_41097.png
subject-01,1,82,1.04223394393921,car,dog,64-0-10,0082_eid_s01_64-0-10_dog_10_n02090721_6770.png
subject-01,1,83,0.974218845367432,cat,cat,16-0-10,0083_eid_s01_16-0-10_cat_10_n02123597_28968.png
subject-01,1,84,0.837631940841675,elephant,elephant,1-0-10,0084_eid_s01_1-0-10_elephant_10_n02504013_5894.png
subject-01,1,85,1.27984189987183,oven,oven,32-0-10,0085_eid_s01_32-0-10_oven_10_n04111531_9314.png
subject-01,1,86,0.665245056152344,elephant,elephant,1-0-10,0086_eid_s01_1-0-10_elephant_10_n02504458_12074.png
subject-01,1,87,1.24907803535461,truck,boat,4-0-10,0087_eid_s01_4-0-10_boat_10_n03344393_3773.png
subject-01,1,88,1.38105010986328,bicycle,truck,128-0-10,0088_eid_s01_128-0-10_truck_10_n04467665_80153.png
subject-01,1,89,1.32473087310791,keyboard,chair,128-0-10,0089_eid_s01_128-0-10_chair_10_n04099969_20604.png
subject-01,1,90,1.22875213623047,bear,keyboard,32-0-10,0090_eid_s01_32-0-10_keyboard_10_n03085013_23625.png
subject-01,1,91,1.31262707710266,dog,truck,64-0-10,0091_eid_s01_64-0-10_truck_10_n03796401_1458.png
subject-01,1,92,0.648203134536743,car,car,4-0-10,0092_eid_s01_4-0-10_car_10_n03100240_18711.png
subject-01,1,93,1.19590187072754,bird,truck,128-0-10,0093_eid_s01_128-0-10_truck_10_n03796401_2988.png
subject-01,1,94,0.673929929733276,truck,truck,2-0-10,0094_eid_s01_2-0-10_truck_10_n03417042_7096.png
subject-01,1,95,0.561676025390625,cat,dog,8-0-10,0095_eid_s01_8-0-10_dog_10_n02105855_9345.png
subject-01,1,96,1.19142389297485,airplane,bird,32-0-10,0096_eid_s01_32-0-10_bird_10_n01796340_8342.png
subject-01,1,97,0.781322002410889,airplane,airplane,8-0-10,0097_eid_s01_8-0-10_airplane_10_n02690373_7293.png
subject-01,1,98,1.2529308795929,bird,car,64-0-10,0098_eid_s01_64-0-10_car_10_n04285008_9811.png
subject-01,1,99,1.21280598640442,dog,knife,8-0-10,0099_eid_s01_8-0-10_knife_10_n03041632_86783.png
subject-01,1,100,1.20066499710083,elephant,oven,16-0-10,0100_eid_s01_16-0-10_oven_10_n04111531_9867.png
subject-01,1,101,1.17835307121277,car,truck,128-0-10,0101_eid_s01_128-0-10_truck_10_n04467665_22573.png
subject-01,1,102,1.37834405899048,clock,car,128-0-10,0102_eid_s01_128-0-10_car_10_n02814533_23512.png
subject-01,1,103,1.07014298439026,cat,bicycle,16-0-10,0103_eid_s01_16-0-10_bicycle_10_n03792782_4895.png
subject-01,1,104,0.705810785293579,keyboard,keyboard,2-0-10,0104_eid_s01_2-0-10_keyboard_10_n03085013_23554.png
subject-01,1,105,0.745707035064697,bear,bear,1-0-10,0105_eid_s01_1-0-10_bear_10_n02134084_8601.png
subject-01,1,106,0.903726100921631,bicycle,bicycle,8-0-10,0106_eid_s01_8-0-10_bicycle_10_n03792782_126.png
subject-01,1,107,0.70527195930481,chair,chair,1-0-10,0107_eid_s01_1-0-10_chair_10_n04099969_3583.png
subject-01,1,108,1.19316720962524,cat,bicycle,8-0-10,0108_eid_s01_8-0-10_bicycle_10_n02835271_976.png
subject-01,1,109,1.18883490562439,elephant,oven,32-0-10,0109_eid_s01_32-0-10_oven_10_n04111531_10313.png
subject-01,1,110,0.628917217254639,oven,oven,1-0-10,0110_eid_s01_1-0-10_oven_10_n04111531_8984.png
subject-01,1,111,1.1165611743927,bear,elephant,8-0-10,0111_eid_s01_8-0-10_elephant_10_n02504013_3181.png
subject-01,1,112,1.33246088027954,chair,keyboard,64-0-10,0112_eid_s01_64-0-10_keyboard_10_n03085013_21490.png
subject-01,1,113,0.978152990341187,bird,bird,4-0-10,0113_eid_s01_4-0-10_bird_10_n01614925_2708.png
subject-01,1,114,1.40409207344055,oven,bottle,16-0-10,0114_eid_s01_16-0-10_bottle_10_n03983396_3109.png
subject-01,1,115,1.06788396835327,bicycle,bear,128-0-10,0115_eid_s01_128-0-10_bear_10_n02134418_377.png
subject-01,1,116,1.21570110321045,car,knife,16-0-10,0116_eid_s01_16-0-10_knife_10_n03041632_7680.png
subject-01,1,117,0.735384941101074,truck,truck,4-0-10,0117_eid_s01_4-0-10_truck_10_n03417042_3807.png
subject-01,1,118,0.925235033035278,bicycle,elephant,128-0-10,0118_eid_s01_128-0-10_elephant_10_n02504013_6501.png
subject-01,1,119,1.32711315155029,bicycle,bicycle,32-0-10,0119_eid_s01_32-0-10_bicycle_10_n03792782_5517.png
subject-01,1,120,1.15696096420288,keyboard,bottle,128-0-10,0120_eid_s01_128-0-10_bottle_10_n02823428_5791.png
subject-01,1,121,1.36306309700012,bicycle,car,128-0-10,0121_eid_s01_128-0-10_car_10_n04285008_10144.png
subject-01,1,122,0.696604013442993,cat,cat,4-0-10,0122_eid_s01_4-0-10_cat_10_n02123159_5764.png
subject-01,1,123,1.27457404136658,airplane,dog,16-0-10,0123_eid_s01_16-0-10_dog_10_n02085936_4491.png
subject-01,1,124,1.194167137146,truck,bicycle,32-0-10,0124_eid_s01_32-0-10_bicycle_10_n03792782_6159.png
subject-01,1,125,0.603861093521118,clock,clock,4-0-10,0125_eid_s01_4-0-10_clock_10_n04548280_2404.png
subject-01,1,126,1.27185988426208,oven,bottle,64-0-10,0126_eid_s01_64-0-10_bottle_10_n04591713_360.png
subject-01,1,127,1.37968182563782,elephant,airplane,16-0-10,0127_eid_s01_16-0-10_airplane_10_n02690373_1909.png
subject-01,1,128,0.765542984008789,bear,bear,2-0-10,0128_eid_s01_2-0-10_bear_10_n02133161_9724.png
subject-01,1,129,0.575257062911987,car,car,2-0-10,0129_eid_s01_2-0-10_car_10_n04285008_5897.png
subject-01,1,130,0.649116039276123,bicycle,bicycle,1-0-10,0130_eid_s01_1-0-10_bicycle_10_n02835271_9807.png
subject-01,1,131,0.706820964813232,keyboard,keyboard,1-0-10,0131_eid_s01_1-0-10_keyboard_10_n03085013_23286.png
subject-01,1,132,0.790729999542236,clock,clock,2-0-10,0132_eid_s01_2-0-10_clock_10_n02708093_772.png
subject-01,1,133,1.17253589630127,clock,clock,4-0-10,0133_eid_s01_4-0-10_clock_10_n03196217_820.png
subject-01,1,134,1.26850295066833,car,dog,32-0-10,0134_eid_s01_32-0-10_dog_10_n02093754_6351.png
subject-01,1,135,1.24003410339355,keyboard,truck,8-0-10,0135_eid_s01_8-0-10_truck_10_n03417042_27093.png
subject-01,1,136,0.6719069480896,bicycle,bicycle,4-0-10,0136_eid_s01_4-0-10_bicycle_10_n03792782_30530.png
subject-01,1,137,0.911690950393677,clock,bottle,4-0-10,0137_eid_s01_4-0-10_bottle_10_n03937543_5215.png
subject-01,1,138,0.649465084075928,boat,boat,2-0-10,0138_eid_s01_2-0-10_boat_10_n02951358_9933.png
subject-01,1,139,0.889501094818115,boat,dog,4-0-10,0139_eid_s01_4-0-10_dog_10_n02086910_8694.png
subject-01,1,140,0.923081874847412,bottle,knife,8-0-10,0140_eid_s01_8-0-10_knife_10_n03041632_3504.png
subject-01,1,141,1.13910293579102,keyboard,knife,128-0-10,0141_eid_s01_128-0-10_knife_10_n03041632_15754.png
subject-01,1,142,0.683014869689941,boat,truck,8-0-10,0142_eid_s01_8-0-10_truck_10_n04467665_45306.png
subject-01,1,143,0.896723985671997,elephant,elephant,1-0-10,0143_eid_s01_1-0-10_elephant_10_n02504013_5351.png
subject-01,1,144,1.40460300445557,oven,bottle,2-0-10,0144_eid_s01_2-0-10_bottle_10_n03937543_7763.png
subject-01,1,145,1.10630702972412,car,bird,32-0-10,0145_eid_s01_32-0-10_bird_10_n01843383_91.png
subject-01,1,146,0.694018125534058,clock,clock,4-0-10,0146_eid_s01_4-0-10_clock_10_n04548280_28.png
subject-01,1,147,1.08997488021851,cat,knife,16-0-10,0147_eid_s01_16-0-10_knife_10_n03041632_102828.png
subject-01,1,148,1.17216014862061,keyboard,car,128-0-10,0148_eid_s01_128-0-10_car_10_n03100240_7520.png
subject-01,1,149,1.20750403404236,bicycle,knife,16-0-10,0149_eid_s01_16-0-10_knife_10_n03041632_53874.png
subject-01,1,150,1.04734015464783,airplane,boat,16-0-10,0150_eid_s01_16-0-10_boat_10_n04273569_3896.png
subject-01,1,151,0.691209077835083,airplane,airplane,2-0-10,0151_eid_s01_2-0-10_airplane_10_n02690373_6002.png
subject-01,1,152,0.867341995239258,keyboard,chair,8-0-10,0152_eid_s01_8-0-10_chair_10_n04099969_7191.png
subject-01,1,153,1.00263595581055,truck,dog,32-0-10,0153_eid_s01_32-0-10_dog_10_n02101388_4808.png
subject-01,1,154,0.960471868515015,bottle,keyboard,16-0-10,0154_eid_s01_16-0-10_keyboard_10_n03085013_24538.png
subject-01,1,155,0.678352117538452,cat,knife,128-0-10,0155_eid_s01_128-0-10_knife_10_n03041632_85488.png
subject-01,1,156,0.758144855499268,car,car,4-0-10,0156_eid_s01_4-0-10_car_10_n04285008_7630.png
subject-01,1,157,0.824069023132324,airplane,airplane,8-0-10,0157_eid_s01_8-0-10_airplane_10_n02690373_2941.png
subject-01,1,158,0.811819076538086,cat,bird,64-0-10,0158_eid_s01_64-0-10_bird_10_n01514859_6021.png
subject-01,1,159,1.49561476707458,chair,clock,64-0-10,0159_eid_s01_64-0-10_clock_10_n04548280_3293.png
subject-01,1,160,0.771529912948608,oven,oven,4-0-10,0160_eid_s01_4-0-10_oven_10_n04111531_4998.png
subject-01,1,161,0.929703950881958,car,bird,128-0-10,0161_eid_s01_128-0-10_bird_10_n02028035_32993.png
subject-01,1,162,0.729628801345825,bird,bird,2-0-10,0162_eid_s01_2-0-10_bird_10_n01843383_7800.png
subject-01,1,163,1.17951703071594,elephant,bear,64-0-10,0163_eid_s01_64-0-10_bear_10_n02132136_15174.png
subject-01,1,164,1.49999690055847,oven,oven,4-0-10,0164_eid_s01_4-0-10_oven_10_n04111531_7266.png
subject-01,1,165,1.24306488037109,keyboard,cat,128-0-10,0165_eid_s01_128-0-10_cat_10_n02124075_6464.png
subject-01,1,166,1.23098492622375,bird,bicycle,16-0-10,0166_eid_s01_16-0-10_bicycle_10_n02835271_4667.png
subject-01,1,167,1.25847291946411,car,chair,32-0-10,0167_eid_s01_32-0-10_chair_10_n04099969_2532.png
subject-01,1,168,0.878390073776245,oven,bottle,4-0-10,0168_eid_s01_4-0-10_bottle_10_n04560804_15683.png
subject-01,1,169,1.40021395683289,chair,chair,8-0-10,0169_eid_s01_8-0-10_chair_10_n04099969_6825.png
subject-01,1,170,1.47405219078064,clock,oven,1-0-10,0170_eid_s01_1-0-10_oven_10_n04111531_1612.png
subject-01,1,171,0.845826864242554,clock,clock,2-0-10,0171_eid_s01_2-0-10_clock_10_n02708093_1701.png
subject-01,1,172,1.1195650100708,elephant,elephant,32-0-10,0172_eid_s01_32-0-10_elephant_10_n02504013_782.png
subject-01,1,173,0.921743869781494,keyboard,dog,128-0-10,0173_eid_s01_128-0-10_dog_10_n02107908_8814.png
subject-01,1,174,0.935154914855957,bear,elephant,4-0-10,0174_eid_s01_4-0-10_elephant_10_n02504458_5816.png
subject-01,1,175,0.647305965423584,car,car,2-0-10,0175_eid_s01_2-0-10_car_10_n03100240_18788.png
subject-01,1,176,0.996731042861938,boat,airplane,16-0-10,0176_eid_s01_16-0-10_airplane_10_n02690373_7915.png
subject-01,1,177,1.05670285224915,truck,chair,4-0-10,0177_eid_s01_4-0-10_chair_10_n04429376_10544.png
subject-01,1,178,1.31887912750244,elephant,knife,32-0-10,0178_eid_s01_32-0-10_knife_10_n03041632_24883.png
subject-01,1,179,0.962442874908447,keyboard,bicycle,128-0-10,0179_eid_s01_128-0-10_bicycle_10_n03792782_10367.png
subject-01,1,180,1.48412585258484,keyboard,oven,1-0-10,0180_eid_s01_1-0-10_oven_10_n04111531_3121.png
subject-01,1,181,1.05003023147583,oven,car,128-0-10,0181_eid_s01_128-0-10_car_10_n02814533_10995.png
subject-01,1,182,1.00767779350281,keyboard,dog,128-0-10,0182_eid_s01_128-0-10_dog_10_n02112350_502.png
subject-01,1,183,1.2533221244812,car,clock,128-0-10,0183_eid_s01_128-0-10_clock_10_n04548280_5278.png
subject-01,1,184,0.733207941055298,airplane,bird,4-0-10,0184_eid_s01_4-0-10_bird_10_n02006656_713.png
subject-01,1,185,1.04321312904358,bicycle,bottle,128-0-10,0185_eid_s01_128-0-10_bottle_10_n04557648_4106.png
subject-01,1,186,1.11699485778809,car,clock,64-0-10,0186_eid_s01_64-0-10_clock_10_n02708093_1430.png
subject-01,1,187,0.652755975723267,oven,oven,1-0-10,0187_eid_s01_1-0-10_oven_10_n04111531_7664.png
subject-01,1,188,0.672516822814941,car,car,1-0-10,0188_eid_s01_1-0-10_car_10_n02814533_149.png
subject-01,1,189,1.0445921421051,bicycle,clock,64-0-10,0189_eid_s01_64-0-10_clock_10_n04548280_8296.png
subject-01,1,190,0.854398965835571,boat,bottle,64-0-10,0190_eid_s01_64-0-10_bottle_10_n04591713_5815.png
subject-01,1,191,1.18605709075928,bottle,knife,2-0-10,0191_eid_s01_2-0-10_knife_10_n03041632_90125.png
subject-01,1,192,1.19786214828491,chair,bird,64-0-10,0192_eid_s01_64-0-10_bird_10_n01534433_16586.png
subject-01,1,193,0.903777122497559,cat,cat,4-0-10,0193_eid_s01_4-0-10_cat_10_n02123394_2559.png
subject-01,1,194,1.04943180084229,bicycle,elephant,4-0-10,0194_eid_s01_4-0-10_elephant_10_n02504458_5995.png
subject-01,1,195,0.857318878173828,car,car,2-0-10,0195_eid_s01_2-0-10_car_10_n02814533_211.png
subject-01,1,196,0.735193967819214,chair,chair,1-0-10,0196_eid_s01_1-0-10_chair_10_n04429376_13328.png
subject-01,1,197,1.11511206626892,boat,keyboard,16-0-10,0197_eid_s01_16-0-10_keyboard_10_n03085013_24618.png
subject-01,1,198,1.30858397483826,chair,oven,4-0-10,0198_eid_s01_4-0-10_oven_10_n04111531_2186.png
subject-01,1,199,1.06661295890808,car,oven,8-0-10,0199_eid_s01_8-0-10_oven_10_n04111531_114.png
subject-01,1,200,0.876344919204712,car,car,1-0-10,0200_eid_s01_1-0-10_car_10_n03100240_1745.png
subject-01,1,201,0.534054040908813,cat,cat,4-0-10,0201_eid_s01_4-0-10_cat_10_n02123394_1259.png
subject-01,1,202,1.23996996879578,boat,oven,4-0-10,0202_eid_s01_4-0-10_oven_10_n04111531_5801.png
subject-01,1,203,1.39370512962341,airplane,airplane,32-0-10,0203_eid_s01_32-0-10_airplane_10_n02690373_2024.png
subject-01,1,204,1.10977411270142,car,cat,8-0-10,0204_eid_s01_8-0-10_cat_10_n02123045_12181.png
subject-01,1,205,1.27951502799988,dog,airplane,64-0-10,0205_eid_s01_64-0-10_airplane_10_n02690373_3313.png
subject-01,1,206,1.2192280292511,truck,truck,64-0-10,0206_eid_s01_64-0-10_truck_10_n04467665_80465.png
subject-01,1,207,0.76115608215332,elephant,elephant,2-0-10,0207_eid_s01_2-0-10_elephant_10_n02504013_8626.png
subject-01,1,208,1.25100994110107,chair,car,16-0-10,0208_eid_s01_16-0-10_car_10_n04285008_7904.png
subject-01,1,209,1.16075897216797,airplane,airplane,8-0-10,0209_eid_s01_8-0-10_airplane_10_n02690373_6363.png
subject-01,1,210,0.802650928497314,keyboard,cat,4-0-10,0210_eid_s01_4-0-10_cat_10_n02123045_7294.png
subject-01,1,211,1.10437297821045,keyboard,airplane,128-0-10,0211_eid_s01_128-0-10_airplane_10_n02690373_6988.png
subject-01,1,212,1.23197388648987,dog,cat,4-0-10,0212_eid_s01_4-0-10_cat_10_n02125311_25749.png
subject-01,1,213,1.23593997955322,car,bird,64-0-10,0213_eid_s01_64-0-10_bird_10_n02018207_12980.png
subject-01,1,214,1.20172190666199,clock,cat,32-0-10,0214_eid_s01_32-0-10_cat_10_n02123394_2814.png
subject-01,1,215,0.711517095565796,car,car,4-0-10,0215_eid_s01_4-0-10_car_10_n04285008_662.png
subject-01,1,216,0.793375968933105,bicycle,bicycle,2-0-10,0216_eid_s01_2-0-10_bicycle_10_n03792782_11679.png
subject-01,1,217,0.937627077102661,bicycle,dog,16-0-10,0217_eid_s01_16-0-10_dog_10_n02093428_17769.png
subject-01,1,218,1.38686895370483,airplane,dog,64-0-10,0218_eid_s01_64-0-10_dog_10_n02106030_17418.png
subject-01,1,219,1.25680708885193,chair,chair,64-0-10,0219_eid_s01_64-0-10_chair_10_n02791124_7142.png
subject-01,1,220,0.676681995391846,boat,bear,1-0-10,0220_eid_s01_1-0-10_bear_10_n02134084_18083.png
subject-01,1,221,0.588342905044556,keyboard,keyboard,2-0-10,0221_eid_s01_2-0-10_keyboard_10_n03085013_7536.png
subject-01,1,222,0.79656195640564,bird,bird,1-0-10,0222_eid_s01_1-0-10_bird_10_n01616318_2473.png
subject-01,1,223,0.766324996948242,elephant,elephant,1-0-10,0223_eid_s01_1-0-10_elephant_10_n02504458_5951.png
subject-01,1,224,1.00593709945679,airplane,airplane,4-0-10,0224_eid_s01_4-0-10_airplane_10_n02690373_5164.png
subject-01,1,225,0.745850086212158,elephant,elephant,4-0-10,0225_eid_s01_4-0-10_elephant_10_n02504013_1865.png
subject-01,1,226,0.795533895492554,knife,knife,1-0-10,0226_eid_s01_1-0-10_knife_10_n03041632_56454.png
subject-01,1,227,0.997220993041992,bicycle,bird,64-0-10,0227_eid_s01_64-0-10_bird_10_n01824575_5820.png
subject-01,1,228,1.28316402435303,cat,oven,4-0-10,0228_eid_s01_4-0-10_oven_10_n04111531_4332.png
subject-01,1,229,0.926896810531616,truck,truck,2-0-10,0229_eid_s01_2-0-10_truck_10_n04467665_41352.png
subject-01,1,230,0.662758111953735,bird,bird,8-0-10,0230_eid_s01_8-0-10_bird_10_n01514859_5668.png
subject-01,1,231,1.19656610488892,bird,oven,32-0-10,0231_eid_s01_32-0-10_oven_10_n04111531_4438.png
subject-01,1,232,1.03861093521118,cat,cat,1-0-10,0232_eid_s01_1-0-10_cat_10_n02123394_6693.png
subject-01,1,233,1.21214199066162,bear,elephant,32-0-10,0233_eid_s01_32-0-10_elephant_10_n02504458_6302.png
subject-01,1,234,1.45810198783875,clock,bottle,16-0-10,0234_eid_s01_16-0-10_bottle_10_n03937543_2329.png
subject-01,1,235,1.38375806808472,car,elephant,16-0-10,0235_eid_s01_16-0-10_elephant_10_n02504458_5155.png
subject-01,1,236,1.06560015678406,cat,bear,1-0-10,0236_eid_s01_1-0-10_bear_10_n02134084_1694.png
subject-01,1,237,NaN,na,bear,128-0-10,0237_eid_s01_128-0-10_bear_10_n02133161_1624.png
subject-01,1,238,0.757193088531494,boat,bear,64-0-10,0238_eid_s01_64-0-10_bear_10_n02132136_11027.png
subject-01,1,239,0.698920965194702,car,elephant,64-0-10,0239_eid_s01_64-0-10_elephant_10_n02504013_24621.png
subject-01,1,240,1.10881686210632,bear,knife,16-0-10,0240_eid_s01_16-0-10_knife_10_n03041632_27134.png
subject-01,1,241,1.14854502677917,bear,keyboard,32-0-10,0241_eid_s01_32-0-10_keyboard_10_n03085013_24316.png
subject-01,1,242,0.490252017974854,cat,cat,2-0-10,0242_eid_s01_2-0-10_cat_10_n02123159_3026.png
subject-01,1,243,1.32004308700562,dog,bicycle,128-0-10,0243_eid_s01_128-0-10_bicycle_10_n03792782_1475.png
subject-01,1,244,1.32389402389526,keyboard,cat,16-0-10,0244_eid_s01_16-0-10_cat_10_n02123045_20507.png
subject-01,1,245,1.0357518196106,clock,boat,64-0-10,0245_eid_s01_64-0-10_boat_10_n02951358_23759.png
subject-01,1,246,0.751671075820923,bear,bear,16-0-10,0246_eid_s01_16-0-10_bear_10_n02132136_1858.png
subject-01,1,247,1.1477210521698,truck,boat,128-0-10,0247_eid_s01_128-0-10_boat_10_n02951358_6465.png
subject-01,1,248,1.43968081474304,elephant,airplane,128-0-10,0248_eid_s01_128-0-10_airplane_10_n02690373_6223.png
subject-01,1,249,0.841129064559937,oven,boat,128-0-10,0249_eid_s01_128-0-10_boat_10_n03344393_2412.png
subject-01,1,250,1.071209192276,oven,knife,8-0-10,0250_eid_s01_8-0-10_knife_10_n03041632_6446.png
subject-01,1,251,1.35871386528015,boat,bottle,64-0-10,0251_eid_s01_64-0-10_bottle_10_n04591713_7940.png
subject-01,1,252,0.712423086166382,cat,cat,4-0-10,0252_eid_s01_4-0-10_cat_10_n02124075_13568.png
subject-01,1,253,0.498405933380127,boat,boat,2-0-10,0253_eid_s01_2-0-10_boat_10_n03662601_2171.png
subject-01,1,254,0.90205192565918,elephant,elephant,1-0-10,0254_eid_s01_1-0-10_elephant_10_n02504458_415.png
subject-01,1,255,0.710391998291016,boat,car,16-0-10,0255_eid_s01_16-0-10_car_10_n03100240_3386.png
subject-01,1,256,1.21568703651428,clock,bird,16-0-10,0256_eid_s01_16-0-10_bird_10_n02056570_6633.png
subject-01,1,257,1.3516891002655,keyboard,bottle,32-0-10,0257_eid_s01_32-0-10_bottle_10_n02823428_4232.png
subject-01,1,258,1.08927702903748,chair,boat,128-0-10,0258_eid_s01_128-0-10_boat_10_n04273569_2396.png
subject-01,1,259,0.803030014038086,knife,knife,1-0-10,0259_eid_s01_1-0-10_knife_10_n03041632_38996.png
subject-01,1,260,1.12101006507874,bicycle,oven,8-0-10,0260_eid_s01_8-0-10_oven_10_n04111531_10420.png
subject-01,1,261,1.09304594993591,keyboard,dog,128-0-10,0261_eid_s01_128-0-10_dog_10_n02094114_2394.png
subject-01,1,262,0.994693994522095,car,elephant,128-0-10,0262_eid_s01_128-0-10_elephant_10_n02504013_4247.png
subject-01,1,263,1.32834196090698,truck,chair,32-0-10,0263_eid_s01_32-0-10_chair_10_n03376595_8137.png
subject-01,1,264,1.15262007713318,clock,airplane,128-0-10,0264_eid_s01_128-0-10_airplane_10_n02690373_8524.png
subject-01,1,265,1.29815101623535,airplane,car,64-0-10,0265_eid_s01_64-0-10_car_10_n03100240_18410.png
subject-01,1,266,1.50000405311584,bicycle,clock,64-0-10,0266_eid_s01_64-0-10_clock_10_n04548280_2588.png
subject-01,1,267,0.914034843444824,bird,keyboard,32-0-10,0267_eid_s01_32-0-10_keyboard_10_n03085013_24030.png
subject-01,1,268,0.689548015594482,clock,clock,2-0-10,0268_eid_s01_2-0-10_clock_10_n03196217_6375.png
subject-01,1,269,1.0871250629425,boat,airplane,32-0-10,0269_eid_s01_32-0-10_airplane_10_n02690373_4150.png
subject-01,1,270,1.02903509140015,boat,dog,4-0-10,0270_eid_s01_4-0-10_dog_10_n02086646_6567.png
subject-01,1,271,1.05082416534424,bicycle,clock,64-0-10,0271_eid_s01_64-0-10_clock_10_n03196217_775.png
subject-01,1,272,0.930599927902222,car,car,1-0-10,0272_eid_s01_1-0-10_car_10_n02814533_57353.png
subject-01,1,273,1.50011515617371,boat,bottle,16-0-10,0273_eid_s01_16-0-10_bottle_10_n04560804_183.png
subject-01,1,274,0.880245923995972,car,car,2-0-10,0274_eid_s01_2-0-10_car_10_n04285008_10631.png
subject-01,1,275,0.7341148853302,bear,bear,2-0-10,0275_eid_s01_2-0-10_bear_10_n02132136_10057.png
subject-01,1,276,1.34611988067627,elephant,boat,128-0-10,0276_eid_s01_128-0-10_boat_10_n04273569_4605.png
subject-01,1,277,1.05169296264648,bear,cat,64-0-10,0277_eid_s01_64-0-10_cat_10_n02123597_12711.png
subject-01,1,278,1.14172601699829,bottle,bottle,1-0-10,0278_eid_s01_1-0-10_bottle_10_n04560804_5610.png
subject-01,1,279,1.11343193054199,bear,clock,32-0-10,0279_eid_s01_32-0-10_clock_10_n04548280_8412.png
subject-01,1,280,1.08522796630859,elephant,cat,2-0-10,0280_eid_s01_2-0-10_cat_10_n02123597_13834.png
subject-01,1,281,1.19116592407227,dog,dog,128-0-10,0281_eid_s01_128-0-10_dog_10_n02091831_538.png
subject-01,1,282,0.749165058135986,cat,bicycle,32-0-10,0282_eid_s01_32-0-10_bicycle_10_n03792782_10437.png
subject-01,1,283,0.658704996109009,bear,bear,2-0-10,0283_eid_s01_2-0-10_bear_10_n02132136_2372.png
subject-01,1,284,1.10826992988586,car,bicycle,128-0-10,0284_eid_s01_128-0-10_bicycle_10_n03792782_4540.png
subject-01,1,285,0.908263921737671,elephant,elephant,2-0-10,0285_eid_s01_2-0-10_elephant_10_n02504013_10152.png
subject-01,1,286,0.896122932434082,cat,boat,64-0-10,0286_eid_s01_64-0-10_boat_10_n02951358_7603.png
subject-01,1,287,0.743808031082153,bear,bear,2-0-10,0287_eid_s01_2-0-10_bear_10_n02133161_9371.png
subject-01,1,288,1.1396689414978,airplane,truck,8-0-10,0288_eid_s01_8-0-10_truck_10_n04467665_69892.png
subject-01,1,289,1.15547394752502,bottle,knife,1-0-10,0289_eid_s01_1-0-10_knife_10_n03041632_19275.png
subject-01,1,290,1.26931190490723,car,keyboard,16-0-10,0290_eid_s01_16-0-10_keyboard_10_n04505470_9446.png
subject-01,1,291,0.803102016448975,elephant,elephant,1-0-10,0291_eid_s01_1-0-10_elephant_10_n02504013_9141.png
subject-01,1,292,1.12891316413879,elephant,bird,128-0-10,0292_eid_s01_128-0-10_bird_10_n02056570_8553.png
subject-01,1,293,0.600556135177612,car,car,1-0-10,0293_eid_s01_1-0-10_car_10_n03100240_9171.png
subject-01,1,294,0.844641923904419,dog,dog,8-0-10,0294_eid_s01_8-0-10_dog_10_n02102177_1533.png
subject-01,1,295,1.07661581039429,cat,cat,64-0-10,0295_eid_s01_64-0-10_cat_10_n02124075_12464.png
subject-01,1,296,1.4380099773407,chair,chair,4-0-10,0296_eid_s01_4-0-10_chair_10_n04429376_33792.png
subject-01,1,297,1.0341100692749,bicycle,bear,128-0-10,0297_eid_s01_128-0-10_bear_10_n02133161_3258.png
subject-01,1,298,0.897995948791504,dog,dog,4-0-10,0298_eid_s01_4-0-10_dog_10_n02097130_1442.png
subject-01,1,299,1.3639121055603,keyboard,chair,4-0-10,0299_eid_s01_4-0-10_chair_10_n02791124_8970.png
subject-01,1,300,0.977406978607178,car,car,8-0-10,0300_eid_s01_8-0-10_car_10_n04285008_8545.png
subject-01,1,301,0.825137138366699,truck,truck,1-0-10,0301_eid_s01_1-0-10_truck_10_n03417042_2204.png
subject-01,1,302,0.919185876846313,bear,bear,2-0-10,0302_eid_s01_2-0-10_bear_10_n02133161_15593.png
subject-01,1,303,0.727102994918823,clock,clock,2-0-10,0303_eid_s01_2-0-10_clock_10_n04548280_5845.png
subject-01,1,304,0.996645927429199,knife,knife,4-0-10,0304_eid_s01_4-0-10_knife_10_n03041632_4975.png
subject-01,1,305,1.06231999397278,bicycle,clock,32-0-10,0305_eid_s01_32-0-10_clock_10_n03196217_4849.png
subject-01,1,306,0.940650224685669,bicycle,bicycle,2-0-10,0306_eid_s01_2-0-10_bicycle_10_n03792782_15752.png
subject-01,1,307,1.31797790527344,oven,bicycle,16-0-10,0307_eid_s01_16-0-10_bicycle_10_n02835271_29741.png
subject-01,1,308,1.06396198272705,oven,chair,4-0-10,0308_eid_s01_4-0-10_chair_10_n04099969_16619.png
subject-01,1,309,0.763819932937622,keyboard,keyboard,4-0-10,0309_eid_s01_4-0-10_keyboard_10_n04505470_4552.png
subject-01,1,310,1.08751916885376,boat,boat,8-0-10,0310_eid_s01_8-0-10_boat_10_n02951358_13144.png
subject-01,1,311,1.49544811248779,bird,bird,32-0-10,0311_eid_s01_32-0-10_bird_10_n01797886_14611.png
subject-01,1,312,0.943587064743042,knife,knife,1-0-10,0312_eid_s01_1-0-10_knife_10_n03041632_3326.png
subject-01,1,313,0.797002077102661,car,elephant,8-0-10,0313_eid_s01_8-0-10_elephant_10_n02504013_5829.png
subject-01,1,314,0.832876920700073,cat,dog,16-0-10,0314_eid_s01_16-0-10_dog_10_n02088094_2292.png
subject-01,1,315,1.06461501121521,dog,oven,8-0-10,0315_eid_s01_8-0-10_oven_10_n04111531_4944.png
subject-01,1,316,1.08234691619873,oven,oven,32-0-10,0316_eid_s01_32-0-10_oven_10_n04111531_669.png
subject-01,1,317,1.50002312660217,oven,car,64-0-10,0317_eid_s01_64-0-10_car_10_n02814533_6716.png
subject-01,1,318,1.05207300186157,bird,bear,32-0-10,0318_eid_s01_32-0-10_bear_10_n02132136_26438.png
subject-01,1,319,0.891803979873657,keyboard,bottle,4-0-10,0319_eid_s01_4-0-10_bottle_10_n03983396_3027.png
subject-01,1,320,0.748026847839355,elephant,elephant,2-0-10,0320_eid_s01_2-0-10_elephant_10_n02504013_9299.png
subject-01,1,321,0.942569971084595,airplane,knife,2-0-10,0321_eid_s01_2-0-10_knife_10_n03041632_13846.png
subject-01,1,322,0.822309017181396,bicycle,airplane,64-0-10,0322_eid_s01_64-0-10_airplane_10_n02690373_16250.png
subject-01,1,323,0.83017897605896,keyboard,boat,64-0-10,0323_eid_s01_64-0-10_boat_10_n03662601_13696.png
subject-01,1,324,0.499938011169434,cat,cat,1-0-10,0324_eid_s01_1-0-10_cat_10_n02123597_5692.png
subject-01,1,325,0.965966939926147,bear,clock,8-0-10,0325_eid_s01_8-0-10_clock_10_n02708093_3171.png
subject-01,1,326,0.797729015350342,bicycle,keyboard,128-0-10,0326_eid_s01_128-0-10_keyboard_10_n04505470_4902.png
subject-01,1,327,0.813627958297729,cat,dog,2-0-10,0327_eid_s01_2-0-10_dog_10_n02113624_1170.png
subject-01,1,328,0.523267030715942,clock,clock,2-0-10,0328_eid_s01_2-0-10_clock_10_n03196217_1272.png
subject-01,1,329,1.15913510322571,oven,cat,128-0-10,0329_eid_s01_128-0-10_cat_10_n02123394_8946.png
subject-01,1,330,0.975091934204102,car,car,8-0-10,0330_eid_s01_8-0-10_car_10_n03100240_7134.png
subject-01,1,331,0.754787921905518,bicycle,bicycle,4-0-10,0331_eid_s01_4-0-10_bicycle_10_n03792782_16034.png
subject-01,1,332,1.03264904022217,dog,dog,8-0-10,0332_eid_s01_8-0-10_dog_10_n02104029_5465.png
subject-01,1,333,0.718763113021851,keyboard,keyboard,4-0-10,0333_eid_s01_4-0-10_keyboard_10_n04505470_5011.png
subject-01,1,334,0.956138134002686,bird,bird,8-0-10,0334_eid_s01_8-0-10_bird_10_n02009912_27132.png
subject-01,1,335,1.07240200042725,knife,knife,64-0-10,0335_eid_s01_64-0-10_knife_10_n03041632_3171.png
subject-01,1,336,1.13394594192505,truck,bear,32-0-10,0336_eid_s01_32-0-10_bear_10_n02134084_21170.png
subject-01,1,337,0.707578897476196,dog,dog,4-0-10,0337_eid_s01_4-0-10_dog_10_n02086079_29044.png
subject-01,1,338,0.625459909439087,cat,cat,4-0-10,0338_eid_s01_4-0-10_cat_10_n02124075_8465.png
subject-01,1,339,0.97354793548584,boat,bird,128-0-10,0339_eid_s01_128-0-10_bird_10_n01855032_982.png
subject-01,1,340,0.876967906951904,chair,truck,32-0-10,0340_eid_s01_32-0-10_truck_10_n03417042_6373.png
subject-01,1,341,1.08467411994934,airplane,airplane,16-0-10,0341_eid_s01_16-0-10_airplane_10_n02690373_9959.png
subject-01,1,342,0.822580099105835,bottle,clock,32-0-10,0342_eid_s01_32-0-10_clock_10_n04548280_2260.png
subject-01,1,343,0.564938068389893,cat,bottle,16-0-10,0343_eid_s01_16-0-10_bottle_10_n03983396_5281.png
subject-01,1,344,0.544391870498657,cat,cat,4-0-10,0344_eid_s01_4-0-10_cat_10_n02123159_1113.png
subject-01,1,345,1.08019399642944,dog,keyboard,64-0-10,0345_eid_s01_64-0-10_keyboard_10_n03085013_20460.png
subject-01,1,346,1.22610592842102,boat,clock,8-0-10,0346_eid_s01_8-0-10_clock_10_n03196217_884.png
subject-01,1,347,1.50010299682617,truck,clock,8-0-10,0347_eid_s01_8-0-10_clock_10_n03196217_6257.png
subject-01,1,348,0.985752105712891,boat,dog,32-0-10,0348_eid_s01_32-0-10_dog_10_n02113624_2109.png
subject-01,1,349,0.805422067642212,keyboard,keyboard,1-0-10,0349_eid_s01_1-0-10_keyboard_10_n03085013_20416.png
subject-01,1,350,0.541085958480835,bird,bird,2-0-10,0350_eid_s01_2-0-10_bird_10_n01820546_4609.png
subject-01,1,351,0.968865156173706,boat,cat,64-0-10,0351_eid_s01_64-0-10_cat_10_n02125311_47792.png
subject-01,1,352,0.888869047164917,bottle,boat,16-0-10,0352_eid_s01_16-0-10_boat_10_n04612504_1491.png
subject-01,1,353,1.00253200531006,airplane,truck,16-0-10,0353_eid_s01_16-0-10_truck_10_n03417042_910.png
subject-01,1,354,0.914224863052368,bicycle,airplane,64-0-10,0354_eid_s01_64-0-10_airplane_10_n02690373_2038.png
subject-01,1,355,0.654199123382568,cat,cat,2-0-10,0355_eid_s01_2-0-10_cat_10_n02123394_8164.png
subject-01,1,356,0.902166843414307,dog,oven,2-0-10,0356_eid_s01_2-0-10_oven_10_n04111531_22097.png
subject-01,1,357,0.921966075897217,elephant,bear,128-0-10,0357_eid_s01_128-0-10_bear_10_n02134418_278.png
subject-01,1,358,0.777848958969116,bird,bird,4-0-10,0358_eid_s01_4-0-10_bird_10_n01592084_9109.png
subject-01,1,359,1.00990390777588,oven,clock,32-0-10,0359_eid_s01_32-0-10_clock_10_n03196217_3695.png
subject-01,1,360,1.05963182449341,car,elephant,128-0-10,0360_eid_s01_128-0-10_elephant_10_n02504458_8939.png
subject-01,1,361,0.871057987213135,elephant,elephant,2-0-10,0361_eid_s01_2-0-10_elephant_10_n02504013_7926.png
subject-01,1,362,0.726804971694946,bear,bear,4-0-10,0362_eid_s01_4-0-10_bear_10_n02133161_11816.png
subject-01,1,363,1.0046968460083,elephant,bird,2-0-10,0363_eid_s01_2-0-10_bird_10_n02056570_18300.png
subject-01,1,364,0.768796920776367,boat,chair,2-0-10,0364_eid_s01_2-0-10_chair_10_n02791124_7063.png
subject-01,1,365,0.896487951278687,keyboard,chair,8-0-10,0365_eid_s01_8-0-10_chair_10_n03376595_8289.png
subject-01,1,366,0.808176040649414,airplane,airplane,4-0-10,0366_eid_s01_4-0-10_airplane_10_n02690373_4434.png
subject-01,1,367,0.796057939529419,truck,truck,1-0-10,0367_eid_s01_1-0-10_truck_10_n03417042_8953.png
subject-01,1,368,1.14598298072815,oven,bear,64-0-10,0368_eid_s01_64-0-10_bear_10_n02132136_699.png
subject-01,1,369,1.01807498931885,knife,knife,8-0-10,0369_eid_s01_8-0-10_knife_10_n03041632_20517.png
subject-01,1,370,1.20361089706421,cat,bottle,32-0-10,0370_eid_s01_32-0-10_bottle_10_n03983396_1910.png
subject-01,1,371,1.08318114280701,chair,oven,8-0-10,0371_eid_s01_8-0-10_oven_10_n04111531_16198.png
subject-01,1,372,0.859048843383789,bottle,elephant,64-0-10,0372_eid_s01_64-0-10_elephant_10_n02504013_13427.png
subject-01,1,373,0.771080017089844,airplane,airplane,16-0-10,0373_eid_s01_16-0-10_airplane_10_n02690373_1075.png
subject-01,1,374,0.909156084060669,bicycle,car,64-0-10,0374_eid_s01_64-0-10_car_10_n03100240_5527.png
subject-01,1,375,0.95256495475769,bear,bear,1-0-10,0375_eid_s01_1-0-10_bear_10_n02132136_4632.png
subject-01,1,376,0.50443696975708,boat,boat,1-0-10,0376_eid_s01_1-0-10_boat_10_n04273569_6158.png
subject-01,1,377,0.993957042694092,elephant,knife,32-0-10,0377_eid_s01_32-0-10_knife_10_n03041632_18141.png
subject-01,1,378,0.936010122299194,oven,bear,16-0-10,0378_eid_s01_16-0-10_bear_10_n02132136_6378.png
subject-01,1,379,0.667715072631836,elephant,elephant,2-0-10,0379_eid_s01_2-0-10_elephant_10_n02504458_5095.png
subject-01,1,380,0.663831949234009,elephant,elephant,4-0-10,0380_eid_s01_4-0-10_elephant_10_n02504013_10582.png
subject-01,1,381,1.10753583908081,bear,chair,16-0-10,0381_eid_s01_16-0-10_chair_10_n04099969_28139.png
subject-01,1,382,0.689457893371582,keyboard,keyboard,2-0-10,0382_eid_s01_2-0-10_keyboard_10_n04505470_279.png
subject-01,1,383,1.04493594169617,car,car,8-0-10,0383_eid_s01_8-0-10_car_10_n02814533_79696.png
subject-01,1,384,0.917325019836426,dog,cat,64-0-10,0384_eid_s01_64-0-10_cat_10_n02124075_7984.png
subject-01,1,385,0.592679977416992,car,car,4-0-10,0385_eid_s01_4-0-10_car_10_n02814533_27327.png
subject-01,1,386,0.754276990890503,bear,bear,4-0-10,0386_eid_s01_4-0-10_bear_10_n02134084_967.png
subject-01,1,387,0.972226142883301,bicycle,bear,64-0-10,0387_eid_s01_64-0-10_bear_10_n02132136_949.png
subject-01,1,388,0.906145095825195,clock,bicycle,16-0-10,0388_eid_s01_16-0-10_bicycle_10_n03792782_2905.png
subject-01,1,389,1.12231707572937,car,bicycle,8-0-10,0389_eid_s01_8-0-10_bicycle_10_n03792782_34550.png
subject-01,1,390,1.23758482933044,bear,bear,16-0-10,0390_eid_s01_16-0-10_bear_10_n02132136_9055.png
subject-01,1,391,0.867532014846802,bicycle,bear,64-0-10,0391_eid_s01_64-0-10_bear_10_n02134084_7904.png
subject-01,1,392,0.629403114318848,clock,clock,4-0-10,0392_eid_s01_4-0-10_clock_10_n04548280_4526.png
subject-01,1,393,1.19323396682739,clock,bottle,1-0-10,0393_eid_s01_1-0-10_bottle_10_n02823428_685.png
subject-01,1,394,1.10488796234131,car,keyboard,64-0-10,0394_eid_s01_64-0-10_keyboard_10_n04505470_3935.png
subject-01,1,395,1.0627748966217,bear,dog,64-0-10,0395_eid_s01_64-0-10_dog_10_n02096051_3825.png
subject-01,1,396,0.862580060958862,dog,dog,2-0-10,0396_eid_s01_2-0-10_dog_10_n02089078_10601.png
subject-01,1,397,0.694372177124023,clock,clock,2-0-10,0397_eid_s01_2-0-10_clock_10_n02708093_5236.png
subject-01,1,398,0.700291156768799,cat,cat,2-0-10,0398_eid_s01_2-0-10_cat_10_n02123159_2682.png
subject-01,1,399,1.04206609725952,oven,oven,1-0-10,0399_eid_s01_1-0-10_oven_10_n04111531_10216.png
subject-01,1,400,0.578129053115845,boat,boat,2-0-10,0400_eid_s01_2-0-10_boat_10_n02951358_7137.png
subject-01,1,401,0.872208833694458,bicycle,bird,64-0-10,0401_eid_s01_64-0-10_bird_10_n02007558_6127.png
subject-01,1,402,0.453829050064087,cat,dog,16-0-10,0402_eid_s01_16-0-10_dog_10_n02096051_4804.png
subject-01,1,403,0.677819013595581,bottle,bottle,8-0-10,0403_eid_s01_8-0-10_bottle_10_n03983396_13764.png
subject-01,1,404,0.761551856994629,car,knife,32-0-10,0404_eid_s01_32-0-10_knife_10_n03041632_105081.png
subject-01,1,405,1.0957989692688,truck,boat,8-0-10,0405_eid_s01_8-0-10_boat_10_n03344393_3535.png
subject-01,1,406,0.857161998748779,chair,keyboard,64-0-10,0406_eid_s01_64-0-10_keyboard_10_n03085013_22929.png
subject-01,1,407,0.560945987701416,bottle,bottle,1-0-10,0407_eid_s01_1-0-10_bottle_10_n04579145_5979.png
subject-01,1,408,0.668694019317627,knife,knife,2-0-10,0408_eid_s01_2-0-10_knife_10_n03041632_31301.png
subject-01,1,409,0.798537015914917,keyboard,car,128-0-10,0409_eid_s01_128-0-10_car_10_n04285008_14653.png
subject-01,1,410,0.842575073242188,boat,clock,16-0-10,0410_eid_s01_16-0-10_clock_10_n03196217_1601.png
subject-01,1,411,0.932348012924194,bicycle,bicycle,8-0-10,0411_eid_s01_8-0-10_bicycle_10_n02835271_25268.png
subject-01,1,412,0.750127077102661,bear,bird,16-0-10,0412_eid_s01_16-0-10_bird_10_n02037110_875.png
subject-01,1,413,0.943889856338501,cat,airplane,128-0-10,0413_eid_s01_128-0-10_airplane_10_n02690373_6807.png
subject-01,1,414,0.839745044708252,bird,clock,16-0-10,0414_eid_s01_16-0-10_clock_10_n04548280_10066.png
subject-01,1,415,0.969456195831299,keyboard,boat,64-0-10,0415_eid_s01_64-0-10_boat_10_n02951358_15252.png
subject-01,1,416,1.12370800971985,car,car,64-0-10,0416_eid_s01_64-0-10_car_10_n02814533_4803.png
subject-01,1,417,0.963016033172607,elephant,car,16-0-10,0417_eid_s01_16-0-10_car_10_n03100240_24544.png
subject-01,1,418,0.794986963272095,chair,bear,128-0-10,0418_eid_s01_128-0-10_bear_10_n02132136_4219.png
subject-01,1,419,0.83892297744751,truck,bicycle,32-0-10,0419_eid_s01_32-0-10_bicycle_10_n02835271_507.png
subject-01,1,420,0.758683919906616,boat,boat,1-0-10,0420_eid_s01_1-0-10_boat_10_n04273569_13290.png
subject-01,1,421,0.640427112579346,bicycle,bicycle,2-0-10,0421_eid_s01_2-0-10_bicycle_10_n03792782_42626.png
subject-01,1,422,1.12011814117432,dog,dog,8-0-10,0422_eid_s01_8-0-10_dog_10_n02106382_3856.png
subject-01,1,423,0.564081907272339,clock,clock,1-0-10,0423_eid_s01_1-0-10_clock_10_n02708093_274.png
subject-01,1,424,0.889870882034302,bicycle,bottle,32-0-10,0424_eid_s01_32-0-10_bottle_10_n04591713_5921.png
subject-01,1,425,0.707735061645508,elephant,elephant,1-0-10,0425_eid_s01_1-0-10_elephant_10_n02504458_3851.png
subject-01,1,426,1.08142304420471,car,dog,32-0-10,0426_eid_s01_32-0-10_dog_10_n02105855_995.png
subject-01,1,427,1.39530611038208,clock,airplane,2-0-10,0427_eid_s01_2-0-10_airplane_10_n02690373_1979.png
subject-01,1,428,0.603249788284302,airplane,airplane,1-0-10,0428_eid_s01_1-0-10_airplane_10_n02690373_6455.png
subject-01,1,429,1.08478999137878,dog,oven,1-0-10,0429_eid_s01_1-0-10_oven_10_n04111531_18979.png
subject-01,1,430,0.830647945404053,bird,oven,32-0-10,0430_eid_s01_32-0-10_oven_10_n04111531_16795.png
subject-01,1,431,0.812846899032593,airplane,truck,4-0-10,0431_eid_s01_4-0-10_truck_10_n04467665_41076.png
subject-01,1,432,0.788213968276978,bird,bird,16-0-10,0432_eid_s01_16-0-10_bird_10_n01534433_31697.png
subject-01,1,433,0.87049412727356,car,keyboard,128-0-10,0433_eid_s01_128-0-10_keyboard_10_n04505470_4289.png
subject-01,1,434,0.789935111999512,keyboard,keyboard,4-0-10,0434_eid_s01_4-0-10_keyboard_10_n03085013_20727.png
subject-01,1,435,0.660001039505005,boat,boat,8-0-10,0435_eid_s01_8-0-10_boat_10_n04273569_7315.png
subject-01,1,436,0.745722055435181,car,car,1-0-10,0436_eid_s01_1-0-10_car_10_n03100240_16646.png
subject-01,1,437,0.929653167724609,oven,car,16-0-10,0437_eid_s01_16-0-10_car_10_n03100240_5281.png
subject-01,1,438,1.02929496765137,oven,airplane,128-0-10,0438_eid_s01_128-0-10_airplane_10_n02690373_1670.png
subject-01,1,439,1.08102297782898,keyboard,airplane,128-0-10,0439_eid_s01_128-0-10_airplane_10_n02690373_9293.png
subject-01,1,440,0.850999116897583,clock,truck,128-0-10,0440_eid_s01_128-0-10_truck_10_n03796401_15846.png
subject-01,1,441,1.07469511032104,car,truck,32-0-10,0441_eid_s01_32-0-10_truck_10_n03796401_6971.png
subject-01,1,442,1.48639106750488,truck,oven,128-0-10,0442_eid_s01_128-0-10_oven_10_n04111531_10724.png
subject-01,1,443,0.616218090057373,cat,keyboard,8-0-10,0443_eid_s01_8-0-10_keyboard_10_n03085013_22187.png
subject-01,1,444,1.19203209877014,oven,oven,8-0-10,0444_eid_s01_8-0-10_oven_10_n04111531_4671.png
subject-01,1,445,0.759927034378052,airplane,airplane,4-0-10,0445_eid_s01_4-0-10_airplane_10_n02690373_5142.png
subject-01,1,446,0.757745981216431,elephant,elephant,4-0-10,0446_eid_s01_4-0-10_elephant_10_n02504013_8562.png
subject-01,1,447,0.653602123260498,truck,truck,1-0-10,0447_eid_s01_1-0-10_truck_10_n03417042_9668.png
subject-01,1,448,0.761752128601074,bottle,bottle,8-0-10,0448_eid_s01_8-0-10_bottle_10_n03983396_10330.png
subject-01,1,449,0.837547063827515,clock,elephant,128-0-10,0449_eid_s01_128-0-10_elephant_10_n02504458_4395.png
subject-01,1,450,1.19486618041992,keyboard,boat,64-0-10,0450_eid_s01_64-0-10_boat_10_n03344393_4562.png
subject-01,1,451,0.802873134613037,oven,oven,2-0-10,0451_eid_s01_2-0-10_oven_10_n04111531_10011.png
subject-01,1,452,0.956850051879883,cat,oven,64-0-10,0452_eid_s01_64-0-10_oven_10_n04111531_13797.png
subject-01,1,453,0.530506134033203,boat,boat,2-0-10,0453_eid_s01_2-0-10_boat_10_n03662601_840.png
subject-01,1,454,1.06824493408203,car,truck,16-0-10,0454_eid_s01_16-0-10_truck_10_n03417042_17037.png
subject-01,1,455,0.939888954162598,knife,cat,64-0-10,0455_eid_s01_64-0-10_cat_10_n02125311_2576.png
subject-01,1,456,0.961637020111084,truck,keyboard,32-0-10,0456_eid_s01_32-0-10_keyboard_10_n03085013_3264.png
subject-01,1,457,1.16947603225708,airplane,dog,64-0-10,0457_eid_s01_64-0-10_dog_10_n02097130_3519.png
subject-01,1,458,0.901781797409058,airplane,airplane,16-0-10,0458_eid_s01_16-0-10_airplane_10_n02690373_4486.png
subject-01,1,459,1.19533801078796,keyboard,bottle,16-0-10,0459_eid_s01_16-0-10_bottle_10_n03983396_19635.png
subject-01,1,460,1.12103700637817,airplane,airplane,16-0-10,0460_eid_s01_16-0-10_airplane_10_n02690373_1426.png
subject-01,1,461,1.30109000205994,bird,oven,4-0-10,0461_eid_s01_4-0-10_oven_10_n04111531_5279.png
subject-01,1,462,0.984679937362671,bicycle,bottle,64-0-10,0462_eid_s01_64-0-10_bottle_10_n03983396_4024.png
subject-01,1,463,1.13054895401001,bear,bear,8-0-10,0463_eid_s01_8-0-10_bear_10_n02133161_12751.png
subject-01,1,464,0.636377811431885,car,car,8-0-10,0464_eid_s01_8-0-10_car_10_n02814533_12271.png
subject-01,1,465,0.916051149368286,bird,bottle,16-0-10,0465_eid_s01_16-0-10_bottle_10_n04560804_5068.png
subject-01,1,466,1.02995109558105,cat,bottle,128-0-10,0466_eid_s01_128-0-10_bottle_10_n04579145_1168.png
subject-01,1,467,0.809905052185059,bicycle,knife,64-0-10,0467_eid_s01_64-0-10_knife_10_n03041632_2973.png
subject-01,1,468,0.931547880172729,airplane,airplane,16-0-10,0468_eid_s01_16-0-10_airplane_10_n02690373_19329.png
subject-01,1,469,0.943470001220703,chair,bottle,32-0-10,0469_eid_s01_32-0-10_bottle_10_n04560804_1356.png
subject-01,1,470,0.575288057327271,bear,bear,8-0-10,0470_eid_s01_8-0-10_bear_10_n02134084_3960.png
subject-01,1,471,0.860998153686523,airplane,boat,4-0-10,0471_eid_s01_4-0-10_boat_10_n04612504_27504.png
subject-01,1,472,0.813040018081665,dog,dog,4-0-10,0472_eid_s01_4-0-10_dog_10_n02099601_9973.png
subject-01,1,473,0.858703136444092,cat,truck,64-0-10,0473_eid_s01_64-0-10_truck_10_n03417042_26843.png
subject-01,1,474,1.2285590171814,bird,knife,64-0-10,0474_eid_s01_64-0-10_knife_10_n03041632_55711.png
subject-01,1,475,1.17035984992981,chair,elephant,8-0-10,0475_eid_s01_8-0-10_elephant_10_n02504013_1986.png
subject-01,1,476,0.762015104293823,keyboard,keyboard,4-0-10,0476_eid_s01_4-0-10_keyboard_10_n03085013_9475.png
subject-01,1,477,0.893815040588379,car,elephant,32-0-10,0477_eid_s01_32-0-10_elephant_10_n02504458_3381.png
subject-01,1,478,0.83574390411377,airplane,airplane,8-0-10,0478_eid_s01_8-0-10_airplane_10_n02690373_1161.png
subject-01,1,479,1.16954302787781,cat,cat,64-0-10,0479_eid_s01_64-0-10_cat_10_n02124075_7474.png
subject-01,1,480,0.649299144744873,cat,cat,4-0-10,0480_eid_s01_4-0-10_cat_10_n02125311_9074.png
subject-01,1,481,0.883481979370117,bicycle,airplane,128-0-10,0481_eid_s01_128-0-10_airplane_10_n02690373_2867.png
subject-01,1,482,0.78148078918457,elephant,elephant,2-0-10,0482_eid_s01_2-0-10_elephant_10_n02504013_1692.png
subject-01,1,483,0.67106294631958,bear,bird,8-0-10,0483_eid_s01_8-0-10_bird_10_n02009912_11813.png
subject-01,1,484,0.698913097381592,bird,bottle,16-0-10,0484_eid_s01_16-0-10_bottle_10_n04557648_10302.png
subject-01,1,485,0.688647985458374,keyboard,keyboard,4-0-10,0485_eid_s01_4-0-10_keyboard_10_n03085013_20302.png
subject-01,1,486,1.21038603782654,clock,elephant,128-0-10,0486_eid_s01_128-0-10_elephant_10_n02504458_5827.png
subject-01,1,487,0.990450859069824,knife,knife,1-0-10,0487_eid_s01_1-0-10_knife_10_n03041632_11327.png
subject-01,1,488,0.682298898696899,bird,bird,4-0-10,0488_eid_s01_4-0-10_bird_10_n01795545_17770.png
subject-01,1,489,0.756301164627075,bicycle,bicycle,4-0-10,0489_eid_s01_4-0-10_bicycle_10_n02835271_10932.png
subject-01,1,490,1.3160982131958,dog,cat,2-0-10,0490_eid_s01_2-0-10_cat_10_n02123597_14233.png
subject-01,1,491,0.593429803848267,bird,bird,1-0-10,0491_eid_s01_1-0-10_bird_10_n01614925_7662.png
subject-01,1,492,1.05338406562805,boat,truck,16-0-10,0492_eid_s01_16-0-10_truck_10_n03417042_5875.png
subject-01,1,493,1.08322906494141,bear,bear,1-0-10,0493_eid_s01_1-0-10_bear_10_n02134418_304.png
subject-01,1,494,0.921451807022095,bird,bird,1-0-10,0494_eid_s01_1-0-10_bird_10_n01622779_5148.png
subject-01,1,495,0.784946918487549,knife,knife,1-0-10,0495_eid_s01_1-0-10_knife_10_n03041632_44230.png
subject-01,1,496,1.4405951499939,chair,boat,32-0-10,0496_eid_s01_32-0-10_boat_10_n03662601_8650.png
subject-01,1,497,1.148432970047,truck,oven,16-0-10,0497_eid_s01_16-0-10_oven_10_n04111531_4346.png
subject-01,1,498,0.966120004653931,clock,clock,2-0-10,0498_eid_s01_2-0-10_clock_10_n03196217_2201.png
subject-01,1,499,1.14419794082642,boat,bicycle,64-0-10,0499_eid_s01_64-0-10_bicycle_10_n02835271_8757.png
subject-01,1,500,1.04578900337219,airplane,keyboard,8-0-10,0500_eid_s01_8-0-10_keyboard_10_n03085013_23563.png
subject-01,1,501,0.847691059112549,bird,boat,64-0-10,0501_eid_s01_64-0-10_boat_10_n04273569_15879.png
subject-01,1,502,1.0314769744873,truck,truck,64-0-10,0502_eid_s01_64-0-10_truck_10_n04467665_30588.png
subject-01,1,503,1.26321601867676,cat,truck,16-0-10,0503_eid_s01_16-0-10_truck_10_n03417042_1875.png
subject-01,1,504,0.787112951278687,car,cat,128-0-10,0504_eid_s01_128-0-10_cat_10_n02123394_6014.png
subject-01,1,505,0.911246061325073,boat,boat,1-0-10,0505_eid_s01_1-0-10_boat_10_n04273569_10847.png
subject-01,1,506,0.984769105911255,elephant,elephant,64-0-10,0506_eid_s01_64-0-10_elephant_10_n02504013_5495.png
subject-01,1,507,1.21874403953552,chair,bottle,128-0-10,0507_eid_s01_128-0-10_bottle_10_n04560804_16276.png
subject-01,1,508,1.11262893676758,car,car,1-0-10,0508_eid_s01_1-0-10_car_10_n04285008_1243.png
subject-01,1,509,1.21215486526489,car,keyboard,32-0-10,0509_eid_s01_32-0-10_keyboard_10_n03085013_22027.png
subject-01,1,510,0.955940961837769,airplane,cat,32-0-10,0510_eid_s01_32-0-10_cat_10_n02123045_12766.png
subject-01,1,511,0.9217369556427,bicycle,chair,64-0-10,0511_eid_s01_64-0-10_chair_10_n04429376_29954.png
subject-01,1,512,0.909620046615601,bottle,elephant,32-0-10,0512_eid_s01_32-0-10_elephant_10_n02504013_5678.png
subject-01,1,513,0.91528582572937,chair,chair,4-0-10,0513_eid_s01_4-0-10_chair_10_n03376595_6333.png
subject-01,1,514,0.843220949172974,keyboard,keyboard,2-0-10,0514_eid_s01_2-0-10_keyboard_10_n03085013_22605.png
subject-01,1,515,1.46532082557678,bird,car,32-0-10,0515_eid_s01_32-0-10_car_10_n04285008_16557.png
subject-01,1,516,1.13324904441833,clock,bottle,64-0-10,0516_eid_s01_64-0-10_bottle_10_n02823428_1034.png
subject-01,1,517,NaN,na,elephant,16-0-10,0517_eid_s01_16-0-10_elephant_10_n02504013_7777.png
subject-01,1,518,1.13236594200134,oven,knife,4-0-10,0518_eid_s01_4-0-10_knife_10_n03041632_14293.png
subject-01,1,519,1.08412408828735,clock,knife,8-0-10,0519_eid_s01_8-0-10_knife_10_n03041632_50423.png
subject-01,1,520,0.728088140487671,chair,chair,2-0-10,0520_eid_s01_2-0-10_chair_10_n03376595_3043.png
subject-01,1,521,0.857928991317749,boat,cat,8-0-10,0521_eid_s01_8-0-10_cat_10_n02123394_2434.png
subject-01,1,522,0.847666025161743,truck,truck,1-0-10,0522_eid_s01_1-0-10_truck_10_n04467665_54079.png
subject-01,1,523,0.705490827560425,bird,bird,2-0-10,0523_eid_s01_2-0-10_bird_10_n01855672_1001.png
subject-01,1,524,0.769361972808838,bottle,bottle,1-0-10,0524_eid_s01_1-0-10_bottle_10_n04560804_6112.png
subject-01,1,525,0.703138113021851,keyboard,keyboard,1-0-10,0525_eid_s01_1-0-10_keyboard_10_n04505470_1744.png
subject-01,1,526,1.34902095794678,bear,boat,32-0-10,0526_eid_s01_32-0-10_boat_10_n02951358_15087.png
subject-01,1,527,0.962977886199951,bottle,bottle,4-0-10,0527_eid_s01_4-0-10_bottle_10_n04557648_10051.png
subject-01,1,528,0.968711853027344,clock,bear,64-0-10,0528_eid_s01_64-0-10_bear_10_n02134084_5794.png
subject-01,1,529,0.794458150863647,keyboard,keyboard,4-0-10,0529_eid_s01_4-0-10_keyboard_10_n04505470_751.png
subject-01,1,530,1.16629505157471,keyboard,boat,128-0-10,0530_eid_s01_128-0-10_boat_10_n04273569_9306.png
subject-01,1,531,1.15406584739685,bicycle,chair,16-0-10,0531_eid_s01_16-0-10_chair_10_n02791124_9162.png
subject-01,1,532,0.845946073532104,car,bicycle,128-0-10,0532_eid_s01_128-0-10_bicycle_10_n02835271_25033.png
subject-01,1,533,1.04572606086731,bird,keyboard,128-0-10,0533_eid_s01_128-0-10_keyboard_10_n04505470_3905.png
subject-01,1,534,0.925426006317139,knife,knife,4-0-10,0534_eid_s01_4-0-10_knife_10_n03041632_32054.png
subject-01,1,535,1.22734498977661,oven,clock,8-0-10,0535_eid_s01_8-0-10_clock_10_n03196217_13380.png
subject-01,1,536,1.17921686172485,chair,chair,32-0-10,0536_eid_s01_32-0-10_chair_10_n03376595_8083.png
subject-01,1,537,0.861024856567383,knife,cat,8-0-10,0537_eid_s01_8-0-10_cat_10_n02125311_47927.png
subject-01,1,538,1.24293184280396,bicycle,boat,64-0-10,0538_eid_s01_64-0-10_boat_10_n04273569_1141.png
subject-01,1,539,1.00062799453735,truck,dog,64-0-10,0539_eid_s01_64-0-10_dog_10_n02097130_5859.png
subject-01,1,540,0.754513025283813,boat,dog,16-0-10,0540_eid_s01_16-0-10_dog_10_n02090721_835.png
subject-01,1,541,1.18419098854065,cat,bear,128-0-10,0541_eid_s01_128-0-10_bear_10_n02132136_15806.png
subject-01,1,542,0.992517948150635,bicycle,cat,128-0-10,0542_eid_s01_128-0-10_cat_10_n02124075_12069.png
subject-01,1,543,1.20989513397217,oven,oven,2-0-10,0543_eid_s01_2-0-10_oven_10_n04111531_21382.png
subject-01,1,544,1.0816171169281,dog,cat,1-0-10,0544_eid_s01_1-0-10_cat_10_n02123597_2009.png
subject-01,1,545,0.847804069519043,bear,oven,32-0-10,0545_eid_s01_32-0-10_oven_10_n04111531_4392.png
subject-01,1,546,0.657214879989624,boat,boat,4-0-10,0546_eid_s01_4-0-10_boat_10_n03344393_640.png
subject-01,1,547,0.65308403968811,car,car,4-0-10,0547_eid_s01_4-0-10_car_10_n02814533_245.png
subject-01,1,548,1.20682692527771,bird,bird,1-0-10,0548_eid_s01_1-0-10_bird_10_n01530575_3831.png
subject-01,1,549,0.646545171737671,truck,truck,2-0-10,0549_eid_s01_2-0-10_truck_10_n04467665_32276.png
subject-01,1,550,0.9688880443573,boat,elephant,64-0-10,0550_eid_s01_64-0-10_elephant_10_n02504458_5941.png
subject-01,1,551,0.926168203353882,elephant,elephant,4-0-10,0551_eid_s01_4-0-10_elephant_10_n02504013_9796.png
subject-01,1,552,0.766263008117676,airplane,airplane,4-0-10,0552_eid_s01_4-0-10_airplane_10_n02690373_8214.png
subject-01,1,553,1.060142993927,airplane,airplane,1-0-10,0553_eid_s01_1-0-10_airplane_10_n02690373_8967.png
subject-01,1,554,0.891995906829834,bicycle,elephant,64-0-10,0554_eid_s01_64-0-10_elephant_10_n02504458_7642.png
subject-01,1,555,0.679618120193481,boat,boat,1-0-10,0555_eid_s01_1-0-10_boat_10_n04273569_15455.png
subject-01,1,556,1.10722494125366,bear,knife,8-0-10,0556_eid_s01_8-0-10_knife_10_n03041632_3063.png
subject-01,1,557,1.34510684013367,keyboard,bottle,4-0-10,0557_eid_s01_4-0-10_bottle_10_n03937543_4912.png
subject-01,1,558,0.803375005722046,bottle,oven,4-0-10,0558_eid_s01_4-0-10_oven_10_n04111531_5776.png
subject-01,1,559,0.760900020599365,oven,bottle,128-0-10,0559_eid_s01_128-0-10_bottle_10_n03983396_4540.png
subject-01,1,560,0.766759157180786,knife,knife,2-0-10,0560_eid_s01_2-0-10_knife_10_n03041632_965.png
subject-01,1,561,0.982306003570557,bicycle,knife,32-0-10,0561_eid_s01_32-0-10_knife_10_n03041632_12949.png
subject-01,1,562,0.899991989135742,bird,knife,16-0-10,0562_eid_s01_16-0-10_knife_10_n03041632_18766.png
subject-01,1,563,0.969856977462769,keyboard,keyboard,8-0-10,0563_eid_s01_8-0-10_keyboard_10_n04505470_2869.png
subject-01,1,564,0.911642074584961,bicycle,bicycle,4-0-10,0564_eid_s01_4-0-10_bicycle_10_n02835271_18537.png
subject-01,1,565,1.00159406661987,chair,clock,32-0-10,0565_eid_s01_32-0-10_clock_10_n04548280_1119.png
subject-01,1,566,0.78912091255188,oven,oven,1-0-10,0566_eid_s01_1-0-10_oven_10_n04111531_687.png
subject-01,1,567,0.803186178207397,car,chair,64-0-10,0567_eid_s01_64-0-10_chair_10_n03376595_3038.png
subject-01,1,568,1.05079317092896,airplane,bicycle,16-0-10,0568_eid_s01_16-0-10_bicycle_10_n02835271_3989.png
subject-01,1,569,0.950860023498535,bear,dog,64-0-10,0569_eid_s01_64-0-10_dog_10_n02096437_4563.png
subject-01,1,570,1.2925591468811,car,clock,32-0-10,0570_eid_s01_32-0-10_clock_10_n02708093_685.png
subject-01,1,571,1.33837008476257,keyboard,boat,32-0-10,0571_eid_s01_32-0-10_boat_10_n03662601_8360.png
subject-01,1,572,0.700095176696777,knife,keyboard,8-0-10,0572_eid_s01_8-0-10_keyboard_10_n03085013_17035.png
subject-01,1,573,1.04401993751526,bear,dog,64-0-10,0573_eid_s01_64-0-10_dog_10_n02110063_12166.png
subject-01,1,574,0.821781873703003,bear,dog,2-0-10,0574_eid_s01_2-0-10_dog_10_n02108422_6951.png
subject-01,1,575,0.967451810836792,chair,bear,64-0-10,0575_eid_s01_64-0-10_bear_10_n02134418_912.png
subject-01,1,576,0.721395015716553,clock,clock,4-0-10,0576_eid_s01_4-0-10_clock_10_n02708093_564.png
subject-01,1,577,0.953042984008789,car,car,64-0-10,0577_eid_s01_64-0-10_car_10_n04285008_11893.png
subject-01,1,578,0.981349945068359,cat,knife,64-0-10,0578_eid_s01_64-0-10_knife_10_n03041632_20504.png
subject-01,1,579,0.846785068511963,clock,clock,4-0-10,0579_eid_s01_4-0-10_clock_10_n04548280_4557.png
subject-01,1,580,1.15703701972961,elephant,clock,32-0-10,0580_eid_s01_32-0-10_clock_10_n02708093_3360.png
subject-01,1,581,1.01652097702026,bear,bear,16-0-10,0581_eid_s01_16-0-10_bear_10_n02134084_617.png
subject-01,1,582,0.818306922912598,knife,dog,1-0-10,0582_eid_s01_1-0-10_dog_10_n02093991_4081.png
subject-01,1,583,1.21604609489441,elephant,elephant,16-0-10,0583_eid_s01_16-0-10_elephant_10_n02504458_1727.png
subject-01,1,584,1.13398790359497,dog,clock,32-0-10,0584_eid_s01_32-0-10_clock_10_n04548280_16295.png
subject-01,1,585,0.81168794631958,boat,boat,4-0-10,0585_eid_s01_4-0-10_boat_10_n02951358_16217.png
subject-01,1,586,0.699648857116699,airplane,airplane,8-0-10,0586_eid_s01_8-0-10_airplane_10_n02690373_7536.png
subject-01,1,587,0.77350902557373,cat,cat,8-0-10,0587_eid_s01_8-0-10_cat_10_n02123597_22140.png
subject-01,1,588,0.875127077102661,car,bottle,128-0-10,0588_eid_s01_128-0-10_bottle_10_n04591713_8914.png
subject-01,1,589,0.914942979812622,bicycle,car,128-0-10,0589_eid_s01_128-0-10_car_10_n03100240_963.png
subject-01,1,590,1.08472299575806,oven,boat,32-0-10,0590_eid_s01_32-0-10_boat_10_n02951358_18762.png
subject-01,1,591,1.21462202072144,car,bear,32-0-10,0591_eid_s01_32-0-10_bear_10_n02134418_2633.png
subject-01,1,592,0.890454053878784,chair,airplane,64-0-10,0592_eid_s01_64-0-10_airplane_10_n02690373_1169.png
subject-01,1,593,0.856399059295654,bicycle,bicycle,2-0-10,0593_eid_s01_2-0-10_bicycle_10_n03792782_12704.png
subject-01,1,594,0.752013921737671,cat,dog,64-0-10,0594_eid_s01_64-0-10_dog_10_n02088238_2973.png
subject-01,1,595,1.07005310058594,truck,knife,32-0-10,0595_eid_s01_32-0-10_knife_10_n03041632_41493.png
subject-01,1,596,1.05789709091187,keyboard,bottle,128-0-10,0596_eid_s01_128-0-10_bottle_10_n03983396_2959.png
subject-01,1,597,0.773368835449219,clock,clock,1-0-10,0597_eid_s01_1-0-10_clock_10_n02708093_2843.png
subject-01,1,598,1.08343195915222,chair,oven,8-0-10,0598_eid_s01_8-0-10_oven_10_n04111531_12952.png
subject-01,1,599,0.955090045928955,car,bear,16-0-10,0599_eid_s01_16-0-10_bear_10_n02134418_2891.png
subject-01,1,600,1.50014805793762,bicycle,truck,32-0-10,0600_eid_s01_32-0-10_truck_10_n03417042_3862.png
subject-01,1,601,0.73077917098999,bear,elephant,16-0-10,0601_eid_s01_16-0-10_elephant_10_n02504458_2054.png
subject-01,1,602,0.688920021057129,airplane,airplane,1-0-10,0602_eid_s01_1-0-10_airplane_10_n02690373_7355.png
subject-01,1,603,0.920559883117676,car,knife,128-0-10,0603_eid_s01_128-0-10_knife_10_n03041632_22738.png
subject-01,1,604,0.842624187469482,oven,oven,1-0-10,0604_eid_s01_1-0-10_oven_10_n04111531_4250.png
subject-01,1,605,0.800119876861572,clock,clock,8-0-10,0605_eid_s01_8-0-10_clock_10_n04548280_7826.png
subject-01,1,606,1.03975009918213,bicycle,clock,64-0-10,0606_eid_s01_64-0-10_clock_10_n04548280_17198.png
subject-01,1,607,1.03375387191772,keyboard,bicycle,128-0-10,0607_eid_s01_128-0-10_bicycle_10_n02835271_4726.png
subject-01,1,608,1.11770820617676,keyboard,chair,128-0-10,0608_eid_s01_128-0-10_chair_10_n03376595_9079.png
subject-01,1,609,0.785068988800049,airplane,airplane,4-0-10,0609_eid_s01_4-0-10_airplane_10_n02690373_2324.png
subject-01,1,610,0.993285179138184,car,dog,64-0-10,0610_eid_s01_64-0-10_dog_10_n02104029_5234.png
subject-01,1,611,0.786762952804565,bottle,bottle,2-0-10,0611_eid_s01_2-0-10_bottle_10_n04591713_335.png
subject-01,1,612,0.910553932189941,airplane,airplane,2-0-10,0612_eid_s01_2-0-10_airplane_10_n02690373_4148.png
subject-01,1,613,0.830776929855347,bear,bear,2-0-10,0613_eid_s01_2-0-10_bear_10_n02134084_18800.png
subject-01,1,614,1.25834989547729,bear,boat,16-0-10,0614_eid_s01_16-0-10_boat_10_n03662601_1191.png
subject-01,1,615,0.910377025604248,keyboard,keyboard,2-0-10,0615_eid_s01_2-0-10_keyboard_10_n04505470_4505.png
subject-01,1,616,0.907974004745483,knife,knife,4-0-10,0616_eid_s01_4-0-10_knife_10_n03041632_1607.png
subject-01,1,617,0.879773139953613,car,car,32-0-10,0617_eid_s01_32-0-10_car_10_n03100240_11224.png
subject-01,1,618,0.791526079177856,bird,airplane,128-0-10,0618_eid_s01_128-0-10_airplane_10_n02690373_7142.png
subject-01,1,619,0.723663091659546,airplane,airplane,4-0-10,0619_eid_s01_4-0-10_airplane_10_n02690373_18693.png
subject-01,1,620,1.15556716918945,dog,chair,8-0-10,0620_eid_s01_8-0-10_chair_10_n03376595_3214.png
subject-01,1,621,1.03492498397827,airplane,boat,16-0-10,0621_eid_s01_16-0-10_boat_10_n03662601_17198.png
subject-01,1,622,0.986906051635742,bear,knife,32-0-10,0622_eid_s01_32-0-10_knife_10_n03041632_27879.png
subject-01,1,623,1.33447813987732,oven,chair,1-0-10,0623_eid_s01_1-0-10_chair_10_n02791124_3601.png
subject-01,1,624,0.862334966659546,knife,bicycle,16-0-10,0624_eid_s01_16-0-10_bicycle_10_n03792782_10876.png
subject-01,1,625,1.46212100982666,clock,clock,4-0-10,0625_eid_s01_4-0-10_clock_10_n03196217_5568.png
subject-01,1,626,1.37394309043884,truck,truck,16-0-10,0626_eid_s01_16-0-10_truck_10_n04467665_2695.png
subject-01,1,627,0.815757036209106,elephant,elephant,8-0-10,0627_eid_s01_8-0-10_elephant_10_n02504013_4005.png
subject-01,1,628,1.03556180000305,bear,elephant,128-0-10,0628_eid_s01_128-0-10_elephant_10_n02504458_3094.png
subject-01,1,629,1.1494448184967,bird,bear,8-0-10,0629_eid_s01_8-0-10_bear_10_n02134418_6133.png
subject-01,1,630,0.911195993423462,keyboard,truck,128-0-10,0630_eid_s01_128-0-10_truck_10_n03796401_9953.png
subject-01,1,631,1.00903511047363,elephant,cat,8-0-10,0631_eid_s01_8-0-10_cat_10_n02123597_10199.png
subject-01,1,632,0.827038049697876,cat,cat,2-0-10,0632_eid_s01_2-0-10_cat_10_n02124075_11153.png
subject-01,1,633,0.876709938049316,chair,bicycle,64-0-10,0633_eid_s01_64-0-10_bicycle_10_n02835271_7900.png
subject-01,1,634,0.936537981033325,knife,knife,4-0-10,0634_eid_s01_4-0-10_knife_10_n03041632_12748.png
subject-01,1,635,1.08238697052002,dog,bear,16-0-10,0635_eid_s01_16-0-10_bear_10_n02134418_244.png
subject-01,1,636,0.892148017883301,bicycle,bicycle,4-0-10,0636_eid_s01_4-0-10_bicycle_10_n03792782_22908.png
subject-01,1,637,1.0279221534729,boat,elephant,8-0-10,0637_eid_s01_8-0-10_elephant_10_n02504458_3234.png
subject-01,1,638,0.719823122024536,clock,clock,1-0-10,0638_eid_s01_1-0-10_clock_10_n03196217_3063.png
subject-01,1,639,0.843691110610962,clock,clock,4-0-10,0639_eid_s01_4-0-10_clock_10_n03196217_5688.png
subject-01,1,640,0.659372091293335,bottle,bottle,2-0-10,0640_eid_s01_2-0-10_bottle_10_n04591713_2123.png
subject-01,1,641,0.930058002471924,oven,knife,2-0-10,0641_eid_s01_2-0-10_knife_10_n03041632_13424.png
subject-01,1,642,0.857923984527588,keyboard,chair,64-0-10,0642_eid_s01_64-0-10_chair_10_n03376595_989.png
subject-01,1,643,0.873744964599609,bear,elephant,8-0-10,0643_eid_s01_8-0-10_elephant_10_n02504458_3953.png
subject-01,1,644,0.559608936309814,bird,bird,4-0-10,0644_eid_s01_4-0-10_bird_10_n01796340_4181.png
subject-01,1,645,0.619430065155029,bicycle,bicycle,1-0-10,0645_eid_s01_1-0-10_bicycle_10_n02835271_17357.png
subject-01,1,646,0.771313905715942,bird,bird,1-0-10,0646_eid_s01_1-0-10_bird_10_n02006656_9134.png
subject-01,1,647,1.50008296966553,boat,bear,64-0-10,0647_eid_s01_64-0-10_bear_10_n02134418_1307.png
subject-01,1,648,1.13279485702515,elephant,chair,64-0-10,0648_eid_s01_64-0-10_chair_10_n02791124_4432.png
subject-01,1,649,0.935673952102661,car,oven,32-0-10,0649_eid_s01_32-0-10_oven_10_n04111531_21309.png
subject-01,1,650,0.846499919891357,truck,car,16-0-10,0650_eid_s01_16-0-10_car_10_n04285008_6325.png
subject-01,1,651,1.00847291946411,bottle,boat,32-0-10,0651_eid_s01_32-0-10_boat_10_n03344393_5599.png
subject-01,1,652,0.738241910934448,cat,cat,32-0-10,0652_eid_s01_32-0-10_cat_10_n02123159_7616.png
subject-01,1,653,0.713924169540405,car,car,4-0-10,0653_eid_s01_4-0-10_car_10_n02814533_11273.png
subject-01,1,654,1.10200214385986,truck,oven,1-0-10,0654_eid_s01_1-0-10_oven_10_n04111531_5357.png
subject-01,1,655,1.12983298301697,cat,truck,4-0-10,0655_eid_s01_4-0-10_truck_10_n04467665_68250.png
subject-01,1,656,0.863795042037964,dog,dog,2-0-10,0656_eid_s01_2-0-10_dog_10_n02102177_3185.png
subject-01,1,657,0.797508001327515,truck,truck,8-0-10,0657_eid_s01_8-0-10_truck_10_n03417042_11439.png
subject-01,1,658,0.83305811882019,keyboard,keyboard,8-0-10,0658_eid_s01_8-0-10_keyboard_10_n04505470_4776.png
subject-01,1,659,0.868866205215454,bicycle,chair,1-0-10,0659_eid_s01_1-0-10_chair_10_n04099969_4675.png
subject-01,1,660,1.0445921421051,oven,chair,16-0-10,0660_eid_s01_16-0-10_chair_10_n02791124_14.png
subject-01,1,661,0.706472873687744,dog,dog,1-0-10,0661_eid_s01_1-0-10_dog_10_n02086646_5896.png
subject-01,1,662,1.02414202690125,cat,truck,16-0-10,0662_eid_s01_16-0-10_truck_10_n03796401_7421.png
subject-01,1,663,1.00008797645569,bottle,keyboard,128-0-10,0663_eid_s01_128-0-10_keyboard_10_n04505470_713.png
subject-01,1,664,0.896018028259277,bicycle,clock,64-0-10,0664_eid_s01_64-0-10_clock_10_n04548280_1324.png
subject-01,1,665,0.984112977981567,bottle,bottle,8-0-10,0665_eid_s01_8-0-10_bottle_10_n04591713_4474.png
subject-01,1,666,1.11325407028198,bird,bird,16-0-10,0666_eid_s01_16-0-10_bird_10_n01855672_4659.png
subject-01,1,667,0.71137809753418,keyboard,keyboard,1-0-10,0667_eid_s01_1-0-10_keyboard_10_n03085013_8677.png
subject-01,1,668,1.16902112960815,bear,bear,2-0-10,0668_eid_s01_2-0-10_bear_10_n02134418_3584.png
subject-01,1,669,0.885300874710083,airplane,airplane,4-0-10,0669_eid_s01_4-0-10_airplane_10_n02690373_4061.png
subject-01,1,670,1.03666090965271,bear,bear,4-0-10,0670_eid_s01_4-0-10_bear_10_n02133161_499.png
subject-01,1,671,0.596656084060669,chair,chair,2-0-10,0671_eid_s01_2-0-10_chair_10_n03376595_3462.png
subject-01,1,672,1.04077792167664,boat,boat,4-0-10,0672_eid_s01_4-0-10_boat_10_n04273569_16362.png
subject-01,1,673,0.848324060440063,airplane,airplane,1-0-10,0673_eid_s01_1-0-10_airplane_10_n02690373_8592.png
subject-01,1,674,1.07185292243958,cat,chair,32-0-10,0674_eid_s01_32-0-10_chair_10_n04099969_6217.png
subject-01,1,675,0.858048915863037,bottle,bottle,1-0-10,0675_eid_s01_1-0-10_bottle_10_n03937543_299.png
subject-01,1,676,0.537631034851074,clock,clock,2-0-10,0676_eid_s01_2-0-10_clock_10_n03196217_300.png
subject-01,1,677,0.879521131515503,oven,bear,32-0-10,0677_eid_s01_32-0-10_bear_10_n02132136_8516.png
subject-01,1,678,1.06525897979736,oven,bottle,4-0-10,0678_eid_s01_4-0-10_bottle_10_n04557648_1938.png
subject-01,1,679,0.749205827713013,airplane,airplane,16-0-10,0679_eid_s01_16-0-10_airplane_10_n02690373_19118.png
subject-01,1,680,1.03676700592041,car,oven,128-0-10,0680_eid_s01_128-0-10_oven_10_n04111531_891.png
subject-01,1,681,0.828542947769165,elephant,elephant,2-0-10,0681_eid_s01_2-0-10_elephant_10_n02504458_37.png
subject-01,1,682,0.904700994491577,chair,chair,2-0-10,0682_eid_s01_2-0-10_chair_10_n04429376_24375.png
subject-01,1,683,1.14444303512573,dog,knife,64-0-10,0683_eid_s01_64-0-10_knife_10_n03041632_46914.png
subject-01,1,684,0.85407018661499,truck,truck,2-0-10,0684_eid_s01_2-0-10_truck_10_n04467665_78325.png
subject-01,1,685,1.28790903091431,dog,elephant,8-0-10,0685_eid_s01_8-0-10_elephant_10_n02504013_2438.png
subject-01,1,686,0.6597580909729,boat,boat,4-0-10,0686_eid_s01_4-0-10_boat_10_n02951358_13456.png
subject-01,1,687,0.899630069732666,bicycle,keyboard,32-0-10,0687_eid_s01_32-0-10_keyboard_10_n04505470_4922.png
subject-01,1,688,0.693418979644775,boat,boat,2-0-10,0688_eid_s01_2-0-10_boat_10_n02951358_4363.png
subject-01,1,689,0.636971950531006,keyboard,keyboard,2-0-10,0689_eid_s01_2-0-10_keyboard_10_n03085013_28083.png
subject-01,1,690,1.04315304756165,chair,chair,2-0-10,0690_eid_s01_2-0-10_chair_10_n02791124_17035.png
subject-01,1,691,1.25096297264099,bear,bird,4-0-10,0691_eid_s01_4-0-10_bird_10_n02028035_32557.png
subject-01,1,692,1.0986499786377,clock,bicycle,128-0-10,0692_eid_s01_128-0-10_bicycle_10_n02835271_3298.png
subject-01,1,693,0.892359972000122,truck,boat,8-0-10,0693_eid_s01_8-0-10_boat_10_n02951358_15422.png
subject-01,1,694,1.23409700393677,bear,cat,1-0-10,0694_eid_s01_1-0-10_cat_10_n02123597_3398.png
subject-01,1,695,0.730422019958496,boat,boat,4-0-10,0695_eid_s01_4-0-10_boat_10_n02951358_2330.png
subject-01,1,696,0.886016130447388,bottle,airplane,128-0-10,0696_eid_s01_128-0-10_airplane_10_n02690373_6929.png
subject-01,1,697,1.37407493591309,chair,bottle,8-0-10,0697_eid_s01_8-0-10_bottle_10_n04560804_16054.png
subject-01,1,698,1.43536400794983,bird,knife,128-0-10,0698_eid_s01_128-0-10_knife_10_n03041632_2438.png
subject-01,1,699,0.80338191986084,boat,bird,2-0-10,0699_eid_s01_2-0-10_bird_10_n02056570_9511.png
subject-01,1,700,1.12911295890808,oven,elephant,128-0-10,0700_eid_s01_128-0-10_elephant_10_n02504013_9809.png
subject-01,1,701,0.79691219329834,clock,cat,32-0-10,0701_eid_s01_32-0-10_cat_10_n02123394_4167.png
subject-01,1,702,0.934762001037598,keyboard,dog,128-0-10,0702_eid_s01_128-0-10_dog_10_n02101556_1042.png
subject-01,1,703,1.15261006355286,truck,elephant,64-0-10,0703_eid_s01_64-0-10_elephant_10_n02504013_10765.png
subject-01,1,704,0.782291889190674,airplane,airplane,1-0-10,0704_eid_s01_1-0-10_airplane_10_n02690373_8653.png
subject-01,1,705,1.31816601753235,bear,elephant,16-0-10,0705_eid_s01_16-0-10_elephant_10_n02504013_3172.png
subject-01,1,706,0.756173133850098,truck,truck,8-0-10,0706_eid_s01_8-0-10_truck_10_n04467665_21900.png
subject-01,1,707,0.981789112091064,boat,knife,32-0-10,0707_eid_s01_32-0-10_knife_10_n03041632_13225.png
subject-01,1,708,1.1136040687561,dog,cat,8-0-10,0708_eid_s01_8-0-10_cat_10_n02123045_964.png
subject-01,1,709,1.21322703361511,chair,elephant,16-0-10,0709_eid_s01_16-0-10_elephant_10_n02504458_151.png
subject-01,1,710,0.6873619556427,bicycle,bicycle,2-0-10,0710_eid_s01_2-0-10_bicycle_10_n03792782_1933.png
subject-01,1,711,0.751111030578613,keyboard,keyboard,2-0-10,0711_eid_s01_2-0-10_keyboard_10_n03085013_4636.png
subject-01,1,712,1.05291390419006,bottle,truck,32-0-10,0712_eid_s01_32-0-10_truck_10_n04467665_62439.png
subject-01,1,713,0.832659006118774,bottle,bear,128-0-10,0713_eid_s01_128-0-10_bear_10_n02134084_2516.png
subject-01,1,714,0.756351947784424,bicycle,bottle,16-0-10,0714_eid_s01_16-0-10_bottle_10_n04560804_30659.png
subject-01,1,715,1.09220600128174,keyboard,chair,16-0-10,0715_eid_s01_16-0-10_chair_10_n03376595_3130.png
subject-01,1,716,1.10403895378113,truck,cat,32-0-10,0716_eid_s01_32-0-10_cat_10_n02123045_7764.png
subject-01,1,717,0.755829811096191,keyboard,keyboard,2-0-10,0717_eid_s01_2-0-10_keyboard_10_n04505470_568.png
subject-01,1,718,0.791725873947144,dog,bear,1-0-10,0718_eid_s01_1-0-10_bear_10_n02134418_4177.png
subject-01,1,719,0.887631893157959,oven,airplane,64-0-10,0719_eid_s01_64-0-10_airplane_10_n02690373_3617.png
subject-01,1,720,0.759238004684448,boat,boat,8-0-10,0720_eid_s01_8-0-10_boat_10_n03662601_33374.png
subject-01,1,721,0.690397977828979,dog,dog,1-0-10,0721_eid_s01_1-0-10_dog_10_n02109047_26316.png
subject-01,1,722,0.744518995285034,airplane,boat,4-0-10,0722_eid_s01_4-0-10_boat_10_n03344393_3824.png
subject-01,1,723,0.75599217414856,bicycle,bicycle,1-0-10,0723_eid_s01_1-0-10_bicycle_10_n02835271_17184.png
subject-01,1,724,0.871684074401855,bird,chair,128-0-10,0724_eid_s01_128-0-10_chair_10_n02791124_3671.png
subject-01,1,725,1.03149580955505,chair,clock,8-0-10,0725_eid_s01_8-0-10_clock_10_n03196217_911.png
subject-01,1,726,1.28176021575928,truck,knife,1-0-10,0726_eid_s01_1-0-10_knife_10_n03041632_26314.png
subject-01,1,727,1.27741408348083,knife,dog,32-0-10,0727_eid_s01_32-0-10_dog_10_n02088238_4028.png
subject-01,1,728,0.765117883682251,bicycle,chair,64-0-10,0728_eid_s01_64-0-10_chair_10_n03376595_3015.png
subject-01,1,729,1.20889711380005,boat,boat,4-0-10,0729_eid_s01_4-0-10_boat_10_n04612504_21132.png
subject-01,1,730,0.784592866897583,keyboard,bottle,2-0-10,0730_eid_s01_2-0-10_bottle_10_n04591713_6351.png
subject-01,1,731,0.946850061416626,bicycle,keyboard,128-0-10,0731_eid_s01_128-0-10_keyboard_10_n03085013_21645.png
subject-01,1,732,0.826316118240356,bird,bicycle,16-0-10,0732_eid_s01_16-0-10_bicycle_10_n03792782_11995.png
subject-01,1,733,0.972145080566406,truck,truck,4-0-10,0733_eid_s01_4-0-10_truck_10_n03417042_16238.png
subject-01,1,734,1.00032305717468,oven,airplane,32-0-10,0734_eid_s01_32-0-10_airplane_10_n02690373_1611.png
subject-01,1,735,1.05184888839722,chair,chair,2-0-10,0735_eid_s01_2-0-10_chair_10_n02791124_11523.png
subject-01,1,736,1.50009703636169,keyboard,oven,128-0-10,0736_eid_s01_128-0-10_oven_10_n04111531_12129.png
subject-01,1,737,1.42929005622864,oven,chair,1-0-10,0737_eid_s01_1-0-10_chair_10_n03376595_13578.png
subject-01,1,738,1.09921407699585,cat,oven,64-0-10,0738_eid_s01_64-0-10_oven_10_n04111531_136.png
subject-01,1,739,0.575055837631226,boat,truck,64-0-10,0739_eid_s01_64-0-10_truck_10_n03417042_26814.png
subject-01,1,740,0.853009939193726,knife,oven,128-0-10,0740_eid_s01_128-0-10_oven_10_n04111531_4795.png
subject-01,1,741,0.960798025131226,bicycle,car,32-0-10,0741_eid_s01_32-0-10_car_10_n04285008_5869.png
subject-01,1,742,0.754435062408447,boat,knife,64-0-10,0742_eid_s01_64-0-10_knife_10_n03041632_21425.png
subject-01,1,743,1.12644219398499,boat,boat,1-0-10,0743_eid_s01_1-0-10_boat_10_n03344393_2301.png
subject-01,1,744,0.990067958831787,keyboard,oven,2-0-10,0744_eid_s01_2-0-10_oven_10_n04111531_10476.png
subject-01,1,745,0.88599681854248,chair,chair,1-0-10,0745_eid_s01_1-0-10_chair_10_n03376595_10149.png
subject-01,1,746,1.23575282096863,bicycle,keyboard,64-0-10,0746_eid_s01_64-0-10_keyboard_10_n03085013_1483.png
subject-01,1,747,0.975362777709961,car,bottle,128-0-10,0747_eid_s01_128-0-10_bottle_10_n04591713_2555.png
subject-01,1,748,0.651543140411377,airplane,airplane,2-0-10,0748_eid_s01_2-0-10_airplane_10_n02690373_4851.png
subject-01,1,749,1.45510506629944,bird,dog,32-0-10,0749_eid_s01_32-0-10_dog_10_n02096051_2151.png
subject-01,1,750,0.848970890045166,elephant,elephant,2-0-10,0750_eid_s01_2-0-10_elephant_10_n02504013_1708.png
subject-01,1,751,1.0106029510498,bear,elephant,32-0-10,0751_eid_s01_32-0-10_elephant_10_n02504013_7732.png
subject-01,1,752,1.20247483253479,cat,truck,32-0-10,0752_eid_s01_32-0-10_truck_10_n04467665_9833.png
subject-01,1,753,0.942430019378662,oven,oven,128-0-10,0753_eid_s01_128-0-10_oven_10_n04111531_5328.png
subject-01,1,754,1.01021599769592,chair,bottle,2-0-10,0754_eid_s01_2-0-10_bottle_10_n04557648_954.png
subject-01,1,755,1.16394019126892,bicycle,elephant,16-0-10,0755_eid_s01_16-0-10_elephant_10_n02504013_3857.png
subject-01,1,756,0.791769981384277,dog,dog,8-0-10,0756_eid_s01_8-0-10_dog_10_n02101388_9815.png
subject-01,1,757,1.09365105628967,boat,airplane,128-0-10,0757_eid_s01_128-0-10_airplane_10_n02690373_5141.png
subject-01,1,758,0.871661186218262,knife,cat,16-0-10,0758_eid_s01_16-0-10_cat_10_n02123045_6514.png
subject-01,1,759,0.687126874923706,bicycle,bicycle,1-0-10,0759_eid_s01_1-0-10_bicycle_10_n03792782_12074.png
subject-01,1,760,0.687102794647217,bird,bird,1-0-10,0760_eid_s01_1-0-10_bird_10_n02027492_5222.png
subject-01,1,761,0.936769008636475,bicycle,bird,64-0-10,0761_eid_s01_64-0-10_bird_10_n02013706_5454.png
subject-01,1,762,0.824618101119995,bear,bear,4-0-10,0762_eid_s01_4-0-10_bear_10_n02133161_10700.png
subject-01,1,763,1.0344250202179,bottle,bottle,8-0-10,0763_eid_s01_8-0-10_bottle_10_n04591713_807.png
subject-01,1,764,0.81810998916626,oven,bird,32-0-10,0764_eid_s01_32-0-10_bird_10_n02028035_2219.png
subject-01,1,765,1.09008598327637,bicycle,cat,64-0-10,0765_eid_s01_64-0-10_cat_10_n02123394_5071.png
subject-01,1,766,0.85987401008606,clock,clock,16-0-10,0766_eid_s01_16-0-10_clock_10_n02708093_3173.png
subject-01,1,767,0.849967002868652,boat,bird,8-0-10,0767_eid_s01_8-0-10_bird_10_n02013706_406.png
subject-01,1,768,0.921584844589233,bicycle,truck,64-0-10,0768_eid_s01_64-0-10_truck_10_n04467665_23731.png
subject-01,1,769,0.879379987716675,car,car,16-0-10,0769_eid_s01_16-0-10_car_10_n03100240_16803.png
subject-01,1,770,0.89129900932312,bicycle,knife,128-0-10,0770_eid_s01_128-0-10_knife_10_n03041632_10999.png
subject-01,1,771,0.999102115631104,car,dog,16-0-10,0771_eid_s01_16-0-10_dog_10_n02111129_5833.png
subject-01,1,772,0.902807950973511,clock,keyboard,16-0-10,0772_eid_s01_16-0-10_keyboard_10_n04505470_3961.png
subject-01,1,773,1.18255305290222,truck,knife,128-0-10,0773_eid_s01_128-0-10_knife_10_n03041632_33584.png
subject-01,1,774,0.882498025894165,boat,oven,16-0-10,0774_eid_s01_16-0-10_oven_10_n04111531_5792.png
subject-01,1,775,0.704117059707642,airplane,airplane,4-0-10,0775_eid_s01_4-0-10_airplane_10_n02690373_6429.png
subject-01,1,776,0.903964996337891,airplane,airplane,1-0-10,0776_eid_s01_1-0-10_airplane_10_n02690373_3728.png
subject-01,1,777,1.02616190910339,keyboard,car,64-0-10,0777_eid_s01_64-0-10_car_10_n02814533_17956.png
subject-01,1,778,0.677632093429565,keyboard,keyboard,4-0-10,0778_eid_s01_4-0-10_keyboard_10_n04505470_3306.png
subject-01,1,779,1.08151006698608,truck,airplane,2-0-10,0779_eid_s01_2-0-10_airplane_10_n02690373_1441.png
subject-01,1,780,0.889291048049927,airplane,car,16-0-10,0780_eid_s01_16-0-10_car_10_n03100240_7788.png
subject-01,1,781,1.00511789321899,elephant,elephant,1-0-10,0781_eid_s01_1-0-10_elephant_10_n02504458_4248.png
subject-01,1,782,1.1348991394043,keyboard,car,128-0-10,0782_eid_s01_128-0-10_car_10_n02814533_64988.png
subject-01,1,783,1.01293396949768,boat,bear,8-0-10,0783_eid_s01_8-0-10_bear_10_n02134418_5131.png
subject-01,1,784,1.04865694046021,bird,bear,16-0-10,0784_eid_s01_16-0-10_bear_10_n02132136_2900.png
subject-01,1,785,1.02453017234802,bird,bear,4-0-10,0785_eid_s01_4-0-10_bear_10_n02134418_6030.png
subject-01,1,786,0.738173961639404,bear,bear,4-0-10,0786_eid_s01_4-0-10_bear_10_n02133161_334.png
subject-01,1,787,1.2280650138855,cat,bear,16-0-10,0787_eid_s01_16-0-10_bear_10_n02132136_2765.png
subject-01,1,788,0.897772073745728,keyboard,keyboard,128-0-10,0788_eid_s01_128-0-10_keyboard_10_n03085013_23943.png
subject-01,1,789,0.895687103271484,bottle,bird,128-0-10,0789_eid_s01_128-0-10_bird_10_n02051845_2316.png
subject-01,1,790,0.635490894317627,bear,bear,1-0-10,0790_eid_s01_1-0-10_bear_10_n02134418_2545.png
subject-01,1,791,1.16735506057739,chair,clock,32-0-10,0791_eid_s01_32-0-10_clock_10_n02708093_3669.png
subject-01,1,792,0.731027841567993,bear,dog,2-0-10,0792_eid_s01_2-0-10_dog_10_n02101006_1160.png
subject-01,1,793,1.09692096710205,bottle,cat,16-0-10,0793_eid_s01_16-0-10_cat_10_n02123394_5907.png
subject-01,1,794,0.788735866546631,truck,truck,1-0-10,0794_eid_s01_1-0-10_truck_10_n04467665_49282.png
subject-01,1,795,1.23048686981201,bear,chair,8-0-10,0795_eid_s01_8-0-10_chair_10_n04099969_9017.png
subject-01,1,796,0.758261919021606,dog,dog,4-0-10,0796_eid_s01_4-0-10_dog_10_n02113624_1212.png
subject-01,1,797,1.10848999023438,chair,oven,64-0-10,0797_eid_s01_64-0-10_oven_10_n04111531_769.png
subject-01,1,798,1.04786014556885,bear,dog,2-0-10,0798_eid_s01_2-0-10_dog_10_n02090721_5234.png
subject-01,1,799,1.37569689750671,dog,airplane,64-0-10,0799_eid_s01_64-0-10_airplane_10_n02690373_10012.png
subject-01,1,800,0.997634172439575,car,oven,128-0-10,0800_eid_s01_128-0-10_oven_10_n04111531_11221.png
subject-01,1,801,0.647778034210205,oven,oven,4-0-10,0801_eid_s01_4-0-10_oven_10_n04111531_8046.png
subject-01,1,802,0.763084888458252,clock,clock,1-0-10,0802_eid_s01_1-0-10_clock_10_n02708093_4267.png
subject-01,1,803,0.867367029190063,airplane,airplane,8-0-10,0803_eid_s01_8-0-10_airplane_10_n02690373_6836.png
subject-01,1,804,0.502737045288086,cat,cat,1-0-10,0804_eid_s01_1-0-10_cat_10_n02123159_8039.png
subject-01,1,805,1.00881910324097,clock,bird,128-0-10,0805_eid_s01_128-0-10_bird_10_n01855032_8576.png
subject-01,1,806,0.590517997741699,clock,clock,1-0-10,0806_eid_s01_1-0-10_clock_10_n04548280_16233.png
subject-01,1,807,0.720226049423218,bottle,bottle,2-0-10,0807_eid_s01_2-0-10_bottle_10_n04591713_5406.png
subject-01,1,808,0.870110034942627,keyboard,keyboard,128-0-10,0808_eid_s01_128-0-10_keyboard_10_n03085013_23561.png
subject-01,1,809,0.899853944778442,keyboard,keyboard,8-0-10,0809_eid_s01_8-0-10_keyboard_10_n03085013_5812.png
subject-01,1,810,0.951744794845581,dog,dog,4-0-10,0810_eid_s01_4-0-10_dog_10_n02101556_9675.png
subject-01,1,811,1.13150596618652,boat,truck,32-0-10,0811_eid_s01_32-0-10_truck_10_n03417042_2812.png
subject-01,1,812,0.579211950302124,boat,boat,2-0-10,0812_eid_s01_2-0-10_boat_10_n02951358_16803.png
subject-01,1,813,0.967451810836792,keyboard,cat,128-0-10,0813_eid_s01_128-0-10_cat_10_n02125311_35098.png
subject-01,1,814,0.902930974960327,cat,bottle,16-0-10,0814_eid_s01_16-0-10_bottle_10_n03983396_11597.png
subject-01,1,815,0.946633100509644,truck,truck,8-0-10,0815_eid_s01_8-0-10_truck_10_n03417042_16370.png
subject-01,1,816,0.750428915023804,bear,bear,1-0-10,0816_eid_s01_1-0-10_bear_10_n02133161_4513.png
subject-01,1,817,0.916306972503662,boat,truck,16-0-10,0817_eid_s01_16-0-10_truck_10_n03417042_4157.png
subject-01,1,818,1.32817506790161,knife,bird,32-0-10,0818_eid_s01_32-0-10_bird_10_n01829413_8851.png
subject-01,1,819,0.772162914276123,airplane,airplane,4-0-10,0819_eid_s01_4-0-10_airplane_10_n02690373_9802.png
subject-01,1,820,0.767753124237061,boat,boat,1-0-10,0820_eid_s01_1-0-10_boat_10_n02951358_30458.png
subject-01,1,821,0.813554048538208,clock,clock,16-0-10,0821_eid_s01_16-0-10_clock_10_n03196217_5888.png
subject-01,1,822,0.693465948104858,boat,bicycle,8-0-10,0822_eid_s01_8-0-10_bicycle_10_n02835271_3642.png
subject-01,1,823,0.745206832885742,boat,boat,8-0-10,0823_eid_s01_8-0-10_boat_10_n04612504_30603.png
subject-01,1,824,0.946923971176147,bear,boat,32-0-10,0824_eid_s01_32-0-10_boat_10_n03662601_4558.png
subject-01,1,825,1.02894687652588,dog,bird,128-0-10,0825_eid_s01_128-0-10_bird_10_n02009229_5290.png
subject-01,1,826,1.02067518234253,bicycle,clock,32-0-10,0826_eid_s01_32-0-10_clock_10_n02708093_6982.png
subject-01,1,827,0.840569972991943,truck,truck,1-0-10,0827_eid_s01_1-0-10_truck_10_n04467665_2797.png
subject-01,1,828,0.822288990020752,bird,bird,1-0-10,0828_eid_s01_1-0-10_bird_10_n01798484_4934.png
subject-01,1,829,1.25004696846008,chair,oven,16-0-10,0829_eid_s01_16-0-10_oven_10_n04111531_3805.png
subject-01,1,830,0.909975051879883,car,clock,16-0-10,0830_eid_s01_16-0-10_clock_10_n03196217_5620.png
subject-01,1,831,1.0960259437561,truck,cat,4-0-10,0831_eid_s01_4-0-10_cat_10_n02123597_2069.png
subject-01,1,832,1.07556295394897,keyboard,keyboard,4-0-10,0832_eid_s01_4-0-10_keyboard_10_n04505470_64.png
subject-01,1,833,1.08925604820251,oven,elephant,128-0-10,0833_eid_s01_128-0-10_elephant_10_n02504458_964.png
subject-01,1,834,0.993143081665039,bicycle,truck,64-0-10,0834_eid_s01_64-0-10_truck_10_n03796401_25570.png
subject-01,1,835,NaN,na,clock,128-0-10,0835_eid_s01_128-0-10_clock_10_n04548280_4872.png
subject-01,1,836,1.50000905990601,car,dog,2-0-10,0836_eid_s01_2-0-10_dog_10_n02095570_1434.png
subject-01,1,837,1.13053178787231,bear,bicycle,1-0-10,0837_eid_s01_1-0-10_bicycle_10_n03792782_4544.png
subject-01,1,838,0.860368013381958,airplane,airplane,8-0-10,0838_eid_s01_8-0-10_airplane_10_n02690373_6663.png
subject-01,1,839,0.928595066070557,keyboard,bottle,64-0-10,0839_eid_s01_64-0-10_bottle_10_n03983396_14002.png
subject-01,1,840,1.07595586776733,oven,bicycle,128-0-10,0840_eid_s01_128-0-10_bicycle_10_n02835271_9944.png
subject-01,1,841,0.853962182998657,keyboard,chair,8-0-10,0841_eid_s01_8-0-10_chair_10_n03376595_6589.png
subject-01,1,842,1.11578702926636,airplane,airplane,32-0-10,0842_eid_s01_32-0-10_airplane_10_n02690373_2823.png
subject-01,1,843,0.95549488067627,keyboard,keyboard,1-0-10,0843_eid_s01_1-0-10_keyboard_10_n03085013_9066.png
subject-01,1,844,0.979170083999634,knife,cat,1-0-10,0844_eid_s01_1-0-10_cat_10_n02123394_8695.png
subject-01,1,845,0.913090229034424,car,cat,32-0-10,0845_eid_s01_32-0-10_cat_10_n02125311_14714.png
subject-01,1,846,0.902783870697021,chair,oven,64-0-10,0846_eid_s01_64-0-10_oven_10_n04111531_17781.png
subject-01,1,847,1.03274488449097,elephant,car,32-0-10,0847_eid_s01_32-0-10_car_10_n02814533_6498.png
subject-01,1,848,1.12267994880676,truck,boat,8-0-10,0848_eid_s01_8-0-10_boat_10_n03344393_5322.png
subject-01,1,849,1.04849195480347,knife,knife,2-0-10,0849_eid_s01_2-0-10_knife_10_n03041632_54191.png
subject-01,1,850,0.984173059463501,bird,bottle,64-0-10,0850_eid_s01_64-0-10_bottle_10_n03937543_2790.png
subject-01,1,851,0.766121864318848,bottle,boat,64-0-10,0851_eid_s01_64-0-10_boat_10_n04273569_5672.png
subject-01,1,852,1.02372193336487,boat,elephant,4-0-10,0852_eid_s01_4-0-10_elephant_10_n02504458_6830.png
subject-01,1,853,0.850013017654419,bird,bird,1-0-10,0853_eid_s01_1-0-10_bird_10_n01824575_10046.png
subject-01,1,854,1.04141807556152,car,keyboard,16-0-10,0854_eid_s01_16-0-10_keyboard_10_n03085013_6643.png
subject-01,1,855,0.915324926376343,oven,bicycle,64-0-10,0855_eid_s01_64-0-10_bicycle_10_n03792782_59.png
subject-01,1,856,1.06916499137878,truck,chair,8-0-10,0856_eid_s01_8-0-10_chair_10_n04099969_4816.png
subject-01,1,857,0.876836061477661,car,car,2-0-10,0857_eid_s01_2-0-10_car_10_n02814533_20712.png
subject-01,1,858,1.35480093955994,chair,bottle,4-0-10,0858_eid_s01_4-0-10_bottle_10_n04560804_15122.png
subject-01,1,859,1.50001406669617,chair,clock,4-0-10,0859_eid_s01_4-0-10_clock_10_n04548280_11681.png
subject-01,1,860,0.638261079788208,bear,elephant,1-0-10,0860_eid_s01_1-0-10_elephant_10_n02504013_6287.png
subject-01,1,861,0.698108911514282,boat,boat,2-0-10,0861_eid_s01_2-0-10_boat_10_n04273569_14363.png
subject-01,1,862,0.822242975234985,elephant,elephant,4-0-10,0862_eid_s01_4-0-10_elephant_10_n02504013_2033.png
subject-01,1,863,0.929724931716919,elephant,elephant,4-0-10,0863_eid_s01_4-0-10_elephant_10_n02504013_6897.png
subject-01,1,864,1.04354310035706,truck,knife,128-0-10,0864_eid_s01_128-0-10_knife_10_n03041632_35260.png
subject-01,1,865,0.797546148300171,bottle,bottle,1-0-10,0865_eid_s01_1-0-10_bottle_10_n03983396_12916.png
subject-01,1,866,0.653178930282593,bicycle,bicycle,1-0-10,0866_eid_s01_1-0-10_bicycle_10_n02835271_1530.png
subject-01,1,867,0.770917892456055,car,car,2-0-10,0867_eid_s01_2-0-10_car_10_n02814533_41478.png
subject-01,1,868,1.20680284500122,oven,keyboard,64-0-10,0868_eid_s01_64-0-10_keyboard_10_n04505470_3929.png
subject-01,1,869,0.946600914001465,bird,chair,16-0-10,0869_eid_s01_16-0-10_chair_10_n02791124_6505.png
subject-01,1,870,1.12278509140015,dog,clock,16-0-10,0870_eid_s01_16-0-10_clock_10_n04548280_1438.png
subject-01,1,871,1.14230513572693,bottle,knife,2-0-10,0871_eid_s01_2-0-10_knife_10_n03041632_22480.png
subject-01,1,872,1.36010503768921,knife,truck,32-0-10,0872_eid_s01_32-0-10_truck_10_n03417042_16000.png
subject-01,1,873,1.42790794372559,bear,chair,16-0-10,0873_eid_s01_16-0-10_chair_10_n04099969_16270.png
subject-01,1,874,1.1838071346283,airplane,knife,16-0-10,0874_eid_s01_16-0-10_knife_10_n03041632_80829.png
subject-01,1,875,0.955501079559326,oven,oven,4-0-10,0875_eid_s01_4-0-10_oven_10_n04111531_1128.png
subject-01,1,876,1.43731999397278,cat,cat,2-0-10,0876_eid_s01_2-0-10_cat_10_n02123394_830.png
subject-01,1,877,1.18122315406799,truck,boat,1-0-10,0877_eid_s01_1-0-10_boat_10_n03344393_1017.png
subject-01,1,878,1.11288595199585,knife,bear,8-0-10,0878_eid_s01_8-0-10_bear_10_n02134418_5120.png
subject-01,1,879,0.940697193145752,truck,truck,1-0-10,0879_eid_s01_1-0-10_truck_10_n04467665_9589.png
subject-01,1,880,1.0983829498291,chair,boat,32-0-10,0880_eid_s01_32-0-10_boat_10_n04273569_9821.png
subject-01,1,881,0.796544075012207,keyboard,clock,128-0-10,0881_eid_s01_128-0-10_clock_10_n04548280_4346.png
subject-01,1,882,0.660449028015137,boat,bird,16-0-10,0882_eid_s01_16-0-10_bird_10_n01855032_8095.png
subject-01,1,883,0.944161891937256,bottle,knife,32-0-10,0883_eid_s01_32-0-10_knife_10_n03041632_87380.png
subject-01,1,884,0.928104162216187,bicycle,bear,128-0-10,0884_eid_s01_128-0-10_bear_10_n02134084_16227.png
subject-01,1,885,0.971947908401489,truck,cat,8-0-10,0885_eid_s01_8-0-10_cat_10_n02123045_8751.png
subject-01,1,886,1.02960610389709,cat,chair,64-0-10,0886_eid_s01_64-0-10_chair_10_n04429376_36848.png
subject-01,1,887,0.957549810409546,bottle,bottle,2-0-10,0887_eid_s01_2-0-10_bottle_10_n04579145_2346.png
subject-01,1,888,0.663256883621216,truck,truck,4-0-10,0888_eid_s01_4-0-10_truck_10_n03796401_1791.png
subject-01,1,889,0.715263843536377,bear,bear,4-0-10,0889_eid_s01_4-0-10_bear_10_n02134084_7079.png
subject-01,1,890,NaN,na,cat,128-0-10,0890_eid_s01_128-0-10_cat_10_n02125311_2981.png
subject-01,1,891,0.928694009780884,chair,airplane,32-0-10,0891_eid_s01_32-0-10_airplane_10_n02690373_18845.png
subject-01,1,892,0.682496070861816,oven,oven,128-0-10,0892_eid_s01_128-0-10_oven_10_n04111531_17045.png
subject-01,1,893,0.780738115310669,airplane,car,16-0-10,0893_eid_s01_16-0-10_car_10_n04285008_8959.png
subject-01,1,894,0.716159105300903,keyboard,keyboard,1-0-10,0894_eid_s01_1-0-10_keyboard_10_n03085013_24284.png
subject-01,1,895,0.760010004043579,airplane,airplane,2-0-10,0895_eid_s01_2-0-10_airplane_10_n02690373_2316.png
subject-01,1,896,0.835846185684204,car,oven,64-0-10,0896_eid_s01_64-0-10_oven_10_n04111531_9210.png
subject-01,1,897,0.631701946258545,car,car,2-0-10,0897_eid_s01_2-0-10_car_10_n03100240_23229.png
subject-01,1,898,0.689252138137817,keyboard,keyboard,1-0-10,0898_eid_s01_1-0-10_keyboard_10_n04505470_3314.png
subject-01,1,899,0.821306943893433,oven,bottle,128-0-10,0899_eid_s01_128-0-10_bottle_10_n02823428_7788.png
subject-01,1,900,0.944950819015503,dog,bear,2-0-10,0900_eid_s01_2-0-10_bear_10_n02134418_18850.png
subject-01,1,901,0.793174028396606,cat,knife,16-0-10,0901_eid_s01_16-0-10_knife_10_n03041632_992.png
subject-01,1,902,0.836784839630127,chair,chair,8-0-10,0902_eid_s01_8-0-10_chair_10_n04429376_17013.png
subject-01,1,903,1.06441020965576,truck,cat,32-0-10,0903_eid_s01_32-0-10_cat_10_n02123394_1879.png
subject-01,1,904,1.07434988021851,bird,keyboard,8-0-10,0904_eid_s01_8-0-10_keyboard_10_n03085013_24166.png
subject-01,1,905,0.790329933166504,chair,car,8-0-10,0905_eid_s01_8-0-10_car_10_n03100240_1140.png
subject-01,1,906,1.22800397872925,bicycle,boat,32-0-10,0906_eid_s01_32-0-10_boat_10_n04612504_125.png
subject-01,1,907,0.809615135192871,keyboard,boat,128-0-10,0907_eid_s01_128-0-10_boat_10_n03344393_1573.png
subject-01,1,908,0.633624076843262,clock,chair,128-0-10,0908_eid_s01_128-0-10_chair_10_n02791124_1482.png
subject-01,1,909,0.655426979064941,bird,bird,2-0-10,0909_eid_s01_2-0-10_bird_10_n01592084_3147.png
subject-01,1,910,1.13112688064575,bicycle,bicycle,8-0-10,0910_eid_s01_8-0-10_bicycle_10_n03792782_14293.png
subject-01,1,911,0.636903047561646,truck,truck,4-0-10,0911_eid_s01_4-0-10_truck_10_n03417042_26102.png
subject-01,1,912,0.766723871231079,clock,chair,2-0-10,0912_eid_s01_2-0-10_chair_10_n03376595_6973.png
subject-01,1,913,0.874709129333496,bottle,cat,64-0-10,0913_eid_s01_64-0-10_cat_10_n02123394_292.png
subject-01,1,914,0.646542072296143,airplane,airplane,1-0-10,0914_eid_s01_1-0-10_airplane_10_n02690373_4136.png
subject-01,1,915,0.862370014190674,boat,bird,2-0-10,0915_eid_s01_2-0-10_bird_10_n01795545_15255.png
subject-01,1,916,0.648115158081055,chair,chair,1-0-10,0916_eid_s01_1-0-10_chair_10_n04099969_12537.png
subject-01,1,917,0.944164037704468,car,bear,32-0-10,0917_eid_s01_32-0-10_bear_10_n02132136_13078.png
subject-01,1,918,0.705777168273926,truck,bear,32-0-10,0918_eid_s01_32-0-10_bear_10_n02132136_1738.png
subject-01,1,919,0.787541151046753,airplane,airplane,2-0-10,0919_eid_s01_2-0-10_airplane_10_n02690373_1706.png
subject-01,1,920,0.933311939239502,car,bicycle,64-0-10,0920_eid_s01_64-0-10_bicycle_10_n02835271_7051.png
subject-01,1,921,0.937303066253662,truck,oven,8-0-10,0921_eid_s01_8-0-10_oven_10_n04111531_1150.png
subject-01,1,922,0.802908897399902,car,bear,64-0-10,0922_eid_s01_64-0-10_bear_10_n02132136_14832.png
subject-01,1,923,0.620783090591431,cat,cat,2-0-10,0923_eid_s01_2-0-10_cat_10_n02123159_2684.png
subject-01,1,924,1.03273415565491,chair,keyboard,8-0-10,0924_eid_s01_8-0-10_keyboard_10_n03085013_24217.png
subject-01,1,925,0.716660022735596,airplane,airplane,1-0-10,0925_eid_s01_1-0-10_airplane_10_n02690373_6739.png
subject-01,1,926,1.0981080532074,bicycle,oven,128-0-10,0926_eid_s01_128-0-10_oven_10_n04111531_6622.png
subject-01,1,927,0.994001865386963,bottle,bird,8-0-10,0927_eid_s01_8-0-10_bird_10_n01514859_7974.png
subject-01,1,928,0.991728067398071,keyboard,clock,128-0-10,0928_eid_s01_128-0-10_clock_10_n04548280_23690.png
subject-01,1,929,0.715788125991821,truck,truck,4-0-10,0929_eid_s01_4-0-10_truck_10_n03417042_14574.png
subject-01,1,930,0.995541095733643,bird,bird,4-0-10,0930_eid_s01_4-0-10_bird_10_n01592084_7870.png
subject-01,1,931,0.891204118728638,chair,bird,64-0-10,0931_eid_s01_64-0-10_bird_10_n01843383_6887.png
subject-01,1,932,1.02088499069214,bicycle,airplane,64-0-10,0932_eid_s01_64-0-10_airplane_10_n02690373_8543.png
subject-01,1,933,1.1671359539032,boat,chair,128-0-10,0933_eid_s01_128-0-10_chair_10_n03376595_8409.png
subject-01,1,934,0.702996015548706,car,car,8-0-10,0934_eid_s01_8-0-10_car_10_n02814533_68668.png
subject-01,1,935,0.940386056900024,knife,bear,128-0-10,0935_eid_s01_128-0-10_bear_10_n02134084_6286.png
subject-01,1,936,0.954159021377563,knife,bicycle,32-0-10,0936_eid_s01_32-0-10_bicycle_10_n02835271_9482.png
subject-01,1,937,1.20014095306396,dog,keyboard,64-0-10,0937_eid_s01_64-0-10_keyboard_10_n03085013_20322.png
subject-01,1,938,1.14188385009766,keyboard,bird,128-0-10,0938_eid_s01_128-0-10_bird_10_n01843065_958.png
subject-01,1,939,1.35761785507202,clock,boat,128-0-10,0939_eid_s01_128-0-10_boat_10_n04612504_1889.png
subject-01,1,940,0.877862930297852,bird,car,32-0-10,0940_eid_s01_32-0-10_car_10_n04285008_10824.png
subject-01,1,941,1.41530680656433,bottle,keyboard,32-0-10,0941_eid_s01_32-0-10_keyboard_10_n04505470_10596.png
subject-01,1,942,1.09128403663635,knife,chair,64-0-10,0942_eid_s01_64-0-10_chair_10_n04429376_17336.png
subject-01,1,943,0.992906808853149,bear,truck,128-0-10,0943_eid_s01_128-0-10_truck_10_n03796401_4898.png
subject-01,1,944,0.764854907989502,bear,bear,1-0-10,0944_eid_s01_1-0-10_bear_10_n02132136_13556.png
subject-01,1,945,1.47454023361206,bird,bird,32-0-10,0945_eid_s01_32-0-10_bird_10_n02051845_34393.png
subject-01,1,946,0.892400026321411,dog,dog,1-0-10,0946_eid_s01_1-0-10_dog_10_n02098286_4560.png
subject-01,1,947,0.790212869644165,cat,bird,16-0-10,0947_eid_s01_16-0-10_bird_10_n02007558_15130.png
subject-01,1,948,1.16198897361755,elephant,elephant,32-0-10,0948_eid_s01_32-0-10_elephant_10_n02504458_10344.png
subject-01,1,949,1.05598998069763,truck,clock,128-0-10,0949_eid_s01_128-0-10_clock_10_n03196217_2919.png
subject-01,1,950,1.23361611366272,cat,bear,32-0-10,0950_eid_s01_32-0-10_bear_10_n02132136_4203.png
subject-01,1,951,1.05178093910217,knife,bird,32-0-10,0951_eid_s01_32-0-10_bird_10_n01582220_10508.png
subject-01,1,952,0.733219861984253,bicycle,bicycle,1-0-10,0952_eid_s01_1-0-10_bicycle_10_n03792782_9692.png
subject-01,1,953,0.943516969680786,clock,clock,8-0-10,0953_eid_s01_8-0-10_clock_10_n03196217_5433.png
subject-01,1,954,1.12926697731018,keyboard,elephant,64-0-10,0954_eid_s01_64-0-10_elephant_10_n02504013_6703.png
subject-01,1,955,0.88270902633667,dog,dog,1-0-10,0955_eid_s01_1-0-10_dog_10_n02093991_8648.png
subject-01,1,956,0.952953815460205,dog,bird,4-0-10,0956_eid_s01_4-0-10_bird_10_n02033041_7196.png
subject-01,1,957,1.32452607154846,truck,truck,2-0-10,0957_eid_s01_2-0-10_truck_10_n03796401_26820.png
subject-01,1,958,0.888164043426514,oven,oven,2-0-10,0958_eid_s01_2-0-10_oven_10_n04111531_12820.png
subject-01,1,959,1.08209013938904,keyboard,truck,1-0-10,0959_eid_s01_1-0-10_truck_10_n03417042_3389.png
subject-01,1,960,0.827850103378296,boat,bicycle,4-0-10,0960_eid_s01_4-0-10_bicycle_10_n03792782_10366.png
subject-01,1,961,1.09036684036255,bear,bear,8-0-10,0961_eid_s01_8-0-10_bear_10_n02134084_2598.png
subject-01,1,962,0.650319814682007,keyboard,keyboard,1-0-10,0962_eid_s01_1-0-10_keyboard_10_n04505470_10697.png
subject-01,1,963,0.990115880966187,chair,truck,64-0-10,0963_eid_s01_64-0-10_truck_10_n04467665_43222.png
subject-01,1,964,0.775990009307861,car,car,8-0-10,0964_eid_s01_8-0-10_car_10_n04285008_2232.png
subject-01,1,965,0.819794893264771,bicycle,bicycle,2-0-10,0965_eid_s01_2-0-10_bicycle_10_n03792782_3388.png
subject-01,1,966,1.1955349445343,cat,clock,16-0-10,0966_eid_s01_16-0-10_clock_10_n03196217_7816.png
subject-01,1,967,0.757401943206787,keyboard,bottle,128-0-10,0967_eid_s01_128-0-10_bottle_10_n02823428_3.png
subject-01,1,968,1.07502698898315,truck,dog,128-0-10,0968_eid_s01_128-0-10_dog_10_n02097130_3615.png
