subj,Session,trial,rt,object_response,category,condition,imagename
subject-04,1,1,0.963965892791748,bear,airplane,2-0-10,0001_eid_s04_2-0-10_airplane_10_n02690373_1979.png
subject-04,1,2,1.4842050075531,bear,elephant,32-0-10,0002_eid_s04_32-0-10_elephant_10_n02504458_10344.png
subject-04,1,3,0.701827049255371,clock,clock,2-0-10,0003_eid_s04_2-0-10_clock_10_n02708093_1701.png
subject-04,1,4,1.33755588531494,boat,clock,8-0-10,0004_eid_s04_8-0-10_clock_10_n02708093_6822.png
subject-04,1,5,0.827467918395996,cat,chair,128-0-10,0005_eid_s04_128-0-10_chair_10_n03376595_8409.png
subject-04,1,6,1.45340204238892,bottle,car,16-0-10,0006_eid_s04_16-0-10_car_10_n03100240_7788.png
subject-04,1,7,1.46707010269165,dog,cat,8-0-10,0007_eid_s04_8-0-10_cat_10_n02123045_964.png
subject-04,1,8,0.91098690032959,bear,dog,16-0-10,0008_eid_s04_16-0-10_dog_10_n02106030_19249.png
subject-04,1,9,1.00059795379639,bear,airplane,16-0-10,0009_eid_s04_16-0-10_airplane_10_n02690373_1909.png
subject-04,1,10,1.11688613891602,cat,cat,128-0-10,0010_eid_s04_128-0-10_cat_10_n02124075_6464.png
subject-04,1,11,1.15230107307434,keyboard,truck,64-0-10,0011_eid_s04_64-0-10_truck_10_n03796401_25570.png
subject-04,1,12,1.50012898445129,dog,knife,32-0-10,0012_eid_s04_32-0-10_knife_10_n03041632_87380.png
subject-04,1,13,1.00197005271912,bear,bicycle,32-0-10,0013_eid_s04_32-0-10_bicycle_10_n02835271_15524.png
subject-04,1,14,1.00567603111267,car,oven,16-0-10,0014_eid_s04_16-0-10_oven_10_n04111531_5792.png
subject-04,1,15,1.03941607475281,boat,knife,16-0-10,0015_eid_s04_16-0-10_knife_10_n03041632_7680.png
subject-04,1,16,1.13130879402161,bear,truck,32-0-10,0016_eid_s04_32-0-10_truck_10_n03796401_6971.png
subject-04,1,17,0.903536081314087,bicycle,bottle,128-0-10,0017_eid_s04_128-0-10_bottle_10_n04557648_4106.png
subject-04,1,18,0.936952829360962,keyboard,keyboard,4-0-10,0018_eid_s04_4-0-10_keyboard_10_n04505470_3306.png
subject-04,1,19,0.894726037979126,bear,bottle,64-0-10,0019_eid_s04_64-0-10_bottle_10_n04591713_360.png
subject-04,1,20,0.934542894363403,bottle,bottle,1-0-10,0020_eid_s04_1-0-10_bottle_10_n04579145_5979.png
subject-04,1,21,0.986582040786743,elephant,elephant,2-0-10,0021_eid_s04_2-0-10_elephant_10_n02504013_7926.png
subject-04,1,22,0.958269119262695,cat,bottle,128-0-10,0022_eid_s04_128-0-10_bottle_10_n03983396_4540.png
subject-04,1,23,1.15247893333435,bird,clock,16-0-10,0023_eid_s04_16-0-10_clock_10_n04548280_5130.png
subject-04,1,24,1.25591015815735,keyboard,elephant,128-0-10,0024_eid_s04_128-0-10_elephant_10_n02504013_4247.png
subject-04,1,25,0.887659072875977,boat,knife,32-0-10,0025_eid_s04_32-0-10_knife_10_n03041632_12949.png
subject-04,1,26,1.02743005752563,bear,oven,32-0-10,0026_eid_s04_32-0-10_oven_10_n04111531_16795.png
subject-04,1,27,1.06334400177002,chair,chair,8-0-10,0027_eid_s04_8-0-10_chair_10_n02791124_1704.png
subject-04,1,28,0.909283876419067,boat,boat,4-0-10,0028_eid_s04_4-0-10_boat_10_n02951358_13456.png
subject-04,1,29,0.936969995498657,bear,bicycle,64-0-10,0029_eid_s04_64-0-10_bicycle_10_n02835271_1918.png
subject-04,1,30,0.894742965698242,airplane,airplane,1-0-10,0030_eid_s04_1-0-10_airplane_10_n02690373_8653.png
subject-04,1,31,0.986893892288208,dog,car,64-0-10,0031_eid_s04_64-0-10_car_10_n03100240_5527.png
subject-04,1,32,1.12029600143433,keyboard,clock,64-0-10,0032_eid_s04_64-0-10_clock_10_n02708093_1430.png
subject-04,1,33,0.878310918807983,bear,truck,32-0-10,0033_eid_s04_32-0-10_truck_10_n03417042_6373.png
subject-04,1,34,0.987933158874512,bird,knife,8-0-10,0034_eid_s04_8-0-10_knife_10_n03041632_86783.png
subject-04,1,35,0.891707897186279,bottle,knife,64-0-10,0035_eid_s04_64-0-10_knife_10_n03041632_55711.png
subject-04,1,36,1.33578014373779,bear,clock,8-0-10,0036_eid_s04_8-0-10_clock_10_n03196217_911.png
subject-04,1,37,NaN,na,chair,2-0-10,0037_eid_s04_2-0-10_chair_10_n02791124_17035.png
subject-04,1,38,0.843478202819824,boat,keyboard,32-0-10,0038_eid_s04_32-0-10_keyboard_10_n03085013_3264.png
subject-04,1,39,1.24897718429565,bird,bottle,64-0-10,0039_eid_s04_64-0-10_bottle_10_n04591713_5815.png
subject-04,1,40,0.811040878295898,bear,oven,16-0-10,0040_eid_s04_16-0-10_oven_10_n04111531_8988.png
subject-04,1,41,0.747083902359009,boat,bird,32-0-10,0041_eid_s04_32-0-10_bird_10_n01797886_14611.png
subject-04,1,42,0.838566064834595,bear,bear,16-0-10,0042_eid_s04_16-0-10_bear_10_n02132136_9055.png
subject-04,1,43,0.742312908172607,bird,bird,2-0-10,0043_eid_s04_2-0-10_bird_10_n01855672_1001.png
subject-04,1,44,0.802234888076782,boat,car,16-0-10,0044_eid_s04_16-0-10_car_10_n03100240_3386.png
subject-04,1,45,1.13592505455017,dog,car,32-0-10,0045_eid_s04_32-0-10_car_10_n03100240_4605.png
subject-04,1,46,0.861666917800903,boat,chair,16-0-10,0046_eid_s04_16-0-10_chair_10_n04099969_16270.png
subject-04,1,47,1.03166389465332,car,car,2-0-10,0047_eid_s04_2-0-10_car_10_n03100240_8794.png
subject-04,1,48,0.795289993286133,truck,truck,8-0-10,0048_eid_s04_8-0-10_truck_10_n04467665_21900.png
subject-04,1,49,0.637353897094727,bird,bird,1-0-10,0049_eid_s04_1-0-10_bird_10_n02027492_5222.png
subject-04,1,50,1.40891194343567,keyboard,knife,128-0-10,0050_eid_s04_128-0-10_knife_10_n03041632_35260.png
subject-04,1,51,1.21923995018005,bird,chair,128-0-10,0051_eid_s04_128-0-10_chair_10_n04099969_20604.png
subject-04,1,52,0.676837921142578,bear,bear,4-0-10,0052_eid_s04_4-0-10_bear_10_n02133161_11816.png
subject-04,1,53,0.856436014175415,keyboard,elephant,128-0-10,0053_eid_s04_128-0-10_elephant_10_n02504458_4395.png
subject-04,1,54,1.04215693473816,bottle,chair,8-0-10,0054_eid_s04_8-0-10_chair_10_n04099969_4816.png
subject-04,1,55,0.7360520362854,cat,cat,1-0-10,0055_eid_s04_1-0-10_cat_10_n02124075_12622.png
subject-04,1,56,1.25814700126648,boat,bicycle,32-0-10,0056_eid_s04_32-0-10_bicycle_10_n03792782_10437.png
subject-04,1,57,0.785938024520874,boat,boat,1-0-10,0057_eid_s04_1-0-10_boat_10_n02951358_9323.png
subject-04,1,58,0.775511980056763,truck,truck,1-0-10,0058_eid_s04_1-0-10_truck_10_n03417042_2204.png
subject-04,1,59,0.985234022140503,keyboard,bear,128-0-10,0059_eid_s04_128-0-10_bear_10_n02134418_278.png
subject-04,1,60,0.757292032241821,bear,bear,1-0-10,0060_eid_s04_1-0-10_bear_10_n02134084_8601.png
subject-04,1,61,1.23306107521057,bottle,oven,2-0-10,0061_eid_s04_2-0-10_oven_10_n04111531_1662.png
subject-04,1,62,1.12289714813232,dog,dog,16-0-10,0062_eid_s04_16-0-10_dog_10_n02107142_9379.png
subject-04,1,63,0.908694982528687,car,chair,16-0-10,0063_eid_s04_16-0-10_chair_10_n02791124_9162.png
subject-04,1,64,0.938524007797241,boat,airplane,64-0-10,0064_eid_s04_64-0-10_airplane_10_n02690373_3617.png
subject-04,1,65,0.740121126174927,chair,bicycle,128-0-10,0065_eid_s04_128-0-10_bicycle_10_n02835271_9944.png
subject-04,1,66,1.00605201721191,keyboard,dog,64-0-10,0066_eid_s04_64-0-10_dog_10_n02096051_3825.png
subject-04,1,67,1.39591598510742,keyboard,oven,64-0-10,0067_eid_s04_64-0-10_oven_10_n04111531_21855.png
subject-04,1,68,1.3855299949646,oven,oven,8-0-10,0068_eid_s04_8-0-10_oven_10_n04111531_16583.png
subject-04,1,69,0.823570013046265,boat,truck,16-0-10,0069_eid_s04_16-0-10_truck_10_n03417042_4157.png
subject-04,1,70,0.791351079940796,boat,boat,2-0-10,0070_eid_s04_2-0-10_boat_10_n03662601_2171.png
subject-04,1,71,1.09505105018616,bottle,clock,16-0-10,0071_eid_s04_16-0-10_clock_10_n04548280_1438.png
subject-04,1,72,0.772876977920532,airplane,airplane,8-0-10,0072_eid_s04_8-0-10_airplane_10_n02690373_7536.png
subject-04,1,73,0.980700969696045,keyboard,keyboard,2-0-10,0073_eid_s04_2-0-10_keyboard_10_n03085013_7536.png
subject-04,1,74,0.964564085006714,cat,chair,64-0-10,0074_eid_s04_64-0-10_chair_10_n04099969_38787.png
subject-04,1,75,0.956354856491089,keyboard,knife,128-0-10,0075_eid_s04_128-0-10_knife_10_n03041632_33584.png
subject-04,1,76,0.892413139343262,bear,chair,128-0-10,0076_eid_s04_128-0-10_chair_10_n03376595_8196.png
subject-04,1,77,1.1660270690918,keyboard,cat,64-0-10,0077_eid_s04_64-0-10_cat_10_n02123394_292.png
subject-04,1,78,0.903740882873535,airplane,airplane,2-0-10,0078_eid_s04_2-0-10_airplane_10_n02690373_1706.png
subject-04,1,79,0.747745990753174,bicycle,bicycle,1-0-10,0079_eid_s04_1-0-10_bicycle_10_n02835271_1530.png
subject-04,1,80,1.26753497123718,bicycle,knife,8-0-10,0080_eid_s04_8-0-10_knife_10_n03041632_105581.png
subject-04,1,81,0.898457050323486,cat,bottle,64-0-10,0081_eid_s04_64-0-10_bottle_10_n04591713_2732.png
subject-04,1,82,0.812441110610962,keyboard,truck,128-0-10,0082_eid_s04_128-0-10_truck_10_n03796401_4898.png
subject-04,1,83,0.814217090606689,bear,boat,64-0-10,0083_eid_s04_64-0-10_boat_10_n02951358_15252.png
subject-04,1,84,0.867970943450928,bird,bird,64-0-10,0084_eid_s04_64-0-10_bird_10_n01582220_1814.png
subject-04,1,85,1.07368493080139,bottle,bottle,8-0-10,0085_eid_s04_8-0-10_bottle_10_n03983396_4496.png
subject-04,1,86,0.791702032089233,boat,bird,32-0-10,0086_eid_s04_32-0-10_bird_10_n01532829_3.png
subject-04,1,87,0.993346929550171,bicycle,chair,2-0-10,0087_eid_s04_2-0-10_chair_10_n02791124_11523.png
subject-04,1,88,0.65528392791748,bicycle,bicycle,2-0-10,0088_eid_s04_2-0-10_bicycle_10_n02835271_6266.png
subject-04,1,89,1.09108090400696,keyboard,oven,4-0-10,0089_eid_s04_4-0-10_oven_10_n04111531_4332.png
subject-04,1,90,0.88716197013855,keyboard,keyboard,2-0-10,0090_eid_s04_2-0-10_keyboard_10_n03085013_22605.png
subject-04,1,91,0.858683824539185,cat,bear,128-0-10,0091_eid_s04_128-0-10_bear_10_n02134084_16227.png
subject-04,1,92,0.952242851257324,dog,bottle,16-0-10,0092_eid_s04_16-0-10_bottle_10_n04560804_5068.png
subject-04,1,93,1.21831202507019,dog,chair,16-0-10,0093_eid_s04_16-0-10_chair_10_n03376595_262.png
subject-04,1,94,0.763937950134277,boat,bicycle,32-0-10,0094_eid_s04_32-0-10_bicycle_10_n03792782_6159.png
subject-04,1,95,1.02587389945984,car,car,64-0-10,0095_eid_s04_64-0-10_car_10_n04285008_11893.png
subject-04,1,96,0.891759872436523,keyboard,keyboard,4-0-10,0096_eid_s04_4-0-10_keyboard_10_n04505470_4552.png
subject-04,1,97,0.833889007568359,car,car,2-0-10,0097_eid_s04_2-0-10_car_10_n02814533_20712.png
subject-04,1,98,0.675282001495361,airplane,boat,4-0-10,0098_eid_s04_4-0-10_boat_10_n04273569_16362.png
subject-04,1,99,0.751237154006958,bottle,bottle,1-0-10,0099_eid_s04_1-0-10_bottle_10_n03983396_12916.png
subject-04,1,100,0.909124135971069,bird,bird,2-0-10,0100_eid_s04_2-0-10_bird_10_n01820546_4609.png
subject-04,1,101,0.962795972824097,dog,cat,16-0-10,0101_eid_s04_16-0-10_cat_10_n02123597_13197.png
subject-04,1,102,0.78291392326355,bear,keyboard,16-0-10,0102_eid_s04_16-0-10_keyboard_10_n03085013_24538.png
subject-04,1,103,0.914347887039185,dog,dog,2-0-10,0103_eid_s04_2-0-10_dog_10_n02107908_5222.png
subject-04,1,104,0.760061979293823,car,car,16-0-10,0104_eid_s04_16-0-10_car_10_n04285008_7904.png
subject-04,1,105,0.720345020294189,bottle,bottle,1-0-10,0105_eid_s04_1-0-10_bottle_10_n04560804_433.png
subject-04,1,106,1.10423016548157,chair,knife,4-0-10,0106_eid_s04_4-0-10_knife_10_n03041632_29680.png
subject-04,1,107,0.725802898406982,keyboard,airplane,128-0-10,0107_eid_s04_128-0-10_airplane_10_n02690373_8524.png
subject-04,1,108,0.575495958328247,bear,car,32-0-10,0108_eid_s04_32-0-10_car_10_n04285008_5869.png
subject-04,1,109,0.611376047134399,bottle,bottle,4-0-10,0109_eid_s04_4-0-10_bottle_10_n04560804_15683.png
subject-04,1,110,0.685005187988281,bear,truck,32-0-10,0110_eid_s04_32-0-10_truck_10_n03417042_16000.png
subject-04,1,111,0.636954069137573,boat,boat,1-0-10,0111_eid_s04_1-0-10_boat_10_n04273569_13290.png
subject-04,1,112,0.792920112609863,bottle,chair,16-0-10,0112_eid_s04_16-0-10_chair_10_n04099969_33329.png
subject-04,1,113,1.07869100570679,dog,cat,1-0-10,0113_eid_s04_1-0-10_cat_10_n02123597_2009.png
subject-04,1,114,1.17044711112976,oven,oven,4-0-10,0114_eid_s04_4-0-10_oven_10_n04111531_4998.png
subject-04,1,115,1.01211309432983,dog,dog,8-0-10,0115_eid_s04_8-0-10_dog_10_n02101388_9815.png
subject-04,1,116,0.862228870391846,keyboard,clock,128-0-10,0116_eid_s04_128-0-10_clock_10_n04548280_5466.png
subject-04,1,117,1.20570111274719,cat,boat,16-0-10,0117_eid_s04_16-0-10_boat_10_n03662601_1191.png
subject-04,1,118,1.01550006866455,boat,dog,4-0-10,0118_eid_s04_4-0-10_dog_10_n02086646_6567.png
subject-04,1,119,0.6997230052948,bottle,bottle,8-0-10,0119_eid_s04_8-0-10_bottle_10_n04591713_4474.png
subject-04,1,120,0.847142934799194,cat,cat,4-0-10,0120_eid_s04_4-0-10_cat_10_n02125311_9074.png
subject-04,1,121,0.992922067642212,bottle,dog,4-0-10,0121_eid_s04_4-0-10_dog_10_n02093991_141.png
subject-04,1,122,0.736829996109009,bear,keyboard,16-0-10,0122_eid_s04_16-0-10_keyboard_10_n04505470_1719.png
subject-04,1,123,0.932924032211304,bear,car,32-0-10,0123_eid_s04_32-0-10_car_10_n02814533_6498.png
subject-04,1,124,0.846555948257446,oven,truck,16-0-10,0124_eid_s04_16-0-10_truck_10_n03796401_7421.png
subject-04,1,125,0.828366994857788,keyboard,elephant,128-0-10,0125_eid_s04_128-0-10_elephant_10_n02504013_6903.png
subject-04,1,126,1.28816890716553,bottle,boat,32-0-10,0126_eid_s04_32-0-10_boat_10_n04273569_3313.png
subject-04,1,127,1.02001214027405,elephant,bird,16-0-10,0127_eid_s04_16-0-10_bird_10_n01534433_31697.png
subject-04,1,128,0.775867938995361,cat,bear,64-0-10,0128_eid_s04_64-0-10_bear_10_n02134418_912.png
subject-04,1,129,0.679604053497314,keyboard,knife,128-0-10,0129_eid_s04_128-0-10_knife_10_n03041632_85488.png
subject-04,1,130,0.943228006362915,car,knife,128-0-10,0130_eid_s04_128-0-10_knife_10_n03041632_2438.png
subject-04,1,131,0.935148954391479,boat,truck,8-0-10,0131_eid_s04_8-0-10_truck_10_n04467665_45306.png
subject-04,1,132,0.712975025177002,boat,cat,128-0-10,0132_eid_s04_128-0-10_cat_10_n02125311_19340.png
subject-04,1,133,0.874825000762939,dog,dog,1-0-10,0133_eid_s04_1-0-10_dog_10_n02104365_179.png
subject-04,1,134,0.694448947906494,bear,elephant,16-0-10,0134_eid_s04_16-0-10_elephant_10_n02504458_5155.png
subject-04,1,135,0.906462907791138,truck,truck,2-0-10,0135_eid_s04_2-0-10_truck_10_n04467665_78325.png
subject-04,1,136,0.996286153793335,bird,bottle,16-0-10,0136_eid_s04_16-0-10_bottle_10_n03983396_11597.png
subject-04,1,137,0.630238056182861,clock,clock,1-0-10,0137_eid_s04_1-0-10_clock_10_n03196217_3063.png
subject-04,1,138,0.659830093383789,cat,bicycle,64-0-10,0138_eid_s04_64-0-10_bicycle_10_n02835271_7051.png
subject-04,1,139,0.832085132598877,boat,dog,128-0-10,0139_eid_s04_128-0-10_dog_10_n02106030_11782.png
subject-04,1,140,1.13179922103882,truck,truck,4-0-10,0140_eid_s04_4-0-10_truck_10_n04467665_68250.png
subject-04,1,141,0.849299907684326,oven,oven,16-0-10,0141_eid_s04_16-0-10_oven_10_n04111531_2650.png
subject-04,1,142,1.19933390617371,keyboard,bottle,2-0-10,0142_eid_s04_2-0-10_bottle_10_n04591713_6351.png
subject-04,1,143,0.720765113830566,bird,bird,1-0-10,0143_eid_s04_1-0-10_bird_10_n01614925_7662.png
subject-04,1,144,1.13478493690491,bottle,chair,1-0-10,0144_eid_s04_1-0-10_chair_10_n02791124_3601.png
subject-04,1,145,0.756414175033569,elephant,elephant,1-0-10,0145_eid_s04_1-0-10_elephant_10_n02504458_3851.png
subject-04,1,146,0.700455904006958,car,car,4-0-10,0146_eid_s04_4-0-10_car_10_n04285008_3445.png
subject-04,1,147,0.864006042480469,cat,truck,64-0-10,0147_eid_s04_64-0-10_truck_10_n03796401_25102.png
subject-04,1,148,0.652314901351929,boat,dog,128-0-10,0148_eid_s04_128-0-10_dog_10_n02093991_196.png
subject-04,1,149,0.643695116043091,bicycle,bicycle,1-0-10,0149_eid_s04_1-0-10_bicycle_10_n02835271_17357.png
subject-04,1,150,0.969558954238892,bear,airplane,32-0-10,0150_eid_s04_32-0-10_airplane_10_n02690373_2874.png
subject-04,1,151,0.771708011627197,elephant,elephant,2-0-10,0151_eid_s04_2-0-10_elephant_10_n02504013_1692.png
subject-04,1,152,0.8650062084198,bear,bicycle,32-0-10,0152_eid_s04_32-0-10_bicycle_10_n02835271_9482.png
subject-04,1,153,0.831322908401489,boat,boat,16-0-10,0153_eid_s04_16-0-10_boat_10_n04612504_1491.png
subject-04,1,154,0.728940010070801,car,car,2-0-10,0154_eid_s04_2-0-10_car_10_n02814533_211.png
subject-04,1,155,0.947048902511597,keyboard,truck,8-0-10,0155_eid_s04_8-0-10_truck_10_n03417042_27093.png
subject-04,1,156,0.946456909179688,keyboard,chair,8-0-10,0156_eid_s04_8-0-10_chair_10_n04099969_3404.png
subject-04,1,157,1.05223107337952,bear,dog,2-0-10,0157_eid_s04_2-0-10_dog_10_n02101006_1160.png
subject-04,1,158,0.776100873947144,truck,truck,4-0-10,0158_eid_s04_4-0-10_truck_10_n03417042_14574.png
subject-04,1,159,0.704024076461792,boat,boat,1-0-10,0159_eid_s04_1-0-10_boat_10_n04273569_29113.png
subject-04,1,160,0.991878986358643,keyboard,knife,16-0-10,0160_eid_s04_16-0-10_knife_10_n03041632_14766.png
subject-04,1,161,1.19128799438477,bird,bird,1-0-10,0161_eid_s04_1-0-10_bird_10_n01798484_4934.png
subject-04,1,162,1.39071798324585,oven,oven,8-0-10,0162_eid_s04_8-0-10_oven_10_n04111531_4944.png
subject-04,1,163,0.592379808425903,bear,bear,4-0-10,0163_eid_s04_4-0-10_bear_10_n02134084_7079.png
subject-04,1,164,0.69258189201355,cat,dog,64-0-10,0164_eid_s04_64-0-10_dog_10_n02097130_5859.png
subject-04,1,165,0.746132135391235,boat,bear,64-0-10,0165_eid_s04_64-0-10_bear_10_n02134084_7904.png
subject-04,1,166,0.735930919647217,bird,bird,2-0-10,0166_eid_s04_2-0-10_bird_10_n01592084_3147.png
subject-04,1,167,0.717639207839966,bear,bicycle,64-0-10,0167_eid_s04_64-0-10_bicycle_10_n03792782_973.png
subject-04,1,168,0.951797962188721,bear,bear,16-0-10,0168_eid_s04_16-0-10_bear_10_n02132136_1858.png
subject-04,1,169,0.769705057144165,car,car,8-0-10,0169_eid_s04_8-0-10_car_10_n03100240_7134.png
subject-04,1,170,0.997084140777588,keyboard,bear,64-0-10,0170_eid_s04_64-0-10_bear_10_n02132136_11027.png
subject-04,1,171,0.863219022750854,oven,knife,32-0-10,0171_eid_s04_32-0-10_knife_10_n03041632_24384.png
subject-04,1,172,0.992606163024902,dog,dog,2-0-10,0172_eid_s04_2-0-10_dog_10_n02089078_10601.png
subject-04,1,173,1.12088513374329,car,knife,32-0-10,0173_eid_s04_32-0-10_knife_10_n03041632_383.png
subject-04,1,174,0.8142249584198,bear,bear,32-0-10,0174_eid_s04_32-0-10_bear_10_n02134418_2633.png
subject-04,1,175,0.702482938766479,bird,bird,4-0-10,0175_eid_s04_4-0-10_bird_10_n01592084_7870.png
subject-04,1,176,1.08406805992126,knife,knife,2-0-10,0176_eid_s04_2-0-10_knife_10_n03041632_31301.png
subject-04,1,177,0.681895971298218,bear,bottle,64-0-10,0177_eid_s04_64-0-10_bottle_10_n02823428_1034.png
subject-04,1,178,0.907675981521606,keyboard,airplane,128-0-10,0178_eid_s04_128-0-10_airplane_10_n02690373_6929.png
subject-04,1,179,0.741297960281372,boat,airplane,64-0-10,0179_eid_s04_64-0-10_airplane_10_n02690373_8543.png
subject-04,1,180,0.779093980789185,keyboard,dog,128-0-10,0180_eid_s04_128-0-10_dog_10_n02101006_17876.png
subject-04,1,181,1.40294098854065,boat,oven,16-0-10,0181_eid_s04_16-0-10_oven_10_n04111531_2937.png
subject-04,1,182,0.846845865249634,dog,bicycle,8-0-10,0182_eid_s04_8-0-10_bicycle_10_n03792782_66771.png
subject-04,1,183,1.14265894889832,bottle,bird,64-0-10,0183_eid_s04_64-0-10_bird_10_n01824575_5820.png
subject-04,1,184,0.684725046157837,car,car,4-0-10,0184_eid_s04_4-0-10_car_10_n03100240_18711.png
subject-04,1,185,0.910336017608643,keyboard,keyboard,128-0-10,0185_eid_s04_128-0-10_keyboard_10_n03085013_23561.png
subject-04,1,186,0.805994987487793,bear,elephant,64-0-10,0186_eid_s04_64-0-10_elephant_10_n02504013_6423.png
subject-04,1,187,0.782335996627808,boat,elephant,32-0-10,0187_eid_s04_32-0-10_elephant_10_n02504458_6880.png
subject-04,1,188,0.841875076293945,bird,elephant,128-0-10,0188_eid_s04_128-0-10_elephant_10_n02504458_964.png
subject-04,1,189,1.5001060962677,airplane,truck,2-0-10,0189_eid_s04_2-0-10_truck_10_n04467665_3211.png
subject-04,1,190,0.587285995483398,cat,cat,2-0-10,0190_eid_s04_2-0-10_cat_10_n02123045_4009.png
subject-04,1,191,0.781107187271118,elephant,elephant,4-0-10,0191_eid_s04_4-0-10_elephant_10_n02504013_2033.png
subject-04,1,192,0.740975856781006,car,keyboard,16-0-10,0192_eid_s04_16-0-10_keyboard_10_n04505470_4974.png
subject-04,1,193,0.715065002441406,boat,car,64-0-10,0193_eid_s04_64-0-10_car_10_n02814533_48754.png
subject-04,1,194,1.1126401424408,dog,car,32-0-10,0194_eid_s04_32-0-10_car_10_n04285008_10824.png
subject-04,1,195,0.842295169830322,keyboard,car,128-0-10,0195_eid_s04_128-0-10_car_10_n04285008_14653.png
subject-04,1,196,1.13034391403198,cat,elephant,128-0-10,0196_eid_s04_128-0-10_elephant_10_n02504013_9809.png
subject-04,1,197,0.690144062042236,keyboard,bottle,128-0-10,0197_eid_s04_128-0-10_bottle_10_n04579145_1168.png
subject-04,1,198,1.00192594528198,cat,chair,16-0-10,0198_eid_s04_16-0-10_chair_10_n02791124_14.png
subject-04,1,199,0.631685018539429,airplane,airplane,2-0-10,0199_eid_s04_2-0-10_airplane_10_n02690373_4148.png
subject-04,1,200,0.943612098693848,keyboard,bird,2-0-10,0200_eid_s04_2-0-10_bird_10_n01537544_25558.png
subject-04,1,201,0.839477062225342,oven,oven,1-0-10,0201_eid_s04_1-0-10_oven_10_n04111531_10749.png
subject-04,1,202,0.956990003585815,cat,bicycle,128-0-10,0202_eid_s04_128-0-10_bicycle_10_n02835271_7476.png
subject-04,1,203,0.828841209411621,keyboard,boat,128-0-10,0203_eid_s04_128-0-10_boat_10_n04273569_4605.png
subject-04,1,204,0.670866012573242,bear,knife,32-0-10,0204_eid_s04_32-0-10_knife_10_n03041632_105081.png
subject-04,1,205,0.708694934844971,boat,dog,128-0-10,0205_eid_s04_128-0-10_dog_10_n02091831_538.png
subject-04,1,206,NaN,na,elephant,16-0-10,0206_eid_s04_16-0-10_elephant_10_n02504013_3172.png
subject-04,1,207,0.788130044937134,bear,cat,64-0-10,0207_eid_s04_64-0-10_cat_10_n02124075_12464.png
subject-04,1,208,0.891979217529297,keyboard,car,64-0-10,0208_eid_s04_64-0-10_car_10_n02814533_4803.png
subject-04,1,209,1.48590993881226,elephant,bear,32-0-10,0209_eid_s04_32-0-10_bear_10_n02132136_1738.png
subject-04,1,210,0.693624973297119,elephant,bear,8-0-10,0210_eid_s04_8-0-10_bear_10_n02134418_6133.png
subject-04,1,211,0.629344940185547,bear,keyboard,128-0-10,0211_eid_s04_128-0-10_keyboard_10_n04505470_6.png
subject-04,1,212,0.941251993179321,truck,truck,1-0-10,0212_eid_s04_1-0-10_truck_10_n03417042_22395.png
subject-04,1,213,0.727138042449951,cat,keyboard,8-0-10,0213_eid_s04_8-0-10_keyboard_10_n03085013_22187.png
subject-04,1,214,0.732713937759399,cat,cat,2-0-10,0214_eid_s04_2-0-10_cat_10_n02123159_2684.png
subject-04,1,215,1.07686614990234,bird,car,16-0-10,0215_eid_s04_16-0-10_car_10_n04285008_8959.png
subject-04,1,216,1.46457290649414,cat,truck,16-0-10,0216_eid_s04_16-0-10_truck_10_n03417042_17037.png
subject-04,1,217,0.80624794960022,dog,dog,1-0-10,0217_eid_s04_1-0-10_dog_10_n02108422_5595.png
subject-04,1,218,0.970046997070312,clock,clock,8-0-10,0218_eid_s04_8-0-10_clock_10_n04548280_6463.png
subject-04,1,219,0.870032072067261,bear,oven,64-0-10,0219_eid_s04_64-0-10_oven_10_n04111531_9210.png
subject-04,1,220,0.665900945663452,cat,keyboard,16-0-10,0220_eid_s04_16-0-10_keyboard_10_n04505470_1833.png
subject-04,1,221,0.641419172286987,clock,clock,4-0-10,0221_eid_s04_4-0-10_clock_10_n03196217_5688.png
subject-04,1,222,0.765527009963989,dog,dog,4-0-10,0222_eid_s04_4-0-10_dog_10_n02113624_1212.png
subject-04,1,223,0.811331033706665,bird,bird,2-0-10,0223_eid_s04_2-0-10_bird_10_n01795545_15255.png
subject-04,1,224,1.15303015708923,bear,dog,16-0-10,0224_eid_s04_16-0-10_dog_10_n02093428_17769.png
subject-04,1,225,0.726705074310303,bicycle,bicycle,1-0-10,0225_eid_s04_1-0-10_bicycle_10_n03792782_14424.png
subject-04,1,226,0.726750135421753,cat,boat,64-0-10,0226_eid_s04_64-0-10_boat_10_n03662601_18641.png
subject-04,1,227,0.888479948043823,boat,airplane,32-0-10,0227_eid_s04_32-0-10_airplane_10_n02690373_18845.png
subject-04,1,228,0.778173923492432,bear,elephant,16-0-10,0228_eid_s04_16-0-10_elephant_10_n02504458_1327.png
subject-04,1,229,0.950244903564453,bear,truck,64-0-10,0229_eid_s04_64-0-10_truck_10_n04467665_30588.png
subject-04,1,230,0.991866111755371,bottle,boat,16-0-10,0230_eid_s04_16-0-10_boat_10_n03662601_17273.png
subject-04,1,231,1.32766103744507,oven,bicycle,8-0-10,0231_eid_s04_8-0-10_bicycle_10_n03792782_34550.png
subject-04,1,232,0.681699991226196,boat,bottle,128-0-10,0232_eid_s04_128-0-10_bottle_10_n04560804_16276.png
subject-04,1,233,0.821418046951294,keyboard,truck,64-0-10,0233_eid_s04_64-0-10_truck_10_n04467665_23731.png
subject-04,1,234,0.92115592956543,dog,dog,8-0-10,0234_eid_s04_8-0-10_dog_10_n02098105_865.png
subject-04,1,235,1.19718408584595,airplane,airplane,16-0-10,0235_eid_s04_16-0-10_airplane_10_n02690373_19118.png
subject-04,1,236,0.966720104217529,car,truck,32-0-10,0236_eid_s04_32-0-10_truck_10_n03417042_3862.png
subject-04,1,237,1.13644886016846,dog,bicycle,32-0-10,0237_eid_s04_32-0-10_bicycle_10_n03792782_693.png
subject-04,1,238,1.14262104034424,keyboard,knife,64-0-10,0238_eid_s04_64-0-10_knife_10_n03041632_3171.png
subject-04,1,239,0.774242162704468,boat,boat,16-0-10,0239_eid_s04_16-0-10_boat_10_n03344393_2381.png
subject-04,1,240,0.719922065734863,airplane,airplane,2-0-10,0240_eid_s04_2-0-10_airplane_10_n02690373_2316.png
subject-04,1,241,0.82970404624939,elephant,elephant,2-0-10,0241_eid_s04_2-0-10_elephant_10_n02504458_3063.png
subject-04,1,242,0.783772945404053,truck,truck,1-0-10,0242_eid_s04_1-0-10_truck_10_n04467665_9589.png
subject-04,1,243,0.827858924865723,airplane,airplane,1-0-10,0243_eid_s04_1-0-10_airplane_10_n02690373_4893.png
subject-04,1,244,1.4994490146637,knife,keyboard,8-0-10,0244_eid_s04_8-0-10_keyboard_10_n03085013_24166.png
subject-04,1,245,0.873262882232666,elephant,bicycle,32-0-10,0245_eid_s04_32-0-10_bicycle_10_n02835271_3535.png
subject-04,1,246,0.744977951049805,cat,bicycle,64-0-10,0246_eid_s04_64-0-10_bicycle_10_n02835271_7900.png
subject-04,1,247,0.962816953659058,dog,cat,64-0-10,0247_eid_s04_64-0-10_cat_10_n02125311_42593.png
subject-04,1,248,0.790534973144531,bear,bear,128-0-10,0248_eid_s04_128-0-10_bear_10_n02132136_15806.png
subject-04,1,249,1.25828003883362,dog,elephant,32-0-10,0249_eid_s04_32-0-10_elephant_10_n02504458_379.png
subject-04,1,250,0.826442956924438,keyboard,dog,128-0-10,0250_eid_s04_128-0-10_dog_10_n02101556_1042.png
subject-04,1,251,1.21632099151611,oven,dog,16-0-10,0251_eid_s04_16-0-10_dog_10_n02097130_2752.png
subject-04,1,252,0.652071952819824,car,car,4-0-10,0252_eid_s04_4-0-10_car_10_n02814533_27327.png
subject-04,1,253,1.28981590270996,knife,bottle,4-0-10,0253_eid_s04_4-0-10_bottle_10_n04560804_15122.png
subject-04,1,254,0.921353101730347,oven,oven,8-0-10,0254_eid_s04_8-0-10_oven_10_n04111531_114.png
subject-04,1,255,0.797461986541748,cat,bear,64-0-10,0255_eid_s04_64-0-10_bear_10_n02134084_5794.png
subject-04,1,256,0.859241008758545,knife,knife,2-0-10,0256_eid_s04_2-0-10_knife_10_n03041632_25512.png
subject-04,1,257,0.771071195602417,car,car,4-0-10,0257_eid_s04_4-0-10_car_10_n02814533_245.png
subject-04,1,258,1.2367959022522,dog,bicycle,8-0-10,0258_eid_s04_8-0-10_bicycle_10_n02835271_3642.png
subject-04,1,259,0.688554048538208,bear,bear,32-0-10,0259_eid_s04_32-0-10_bear_10_n02133161_15561.png
subject-04,1,260,1.05443692207336,oven,elephant,64-0-10,0260_eid_s04_64-0-10_elephant_10_n02504013_6703.png
subject-04,1,261,0.796044111251831,boat,boat,128-0-10,0261_eid_s04_128-0-10_boat_10_n02951358_33277.png
subject-04,1,262,1.45227789878845,airplane,airplane,16-0-10,0262_eid_s04_16-0-10_airplane_10_n02690373_4486.png
subject-04,1,263,0.807681798934937,elephant,elephant,4-0-10,0263_eid_s04_4-0-10_elephant_10_n02504458_6339.png
subject-04,1,264,0.747452020645142,keyboard,bear,128-0-10,0264_eid_s04_128-0-10_bear_10_n02133161_1624.png
subject-04,1,265,0.949375867843628,bottle,clock,16-0-10,0265_eid_s04_16-0-10_clock_10_n02708093_3173.png
subject-04,1,266,0.93124794960022,elephant,elephant,8-0-10,0266_eid_s04_8-0-10_elephant_10_n02504013_3181.png
subject-04,1,267,0.727237939834595,keyboard,keyboard,1-0-10,0267_eid_s04_1-0-10_keyboard_10_n04505470_3314.png
subject-04,1,268,1.11714315414429,oven,knife,16-0-10,0268_eid_s04_16-0-10_knife_10_n03041632_992.png
subject-04,1,269,0.700670957565308,boat,elephant,128-0-10,0269_eid_s04_128-0-10_elephant_10_n02504458_2190.png
subject-04,1,270,1.06644415855408,knife,knife,1-0-10,0270_eid_s04_1-0-10_knife_10_n03041632_19275.png
subject-04,1,271,0.816291809082031,cat,elephant,8-0-10,0271_eid_s04_8-0-10_elephant_10_n02504458_10264.png
subject-04,1,272,0.856084823608398,bear,elephant,32-0-10,0272_eid_s04_32-0-10_elephant_10_n02504013_782.png
subject-04,1,273,0.754003047943115,keyboard,clock,128-0-10,0273_eid_s04_128-0-10_clock_10_n02708093_1862.png
subject-04,1,274,0.907999992370605,bear,elephant,32-0-10,0274_eid_s04_32-0-10_elephant_10_n02504458_3381.png
subject-04,1,275,0.907515048980713,boat,airplane,32-0-10,0275_eid_s04_32-0-10_airplane_10_n02690373_4150.png
subject-04,1,276,0.781279802322388,keyboard,airplane,64-0-10,0276_eid_s04_64-0-10_airplane_10_n02690373_3313.png
subject-04,1,277,0.921097040176392,car,car,8-0-10,0277_eid_s04_8-0-10_car_10_n04285008_13958.png
subject-04,1,278,0.787060022354126,keyboard,keyboard,4-0-10,0278_eid_s04_4-0-10_keyboard_10_n04505470_179.png
subject-04,1,279,0.760916948318481,bear,chair,32-0-10,0279_eid_s04_32-0-10_chair_10_n04099969_24666.png
subject-04,1,280,1.33657884597778,boat,bird,16-0-10,0280_eid_s04_16-0-10_bird_10_n01616318_4246.png
subject-04,1,281,0.742549180984497,dog,bear,8-0-10,0281_eid_s04_8-0-10_bear_10_n02134084_3960.png
subject-04,1,282,0.786195039749146,keyboard,boat,128-0-10,0282_eid_s04_128-0-10_boat_10_n03344393_2412.png
subject-04,1,283,0.958217144012451,keyboard,bicycle,128-0-10,0283_eid_s04_128-0-10_bicycle_10_n03792782_1475.png
subject-04,1,284,0.620091915130615,car,car,4-0-10,0284_eid_s04_4-0-10_car_10_n02814533_41953.png
subject-04,1,285,0.963865041732788,elephant,bear,1-0-10,0285_eid_s04_1-0-10_bear_10_n02134418_4177.png
subject-04,1,286,0.843770027160645,clock,clock,8-0-10,0286_eid_s04_8-0-10_clock_10_n04548280_7826.png
subject-04,1,287,0.857208013534546,boat,boat,32-0-10,0287_eid_s04_32-0-10_boat_10_n03662601_4558.png
subject-04,1,288,1.10500884056091,keyboard,oven,8-0-10,0288_eid_s04_8-0-10_oven_10_n04111531_13296.png
subject-04,1,289,0.705229043960571,bicycle,bicycle,2-0-10,0289_eid_s04_2-0-10_bicycle_10_n03792782_3388.png
subject-04,1,290,1.2526171207428,dog,bicycle,8-0-10,0290_eid_s04_8-0-10_bicycle_10_n02835271_18846.png
subject-04,1,291,0.820559978485107,bear,bird,16-0-10,0291_eid_s04_16-0-10_bird_10_n01795545_13849.png
subject-04,1,292,0.740422964096069,bear,bear,4-0-10,0292_eid_s04_4-0-10_bear_10_n02133161_10700.png
subject-04,1,293,0.926338911056519,keyboard,truck,128-0-10,0293_eid_s04_128-0-10_truck_10_n03796401_2988.png
subject-04,1,294,0.667950868606567,cat,cat,4-0-10,0294_eid_s04_4-0-10_cat_10_n02123159_1113.png
subject-04,1,295,0.687847852706909,knife,knife,4-0-10,0295_eid_s04_4-0-10_knife_10_n03041632_1607.png
subject-04,1,296,0.661633014678955,boat,dog,64-0-10,0296_eid_s04_64-0-10_dog_10_n02090721_6770.png
subject-04,1,297,0.659303903579712,cat,cat,2-0-10,0297_eid_s04_2-0-10_cat_10_n02124075_11153.png
subject-04,1,298,0.643523931503296,airplane,airplane,1-0-10,0298_eid_s04_1-0-10_airplane_10_n02690373_3119.png
subject-04,1,299,1.44909715652466,oven,bicycle,8-0-10,0299_eid_s04_8-0-10_bicycle_10_n02835271_976.png
subject-04,1,300,0.832937955856323,cat,bottle,16-0-10,0300_eid_s04_16-0-10_bottle_10_n04560804_11732.png
subject-04,1,301,0.900722980499268,dog,dog,1-0-10,0301_eid_s04_1-0-10_dog_10_n02109047_26316.png
subject-04,1,302,1.018306016922,bicycle,bicycle,2-0-10,0302_eid_s04_2-0-10_bicycle_10_n02835271_1932.png
subject-04,1,303,0.814172983169556,keyboard,elephant,128-0-10,0303_eid_s04_128-0-10_elephant_10_n02504458_8939.png
subject-04,1,304,0.631991863250732,cat,cat,2-0-10,0304_eid_s04_2-0-10_cat_10_n02123394_830.png
subject-04,1,305,0.927922964096069,keyboard,dog,64-0-10,0305_eid_s04_64-0-10_dog_10_n02096437_4563.png
subject-04,1,306,0.933773994445801,oven,keyboard,32-0-10,0306_eid_s04_32-0-10_keyboard_10_n04505470_4780.png
subject-04,1,307,0.643676042556763,boat,clock,32-0-10,0307_eid_s04_32-0-10_clock_10_n04548280_16295.png
subject-04,1,308,0.797307968139648,bird,dog,32-0-10,0308_eid_s04_32-0-10_dog_10_n02105855_995.png
subject-04,1,309,0.897193908691406,boat,bird,4-0-10,0309_eid_s04_4-0-10_bird_10_n02028035_32557.png
subject-04,1,310,0.738993167877197,keyboard,car,128-0-10,0310_eid_s04_128-0-10_car_10_n04285008_13702.png
subject-04,1,311,0.814886093139648,bear,oven,8-0-10,0311_eid_s04_8-0-10_oven_10_n04111531_1150.png
subject-04,1,312,1.33858299255371,elephant,bicycle,64-0-10,0312_eid_s04_64-0-10_bicycle_10_n03792782_59.png
subject-04,1,313,1.09242081642151,keyboard,clock,128-0-10,0313_eid_s04_128-0-10_clock_10_n04548280_5278.png
subject-04,1,314,0.662154912948608,cat,cat,1-0-10,0314_eid_s04_1-0-10_cat_10_n02123045_13545.png
subject-04,1,315,0.67989706993103,boat,bird,128-0-10,0315_eid_s04_128-0-10_bird_10_n02009229_5290.png
subject-04,1,316,0.873797178268433,bear,bicycle,64-0-10,0316_eid_s04_64-0-10_bicycle_10_n03792782_41097.png
subject-04,1,317,0.769685029983521,bear,car,16-0-10,0317_eid_s04_16-0-10_car_10_n02814533_28371.png
subject-04,1,318,0.889464855194092,dog,cat,32-0-10,0318_eid_s04_32-0-10_cat_10_n02123394_2814.png
subject-04,1,319,1.35741019248962,bottle,airplane,16-0-10,0319_eid_s04_16-0-10_airplane_10_n02690373_1426.png
subject-04,1,320,0.809202194213867,bird,bird,4-0-10,0320_eid_s04_4-0-10_bird_10_n01592084_9109.png
subject-04,1,321,0.899672985076904,cat,bird,64-0-10,0321_eid_s04_64-0-10_bird_10_n02025239_6209.png
subject-04,1,322,1.01359009742737,chair,chair,8-0-10,0322_eid_s04_8-0-10_chair_10_n04099969_6825.png
subject-04,1,323,0.711539030075073,chair,chair,4-0-10,0323_eid_s04_4-0-10_chair_10_n04429376_9517.png
subject-04,1,324,0.601078033447266,cat,cat,2-0-10,0324_eid_s04_2-0-10_cat_10_n02123394_8164.png
subject-04,1,325,0.752739906311035,keyboard,boat,128-0-10,0325_eid_s04_128-0-10_boat_10_n03344393_1573.png
subject-04,1,326,0.664736032485962,car,car,1-0-10,0326_eid_s04_1-0-10_car_10_n02814533_149.png
subject-04,1,327,0.874557018280029,keyboard,bear,16-0-10,0327_eid_s04_16-0-10_bear_10_n02132136_2900.png
subject-04,1,328,0.794266939163208,knife,knife,1-0-10,0328_eid_s04_1-0-10_knife_10_n03041632_38996.png
subject-04,1,329,0.736034870147705,clock,clock,1-0-10,0329_eid_s04_1-0-10_clock_10_n02708093_3734.png
subject-04,1,330,0.916002988815308,oven,truck,16-0-10,0330_eid_s04_16-0-10_truck_10_n03417042_5875.png
subject-04,1,331,1.02384281158447,chair,dog,1-0-10,0331_eid_s04_1-0-10_dog_10_n02093991_4081.png
subject-04,1,332,0.779628038406372,keyboard,chair,64-0-10,0332_eid_s04_64-0-10_chair_10_n03376595_3015.png
subject-04,1,333,0.857409954071045,keyboard,clock,128-0-10,0333_eid_s04_128-0-10_clock_10_n04548280_4872.png
subject-04,1,334,0.817373037338257,elephant,elephant,2-0-10,0334_eid_s04_2-0-10_elephant_10_n02504458_1628.png
subject-04,1,335,0.783332824707031,bear,chair,64-0-10,0335_eid_s04_64-0-10_chair_10_n02791124_7142.png
subject-04,1,336,0.780769109725952,clock,clock,1-0-10,0336_eid_s04_1-0-10_clock_10_n04548280_4989.png
subject-04,1,337,0.756685018539429,cat,cat,64-0-10,0337_eid_s04_64-0-10_cat_10_n02123394_5071.png
subject-04,1,338,0.888514041900635,bottle,chair,32-0-10,0338_eid_s04_32-0-10_chair_10_n02791124_4595.png
subject-04,1,339,0.862268924713135,elephant,elephant,4-0-10,0339_eid_s04_4-0-10_elephant_10_n02504458_6830.png
subject-04,1,340,0.75822901725769,bear,bear,1-0-10,0340_eid_s04_1-0-10_bear_10_n02133161_4513.png
subject-04,1,341,0.959768056869507,keyboard,bottle,64-0-10,0341_eid_s04_64-0-10_bottle_10_n04591713_1310.png
subject-04,1,342,0.75583291053772,cat,oven,4-0-10,0342_eid_s04_4-0-10_oven_10_n04111531_5279.png
subject-04,1,343,0.60155200958252,boat,clock,128-0-10,0343_eid_s04_128-0-10_clock_10_n04548280_6811.png
subject-04,1,344,0.96920919418335,keyboard,clock,128-0-10,0344_eid_s04_128-0-10_clock_10_n03196217_2919.png
subject-04,1,345,0.81920599937439,boat,elephant,8-0-10,0345_eid_s04_8-0-10_elephant_10_n02504458_3234.png
subject-04,1,346,0.972980976104736,bear,cat,16-0-10,0346_eid_s04_16-0-10_cat_10_n02123597_7069.png
subject-04,1,347,0.852658987045288,airplane,airplane,4-0-10,0347_eid_s04_4-0-10_airplane_10_n02690373_4061.png
subject-04,1,348,0.756676197052002,cat,knife,32-0-10,0348_eid_s04_32-0-10_knife_10_n03041632_24883.png
subject-04,1,349,1.06032013893127,keyboard,truck,128-0-10,0349_eid_s04_128-0-10_truck_10_n03417042_6298.png
subject-04,1,350,0.95027494430542,oven,truck,64-0-10,0350_eid_s04_64-0-10_truck_10_n03417042_26814.png
subject-04,1,351,0.972145080566406,car,oven,4-0-10,0351_eid_s04_4-0-10_oven_10_n04111531_1128.png
subject-04,1,352,0.78971004486084,truck,truck,2-0-10,0352_eid_s04_2-0-10_truck_10_n03417042_1716.png
subject-04,1,353,0.811754941940308,bicycle,bicycle,1-0-10,0353_eid_s04_1-0-10_bicycle_10_n02835271_17184.png
subject-04,1,354,0.69140100479126,bear,elephant,32-0-10,0354_eid_s04_32-0-10_elephant_10_n02504458_6302.png
subject-04,1,355,0.981413125991821,airplane,airplane,8-0-10,0355_eid_s04_8-0-10_airplane_10_n02690373_1161.png
subject-04,1,356,0.75911283493042,elephant,elephant,1-0-10,0356_eid_s04_1-0-10_elephant_10_n02504013_6287.png
subject-04,1,357,0.772852182388306,bottle,truck,16-0-10,0357_eid_s04_16-0-10_truck_10_n03417042_1875.png
subject-04,1,358,0.760797023773193,car,bottle,32-0-10,0358_eid_s04_32-0-10_bottle_10_n04591713_1244.png
subject-04,1,359,0.706496000289917,cat,airplane,128-0-10,0359_eid_s04_128-0-10_airplane_10_n02690373_7142.png
subject-04,1,360,0.892262935638428,oven,oven,2-0-10,0360_eid_s04_2-0-10_oven_10_n04111531_21382.png
subject-04,1,361,0.704215049743652,bear,elephant,64-0-10,0361_eid_s04_64-0-10_elephant_10_n02504458_6729.png
subject-04,1,362,1.19997620582581,airplane,dog,16-0-10,0362_eid_s04_16-0-10_dog_10_n02090379_7924.png
subject-04,1,363,1.03968405723572,dog,cat,32-0-10,0363_eid_s04_32-0-10_cat_10_n02123597_6721.png
subject-04,1,364,1.13956999778748,bear,elephant,2-0-10,0364_eid_s04_2-0-10_elephant_10_n02504013_10152.png
subject-04,1,365,0.967331886291504,boat,car,32-0-10,0365_eid_s04_32-0-10_car_10_n03100240_16210.png
subject-04,1,366,0.885055065155029,bear,dog,8-0-10,0366_eid_s04_8-0-10_dog_10_n02113712_9172.png
subject-04,1,367,0.910850048065186,bottle,keyboard,16-0-10,0367_eid_s04_16-0-10_keyboard_10_n03085013_25675.png
subject-04,1,368,0.765010833740234,airplane,airplane,4-0-10,0368_eid_s04_4-0-10_airplane_10_n02690373_2324.png
subject-04,1,369,0.802772045135498,bear,knife,64-0-10,0369_eid_s04_64-0-10_knife_10_n03041632_20504.png
subject-04,1,370,0.864670038223267,cat,elephant,32-0-10,0370_eid_s04_32-0-10_elephant_10_n02504458_62.png
subject-04,1,371,0.940207004547119,bear,car,16-0-10,0371_eid_s04_16-0-10_car_10_n03100240_7257.png
subject-04,1,372,1.18191695213318,oven,knife,16-0-10,0372_eid_s04_16-0-10_knife_10_n03041632_18766.png
subject-04,1,373,0.793990135192871,clock,clock,4-0-10,0373_eid_s04_4-0-10_clock_10_n03196217_820.png
subject-04,1,374,0.715811014175415,airplane,airplane,2-0-10,0374_eid_s04_2-0-10_airplane_10_n02690373_6002.png
subject-04,1,375,0.667494058609009,bear,clock,32-0-10,0375_eid_s04_32-0-10_clock_10_n04548280_1119.png
subject-04,1,376,1.37731003761292,knife,keyboard,16-0-10,0376_eid_s04_16-0-10_keyboard_10_n03085013_24618.png
subject-04,1,377,0.935075998306274,keyboard,truck,128-0-10,0377_eid_s04_128-0-10_truck_10_n04467665_19747.png
subject-04,1,378,NaN,na,clock,8-0-10,0378_eid_s04_8-0-10_clock_10_n02708093_3171.png
subject-04,1,379,0.733031988143921,bicycle,bicycle,1-0-10,0379_eid_s04_1-0-10_bicycle_10_n02835271_2570.png
subject-04,1,380,1.04479312896729,bear,bicycle,64-0-10,0380_eid_s04_64-0-10_bicycle_10_n03792782_14047.png
subject-04,1,381,0.704780101776123,cat,dog,32-0-10,0381_eid_s04_32-0-10_dog_10_n02097474_8052.png
subject-04,1,382,1.03258895874023,boat,boat,2-0-10,0382_eid_s04_2-0-10_boat_10_n02951358_7137.png
subject-04,1,383,0.78821587562561,keyboard,keyboard,1-0-10,0383_eid_s04_1-0-10_keyboard_10_n03085013_8677.png
subject-04,1,384,0.645787954330444,bear,bicycle,64-0-10,0384_eid_s04_64-0-10_bicycle_10_n03792782_9412.png
subject-04,1,385,0.801712989807129,boat,keyboard,64-0-10,0385_eid_s04_64-0-10_keyboard_10_n03085013_22929.png
subject-04,1,386,0.851339817047119,cat,oven,128-0-10,0386_eid_s04_128-0-10_oven_10_n04111531_4795.png
subject-04,1,387,0.997276067733765,dog,bottle,32-0-10,0387_eid_s04_32-0-10_bottle_10_n04591713_4865.png
subject-04,1,388,0.917179107666016,elephant,elephant,1-0-10,0388_eid_s04_1-0-10_elephant_10_n02504013_5894.png
subject-04,1,389,0.99478006362915,keyboard,keyboard,128-0-10,0389_eid_s04_128-0-10_keyboard_10_n04505470_4902.png
subject-04,1,390,0.990606069564819,chair,oven,1-0-10,0390_eid_s04_1-0-10_oven_10_n04111531_1612.png
subject-04,1,391,0.938483953475952,bottle,clock,16-0-10,0391_eid_s04_16-0-10_clock_10_n04548280_7050.png
subject-04,1,392,0.704434871673584,cat,bird,128-0-10,0392_eid_s04_128-0-10_bird_10_n02051845_2316.png
subject-04,1,393,1.0462589263916,keyboard,bottle,4-0-10,0393_eid_s04_4-0-10_bottle_10_n03937543_4912.png
subject-04,1,394,0.925861120223999,keyboard,clock,8-0-10,0394_eid_s04_8-0-10_clock_10_n03196217_5433.png
subject-04,1,395,0.729717016220093,bird,bird,2-0-10,0395_eid_s04_2-0-10_bird_10_n02025239_15032.png
subject-04,1,396,1.13556504249573,cat,bear,8-0-10,0396_eid_s04_8-0-10_bear_10_n02132136_20770.png
subject-04,1,397,0.691367149353027,keyboard,keyboard,1-0-10,0397_eid_s04_1-0-10_keyboard_10_n03085013_24284.png
subject-04,1,398,0.98508095741272,truck,boat,4-0-10,0398_eid_s04_4-0-10_boat_10_n03344393_3773.png
subject-04,1,399,0.961230039596558,bear,bicycle,16-0-10,0399_eid_s04_16-0-10_bicycle_10_n03792782_2905.png
subject-04,1,400,0.974674940109253,keyboard,knife,4-0-10,0400_eid_s04_4-0-10_knife_10_n03041632_14293.png
subject-04,1,401,0.668986797332764,cat,chair,8-0-10,0401_eid_s04_8-0-10_chair_10_n04099969_7191.png
subject-04,1,402,0.566684007644653,cat,cat,1-0-10,0402_eid_s04_1-0-10_cat_10_n02124075_13436.png
subject-04,1,403,0.754696130752563,chair,chair,2-0-10,0403_eid_s04_2-0-10_chair_10_n03376595_17811.png
subject-04,1,404,0.876362085342407,boat,cat,32-0-10,0404_eid_s04_32-0-10_cat_10_n02123597_5768.png
subject-04,1,405,0.624222040176392,boat,bird,128-0-10,0405_eid_s04_128-0-10_bird_10_n02025239_1723.png
subject-04,1,406,0.699824810028076,truck,truck,2-0-10,0406_eid_s04_2-0-10_truck_10_n03796401_26820.png
subject-04,1,407,0.783890962600708,cat,cat,128-0-10,0407_eid_s04_128-0-10_cat_10_n02123394_6014.png
subject-04,1,408,0.989630937576294,knife,knife,8-0-10,0408_eid_s04_8-0-10_knife_10_n03041632_50423.png
subject-04,1,409,0.689352035522461,bear,dog,32-0-10,0409_eid_s04_32-0-10_dog_10_n02096051_2151.png
subject-04,1,410,0.571545839309692,cat,bear,128-0-10,0410_eid_s04_128-0-10_bear_10_n02132136_4219.png
subject-04,1,411,1.05116391181946,bottle,cat,16-0-10,0411_eid_s04_16-0-10_cat_10_n02124075_6716.png
subject-04,1,412,0.796693086624146,cat,truck,32-0-10,0412_eid_s04_32-0-10_truck_10_n03417042_2812.png
subject-04,1,413,0.568645000457764,boat,bird,32-0-10,0413_eid_s04_32-0-10_bird_10_n01582220_10508.png
subject-04,1,414,0.89642596244812,bird,truck,32-0-10,0414_eid_s04_32-0-10_truck_10_n03417042_6033.png
subject-04,1,415,1.26835608482361,cat,dog,8-0-10,0415_eid_s04_8-0-10_dog_10_n02086240_3031.png
subject-04,1,416,0.728203773498535,airplane,airplane,1-0-10,0416_eid_s04_1-0-10_airplane_10_n02690373_3728.png
subject-04,1,417,0.937947034835815,keyboard,bird,64-0-10,0417_eid_s04_64-0-10_bird_10_n02013706_5454.png
subject-04,1,418,0.735712051391602,dog,dog,4-0-10,0418_eid_s04_4-0-10_dog_10_n02099601_9973.png
subject-04,1,419,0.701457977294922,keyboard,keyboard,4-0-10,0419_eid_s04_4-0-10_keyboard_10_n04505470_751.png
subject-04,1,420,0.763449907302856,keyboard,elephant,64-0-10,0420_eid_s04_64-0-10_elephant_10_n02504458_5941.png
subject-04,1,421,0.667114973068237,bear,elephant,32-0-10,0421_eid_s04_32-0-10_elephant_10_n02504013_7732.png
subject-04,1,422,0.643063068389893,boat,boat,1-0-10,0422_eid_s04_1-0-10_boat_10_n04273569_6158.png
subject-04,1,423,0.968786001205444,car,car,16-0-10,0423_eid_s04_16-0-10_car_10_n03100240_16803.png
subject-04,1,424,0.996429920196533,oven,bottle,64-0-10,0424_eid_s04_64-0-10_bottle_10_n03983396_14002.png
subject-04,1,425,0.690509080886841,boat,bird,8-0-10,0425_eid_s04_8-0-10_bird_10_n02013706_406.png
subject-04,1,426,0.728121995925903,bear,bicycle,16-0-10,0426_eid_s04_16-0-10_bicycle_10_n02835271_3989.png
subject-04,1,427,1.08584690093994,oven,chair,64-0-10,0427_eid_s04_64-0-10_chair_10_n03376595_1770.png
subject-04,1,428,0.928112030029297,cat,oven,8-0-10,0428_eid_s04_8-0-10_oven_10_n04111531_12952.png
subject-04,1,429,0.715968132019043,bear,bear,32-0-10,0429_eid_s04_32-0-10_bear_10_n02133161_1480.png
subject-04,1,430,1.18331789970398,bicycle,car,64-0-10,0430_eid_s04_64-0-10_car_10_n02814533_14484.png
subject-04,1,431,0.829280138015747,keyboard,keyboard,16-0-10,0431_eid_s04_16-0-10_keyboard_10_n03085013_23535.png
subject-04,1,432,0.869029998779297,bottle,car,32-0-10,0432_eid_s04_32-0-10_car_10_n03100240_21737.png
subject-04,1,433,1.13281321525574,bear,bottle,16-0-10,0433_eid_s04_16-0-10_bottle_10_n04560804_30659.png
subject-04,1,434,0.964794158935547,car,dog,32-0-10,0434_eid_s04_32-0-10_dog_10_n02108915_8875.png
subject-04,1,435,0.642320871353149,keyboard,keyboard,2-0-10,0435_eid_s04_2-0-10_keyboard_10_n03085013_24159.png
subject-04,1,436,0.766350030899048,keyboard,keyboard,2-0-10,0436_eid_s04_2-0-10_keyboard_10_n04505470_279.png
subject-04,1,437,1.3361279964447,knife,cat,16-0-10,0437_eid_s04_16-0-10_cat_10_n02123045_873.png
subject-04,1,438,0.643833875656128,boat,dog,64-0-10,0438_eid_s04_64-0-10_dog_10_n02104029_5234.png
subject-04,1,439,0.691901922225952,bicycle,bicycle,4-0-10,0439_eid_s04_4-0-10_bicycle_10_n03792782_30530.png
subject-04,1,440,0.783563137054443,keyboard,knife,128-0-10,0440_eid_s04_128-0-10_knife_10_n03041632_7448.png
subject-04,1,441,0.969361782073975,car,bear,8-0-10,0441_eid_s04_8-0-10_bear_10_n02134418_5131.png
subject-04,1,442,0.921305894851685,car,car,8-0-10,0442_eid_s04_8-0-10_car_10_n03100240_1140.png
subject-04,1,443,0.942782163619995,dog,dog,4-0-10,0443_eid_s04_4-0-10_dog_10_n02107574_1519.png
subject-04,1,444,0.806873798370361,keyboard,clock,128-0-10,0444_eid_s04_128-0-10_clock_10_n04548280_4346.png
subject-04,1,445,0.678582906723022,boat,bird,128-0-10,0445_eid_s04_128-0-10_bird_10_n02028035_32993.png
subject-04,1,446,0.654496192932129,bear,boat,32-0-10,0446_eid_s04_32-0-10_boat_10_n02951358_18762.png
subject-04,1,447,1.33429193496704,car,chair,8-0-10,0447_eid_s04_8-0-10_chair_10_n03376595_3214.png
subject-04,1,448,1.14397883415222,keyboard,knife,8-0-10,0448_eid_s04_8-0-10_knife_10_n03041632_26933.png
subject-04,1,449,0.68576192855835,bear,bear,1-0-10,0449_eid_s04_1-0-10_bear_10_n02132136_13556.png
subject-04,1,450,1.20568799972534,cat,bear,64-0-10,0450_eid_s04_64-0-10_bear_10_n02132136_15174.png
subject-04,1,451,0.813543081283569,car,boat,8-0-10,0451_eid_s04_8-0-10_boat_10_n02951358_15422.png
subject-04,1,452,0.789655923843384,boat,keyboard,32-0-10,0452_eid_s04_32-0-10_keyboard_10_n03085013_23625.png
subject-04,1,453,0.691037893295288,bear,bear,4-0-10,0453_eid_s04_4-0-10_bear_10_n02133161_9098.png
subject-04,1,454,0.767215967178345,elephant,elephant,2-0-10,0454_eid_s04_2-0-10_elephant_10_n02504013_8626.png
subject-04,1,455,0.757161140441895,airplane,airplane,2-0-10,0455_eid_s04_2-0-10_airplane_10_n02690373_9673.png
subject-04,1,456,0.864461898803711,keyboard,keyboard,8-0-10,0456_eid_s04_8-0-10_keyboard_10_n03085013_5812.png
subject-04,1,457,1.19227409362793,keyboard,knife,128-0-10,0457_eid_s04_128-0-10_knife_10_n03041632_15754.png
subject-04,1,458,1.50002717971802,knife,bottle,4-0-10,0458_eid_s04_4-0-10_bottle_10_n04557648_1938.png
subject-04,1,459,0.696231842041016,oven,oven,2-0-10,0459_eid_s04_2-0-10_oven_10_n04111531_10011.png
subject-04,1,460,1.20179295539856,elephant,elephant,4-0-10,0460_eid_s04_4-0-10_elephant_10_n02504458_5995.png
subject-04,1,461,1.06773209571838,bird,knife,64-0-10,0461_eid_s04_64-0-10_knife_10_n03041632_86554.png
subject-04,1,462,0.745472192764282,keyboard,boat,64-0-10,0462_eid_s04_64-0-10_boat_10_n04273569_5672.png
subject-04,1,463,0.687234878540039,clock,clock,4-0-10,0463_eid_s04_4-0-10_clock_10_n04548280_2404.png
subject-04,1,464,0.811128854751587,keyboard,chair,8-0-10,0464_eid_s04_8-0-10_chair_10_n04099969_9017.png
subject-04,1,465,0.964743137359619,oven,knife,1-0-10,0465_eid_s04_1-0-10_knife_10_n03041632_16606.png
subject-04,1,466,0.970603942871094,knife,knife,8-0-10,0466_eid_s04_8-0-10_knife_10_n03041632_20517.png
subject-04,1,467,0.84486198425293,dog,dog,1-0-10,0467_eid_s04_1-0-10_dog_10_n02086646_5896.png
subject-04,1,468,0.764185190200806,keyboard,oven,128-0-10,0468_eid_s04_128-0-10_oven_10_n04111531_5328.png
subject-04,1,469,0.662055969238281,boat,keyboard,64-0-10,0469_eid_s04_64-0-10_keyboard_10_n03085013_21490.png
subject-04,1,470,0.652266025543213,car,car,2-0-10,0470_eid_s04_2-0-10_car_10_n03100240_18788.png
subject-04,1,471,1.05006003379822,truck,bottle,32-0-10,0471_eid_s04_32-0-10_bottle_10_n03983396_10229.png
subject-04,1,472,0.859463214874268,bear,bear,1-0-10,0472_eid_s04_1-0-10_bear_10_n02134084_1694.png
subject-04,1,473,1.13322305679321,dog,chair,16-0-10,0473_eid_s04_16-0-10_chair_10_n03376595_3130.png
subject-04,1,474,0.725116014480591,boat,airplane,128-0-10,0474_eid_s04_128-0-10_airplane_10_n02690373_6223.png
subject-04,1,475,0.669227123260498,clock,elephant,128-0-10,0475_eid_s04_128-0-10_elephant_10_n02504458_5827.png
subject-04,1,476,0.694704055786133,bicycle,bicycle,4-0-10,0476_eid_s04_4-0-10_bicycle_10_n03792782_42850.png
subject-04,1,477,0.952538967132568,keyboard,boat,64-0-10,0477_eid_s04_64-0-10_boat_10_n03344393_4562.png
subject-04,1,478,1.50000882148743,bottle,dog,16-0-10,0478_eid_s04_16-0-10_dog_10_n02111129_5833.png
subject-04,1,479,0.854190111160278,bear,car,32-0-10,0479_eid_s04_32-0-10_car_10_n04285008_16557.png
subject-04,1,480,0.891963958740234,keyboard,elephant,128-0-10,0480_eid_s04_128-0-10_elephant_10_n02504013_6501.png
subject-04,1,481,1.0202739238739,knife,knife,2-0-10,0481_eid_s04_2-0-10_knife_10_n03041632_22480.png
subject-04,1,482,0.798303127288818,bear,bear,8-0-10,0482_eid_s04_8-0-10_bear_10_n02134418_1906.png
subject-04,1,483,0.717926979064941,boat,truck,32-0-10,0483_eid_s04_32-0-10_truck_10_n04467665_62439.png
subject-04,1,484,0.699926137924194,keyboard,car,128-0-10,0484_eid_s04_128-0-10_car_10_n03100240_963.png
subject-04,1,485,0.565744876861572,cat,cat,2-0-10,0485_eid_s04_2-0-10_cat_10_n02123159_2682.png
subject-04,1,486,0.799353122711182,bicycle,bicycle,2-0-10,0486_eid_s04_2-0-10_bicycle_10_n03792782_15752.png
subject-04,1,487,1.21320104598999,dog,airplane,32-0-10,0487_eid_s04_32-0-10_airplane_10_n02690373_2823.png
subject-04,1,488,0.631216049194336,cat,cat,2-0-10,0488_eid_s04_2-0-10_cat_10_n02123159_3026.png
subject-04,1,489,0.800797939300537,bear,bear,32-0-10,0489_eid_s04_32-0-10_bear_10_n02132136_4203.png
subject-04,1,490,0.846655130386353,airplane,airplane,4-0-10,0490_eid_s04_4-0-10_airplane_10_n02690373_8214.png
subject-04,1,491,0.674777984619141,car,car,4-0-10,0491_eid_s04_4-0-10_car_10_n04285008_7630.png
subject-04,1,492,1.09429097175598,bird,bottle,8-0-10,0492_eid_s04_8-0-10_bottle_10_n04560804_32775.png
subject-04,1,493,0.932217836380005,boat,boat,2-0-10,0493_eid_s04_2-0-10_boat_10_n04273569_14363.png
subject-04,1,494,0.813992023468018,bear,chair,32-0-10,0494_eid_s04_32-0-10_chair_10_n03376595_8083.png
subject-04,1,495,0.803644895553589,bicycle,bicycle,4-0-10,0495_eid_s04_4-0-10_bicycle_10_n03792782_2960.png
subject-04,1,496,0.675895929336548,boat,clock,64-0-10,0496_eid_s04_64-0-10_clock_10_n04548280_17198.png
subject-04,1,497,1.10525989532471,oven,oven,64-0-10,0497_eid_s04_64-0-10_oven_10_n04111531_8553.png
subject-04,1,498,0.931071996688843,cat,bird,8-0-10,0498_eid_s04_8-0-10_bird_10_n02009912_11813.png
subject-04,1,499,0.781107902526855,dog,dog,8-0-10,0499_eid_s04_8-0-10_dog_10_n02105855_9345.png
subject-04,1,500,1.06082916259766,bottle,truck,16-0-10,0500_eid_s04_16-0-10_truck_10_n03417042_4288.png
subject-04,1,501,0.792584896087646,boat,boat,64-0-10,0501_eid_s04_64-0-10_boat_10_n02951358_23759.png
subject-04,1,502,0.76836085319519,airplane,airplane,4-0-10,0502_eid_s04_4-0-10_airplane_10_n02690373_4434.png
subject-04,1,503,1.28253602981567,dog,truck,8-0-10,0503_eid_s04_8-0-10_truck_10_n03417042_14381.png
subject-04,1,504,0.832158088684082,keyboard,keyboard,4-0-10,0504_eid_s04_4-0-10_keyboard_10_n03085013_20727.png
subject-04,1,505,1.25992488861084,truck,truck,4-0-10,0505_eid_s04_4-0-10_truck_10_n03417042_16238.png
subject-04,1,506,1.06567811965942,bear,oven,32-0-10,0506_eid_s04_32-0-10_oven_10_n04111531_9613.png
subject-04,1,507,1.16759490966797,bottle,cat,8-0-10,0507_eid_s04_8-0-10_cat_10_n02123045_12181.png
subject-04,1,508,0.923417091369629,bottle,airplane,128-0-10,0508_eid_s04_128-0-10_airplane_10_n02690373_6988.png
subject-04,1,509,1.1170380115509,knife,boat,32-0-10,0509_eid_s04_32-0-10_boat_10_n02951358_26334.png
subject-04,1,510,0.89109206199646,clock,clock,4-0-10,0510_eid_s04_4-0-10_clock_10_n04548280_28.png
subject-04,1,511,0.81873607635498,car,car,8-0-10,0511_eid_s04_8-0-10_car_10_n02814533_37736.png
subject-04,1,512,0.844413042068481,cat,car,128-0-10,0512_eid_s04_128-0-10_car_10_n03100240_7520.png
subject-04,1,513,0.906446933746338,boat,bottle,32-0-10,0513_eid_s04_32-0-10_bottle_10_n04560804_1356.png
subject-04,1,514,0.952406167984009,car,boat,16-0-10,0514_eid_s04_16-0-10_boat_10_n04273569_9452.png
subject-04,1,515,0.691888093948364,chair,chair,2-0-10,0515_eid_s04_2-0-10_chair_10_n04429376_24375.png
subject-04,1,516,1.04369688034058,bear,bear,16-0-10,0516_eid_s04_16-0-10_bear_10_n02132136_2765.png
subject-04,1,517,0.749840021133423,cat,cat,32-0-10,0517_eid_s04_32-0-10_cat_10_n02123045_12766.png
subject-04,1,518,0.84348201751709,car,boat,64-0-10,0518_eid_s04_64-0-10_boat_10_n04273569_15879.png
subject-04,1,519,0.723186016082764,airplane,airplane,8-0-10,0519_eid_s04_8-0-10_airplane_10_n02690373_19152.png
subject-04,1,520,0.863008975982666,airplane,clock,1-0-10,0520_eid_s04_1-0-10_clock_10_n03196217_2022.png
subject-04,1,521,0.831007957458496,bear,cat,64-0-10,0521_eid_s04_64-0-10_cat_10_n02125311_2576.png
subject-04,1,522,0.712749004364014,bear,bear,2-0-10,0522_eid_s04_2-0-10_bear_10_n02133161_15593.png
subject-04,1,523,0.764838933944702,cat,car,128-0-10,0523_eid_s04_128-0-10_car_10_n04285008_10144.png
subject-04,1,524,0.802375078201294,car,elephant,16-0-10,0524_eid_s04_16-0-10_elephant_10_n02504013_3602.png
subject-04,1,525,0.996134042739868,dog,bear,128-0-10,0525_eid_s04_128-0-10_bear_10_n02134084_2516.png
subject-04,1,526,1.02027106285095,bear,elephant,4-0-10,0526_eid_s04_4-0-10_elephant_10_n02504458_5816.png
subject-04,1,527,1.431804895401,clock,bottle,128-0-10,0527_eid_s04_128-0-10_bottle_10_n04591713_8914.png
subject-04,1,528,0.679382801055908,boat,boat,2-0-10,0528_eid_s04_2-0-10_boat_10_n03662601_840.png
subject-04,1,529,0.801280975341797,dog,dog,8-0-10,0529_eid_s04_8-0-10_dog_10_n02092339_2607.png
subject-04,1,530,0.847321033477783,airplane,airplane,1-0-10,0530_eid_s04_1-0-10_airplane_10_n02690373_6739.png
subject-04,1,531,1.16733288764954,car,car,64-0-10,0531_eid_s04_64-0-10_car_10_n03100240_18410.png
subject-04,1,532,1.24681401252747,dog,oven,16-0-10,0532_eid_s04_16-0-10_oven_10_n04111531_8603.png
subject-04,1,533,0.824489116668701,truck,truck,4-0-10,0533_eid_s04_4-0-10_truck_10_n03417042_6241.png
subject-04,1,534,0.750443935394287,truck,truck,1-0-10,0534_eid_s04_1-0-10_truck_10_n03417042_9668.png
subject-04,1,535,0.912175893783569,chair,oven,1-0-10,0535_eid_s04_1-0-10_oven_10_n04111531_10216.png
subject-04,1,536,0.964015007019043,boat,chair,64-0-10,0536_eid_s04_64-0-10_chair_10_n04429376_36848.png
subject-04,1,537,1.02471780776978,car,oven,32-0-10,0537_eid_s04_32-0-10_oven_10_n04111531_669.png
subject-04,1,538,1.05581784248352,cat,bicycle,128-0-10,0538_eid_s04_128-0-10_bicycle_10_n03792782_10367.png
subject-04,1,539,0.709482908248901,car,car,1-0-10,0539_eid_s04_1-0-10_car_10_n03100240_1745.png
subject-04,1,540,0.741221904754639,bear,bear,16-0-10,0540_eid_s04_16-0-10_bear_10_n02134418_17.png
subject-04,1,541,0.779446125030518,cat,clock,32-0-10,0541_eid_s04_32-0-10_clock_10_n02708093_685.png
subject-04,1,542,0.795166969299316,keyboard,keyboard,128-0-10,0542_eid_s04_128-0-10_keyboard_10_n04505470_659.png
subject-04,1,543,1.0007951259613,bottle,oven,8-0-10,0543_eid_s04_8-0-10_oven_10_n04111531_4671.png
subject-04,1,544,1.05268597602844,car,keyboard,8-0-10,0544_eid_s04_8-0-10_keyboard_10_n03085013_23563.png
subject-04,1,545,0.958371877670288,knife,bottle,2-0-10,0545_eid_s04_2-0-10_bottle_10_n03937543_7877.png
subject-04,1,546,1.01010918617249,bicycle,oven,4-0-10,0546_eid_s04_4-0-10_oven_10_n04111531_7266.png
subject-04,1,547,1.16590094566345,airplane,bird,8-0-10,0547_eid_s04_8-0-10_bird_10_n02025239_17670.png
subject-04,1,548,0.803765058517456,bicycle,bicycle,2-0-10,0548_eid_s04_2-0-10_bicycle_10_n03792782_12704.png
subject-04,1,549,0.923657894134521,truck,truck,1-0-10,0549_eid_s04_1-0-10_truck_10_n04467665_54079.png
subject-04,1,550,0.965409994125366,bird,bear,128-0-10,0550_eid_s04_128-0-10_bear_10_n02134418_377.png
subject-04,1,551,0.753289937973022,car,car,8-0-10,0551_eid_s04_8-0-10_car_10_n03100240_2619.png
subject-04,1,552,0.820979118347168,airplane,airplane,1-0-10,0552_eid_s04_1-0-10_airplane_10_n02690373_7355.png
subject-04,1,553,0.882917881011963,keyboard,truck,64-0-10,0553_eid_s04_64-0-10_truck_10_n03417042_7621.png
subject-04,1,554,0.754632949829102,car,truck,32-0-10,0554_eid_s04_32-0-10_truck_10_n03796401_10784.png
subject-04,1,555,0.762842178344727,dog,dog,1-0-10,0555_eid_s04_1-0-10_dog_10_n02097209_5571.png
subject-04,1,556,0.690248966217041,airplane,airplane,2-0-10,0556_eid_s04_2-0-10_airplane_10_n02690373_4851.png
subject-04,1,557,0.714088201522827,oven,oven,2-0-10,0557_eid_s04_2-0-10_oven_10_n04111531_12820.png
subject-04,1,558,0.721840143203735,car,knife,16-0-10,0558_eid_s04_16-0-10_knife_10_n03041632_53874.png
subject-04,1,559,0.709904909133911,boat,clock,16-0-10,0559_eid_s04_16-0-10_clock_10_n03196217_4776.png
subject-04,1,560,0.669590950012207,clock,clock,1-0-10,0560_eid_s04_1-0-10_clock_10_n02708093_2843.png
subject-04,1,561,0.80669379234314,truck,oven,1-0-10,0561_eid_s04_1-0-10_oven_10_n04111531_687.png
subject-04,1,562,1.05663704872131,dog,oven,32-0-10,0562_eid_s04_32-0-10_oven_10_n04111531_5168.png
subject-04,1,563,0.714209079742432,cat,cat,4-0-10,0563_eid_s04_4-0-10_cat_10_n02123159_5764.png
subject-04,1,564,0.846184015274048,airplane,airplane,8-0-10,0564_eid_s04_8-0-10_airplane_10_n02690373_4979.png
subject-04,1,565,0.813716888427734,keyboard,keyboard,8-0-10,0565_eid_s04_8-0-10_keyboard_10_n03085013_20996.png
subject-04,1,566,0.737796068191528,keyboard,boat,128-0-10,0566_eid_s04_128-0-10_boat_10_n03662601_15713.png
subject-04,1,567,0.84569787979126,bird,bird,1-0-10,0567_eid_s04_1-0-10_bird_10_n01530575_3831.png
subject-04,1,568,0.609437942504883,clock,clock,1-0-10,0568_eid_s04_1-0-10_clock_10_n04548280_16233.png
subject-04,1,569,0.749264001846313,elephant,elephant,1-0-10,0569_eid_s04_1-0-10_elephant_10_n02504458_5951.png
subject-04,1,570,0.717401027679443,clock,clock,1-0-10,0570_eid_s04_1-0-10_clock_10_n04548280_1051.png
subject-04,1,571,0.894938945770264,dog,dog,2-0-10,0571_eid_s04_2-0-10_dog_10_n02106550_7165.png
subject-04,1,572,0.648706197738647,bicycle,bicycle,2-0-10,0572_eid_s04_2-0-10_bicycle_10_n03792782_7913.png
subject-04,1,573,0.782569885253906,bear,bear,32-0-10,0573_eid_s04_32-0-10_bear_10_n02134418_163.png
subject-04,1,574,0.678200006484985,bicycle,bicycle,4-0-10,0574_eid_s04_4-0-10_bicycle_10_n03792782_22908.png
subject-04,1,575,0.966109037399292,keyboard,oven,16-0-10,0575_eid_s04_16-0-10_oven_10_n04111531_766.png
subject-04,1,576,0.839977979660034,elephant,elephant,4-0-10,0576_eid_s04_4-0-10_elephant_10_n02504013_10582.png
subject-04,1,577,0.759534120559692,boat,boat,1-0-10,0577_eid_s04_1-0-10_boat_10_n04273569_10847.png
subject-04,1,578,1.19540286064148,bottle,cat,16-0-10,0578_eid_s04_16-0-10_cat_10_n02123045_20507.png
subject-04,1,579,0.537395000457764,bear,bear,2-0-10,0579_eid_s04_2-0-10_bear_10_n02134084_18800.png
subject-04,1,580,0.729233026504517,keyboard,keyboard,2-0-10,0580_eid_s04_2-0-10_keyboard_10_n03085013_4636.png
subject-04,1,581,0.735115051269531,keyboard,keyboard,2-0-10,0581_eid_s04_2-0-10_keyboard_10_n04505470_4505.png
subject-04,1,582,0.88275408744812,car,oven,4-0-10,0582_eid_s04_4-0-10_oven_10_n04111531_2186.png
subject-04,1,583,1.26458096504211,knife,boat,8-0-10,0583_eid_s04_8-0-10_boat_10_n04273569_7315.png
subject-04,1,584,0.574248075485229,cat,cat,2-0-10,0584_eid_s04_2-0-10_cat_10_n02123597_14233.png
subject-04,1,585,0.738202095031738,cat,cat,8-0-10,0585_eid_s04_8-0-10_cat_10_n02125311_10230.png
subject-04,1,586,0.962070941925049,keyboard,oven,32-0-10,0586_eid_s04_32-0-10_oven_10_n04111531_21309.png
subject-04,1,587,0.665841102600098,clock,clock,1-0-10,0587_eid_s04_1-0-10_clock_10_n04548280_4560.png
subject-04,1,588,0.999683856964111,keyboard,bear,64-0-10,0588_eid_s04_64-0-10_bear_10_n02132136_14832.png
subject-04,1,589,0.637470006942749,cat,cat,1-0-10,0589_eid_s04_1-0-10_cat_10_n02123159_8039.png
subject-04,1,590,0.72745418548584,oven,cat,128-0-10,0590_eid_s04_128-0-10_cat_10_n02124075_12069.png
subject-04,1,591,0.835080146789551,bear,oven,32-0-10,0591_eid_s04_32-0-10_oven_10_n04111531_4438.png
subject-04,1,592,0.762866020202637,keyboard,keyboard,1-0-10,0592_eid_s04_1-0-10_keyboard_10_n04505470_5561.png
subject-04,1,593,0.718674182891846,chair,chair,1-0-10,0593_eid_s04_1-0-10_chair_10_n04099969_10825.png
subject-04,1,594,1.02482795715332,knife,knife,2-0-10,0594_eid_s04_2-0-10_knife_10_n03041632_28443.png
subject-04,1,595,0.818481206893921,keyboard,bird,8-0-10,0595_eid_s04_8-0-10_bird_10_n01820546_4847.png
subject-04,1,596,0.848150968551636,car,car,4-0-10,0596_eid_s04_4-0-10_car_10_n04285008_13054.png
subject-04,1,597,0.746086120605469,keyboard,chair,128-0-10,0597_eid_s04_128-0-10_chair_10_n02791124_7759.png
subject-04,1,598,1.11975407600403,airplane,bird,8-0-10,0598_eid_s04_8-0-10_bird_10_n02009912_27132.png
subject-04,1,599,0.735599994659424,chair,chair,4-0-10,0599_eid_s04_4-0-10_chair_10_n04429376_17100.png
subject-04,1,600,0.787267923355103,keyboard,oven,128-0-10,0600_eid_s04_128-0-10_oven_10_n04111531_11221.png
subject-04,1,601,0.847148895263672,bear,knife,8-0-10,0601_eid_s04_8-0-10_knife_10_n03041632_3063.png
subject-04,1,602,0.995029926300049,knife,knife,1-0-10,0602_eid_s04_1-0-10_knife_10_n03041632_48062.png
subject-04,1,603,0.992890119552612,elephant,elephant,8-0-10,0603_eid_s04_8-0-10_elephant_10_n02504013_23154.png
subject-04,1,604,0.896744012832642,bear,bottle,64-0-10,0604_eid_s04_64-0-10_bottle_10_n03937543_2790.png
subject-04,1,605,0.826637983322144,bear,bear,8-0-10,0605_eid_s04_8-0-10_bear_10_n02132136_4261.png
subject-04,1,606,0.904269933700562,bird,bird,1-0-10,0606_eid_s04_1-0-10_bird_10_n01616318_2473.png
subject-04,1,607,1.05619597434998,airplane,boat,8-0-10,0607_eid_s04_8-0-10_boat_10_n03662601_33374.png
subject-04,1,608,0.750041007995605,boat,dog,16-0-10,0608_eid_s04_16-0-10_dog_10_n02090721_835.png
subject-04,1,609,1.04551005363464,bottle,knife,32-0-10,0609_eid_s04_32-0-10_knife_10_n03041632_13225.png
subject-04,1,610,1.09960603713989,boat,bear,128-0-10,0610_eid_s04_128-0-10_bear_10_n02134418_896.png
subject-04,1,611,1.40362119674683,clock,chair,1-0-10,0611_eid_s04_1-0-10_chair_10_n03376595_13578.png
subject-04,1,612,0.781322002410889,bicycle,boat,1-0-10,0612_eid_s04_1-0-10_boat_10_n02951358_7478.png
subject-04,1,613,1.07736992835999,dog,dog,8-0-10,0613_eid_s04_8-0-10_dog_10_n02104029_5465.png
subject-04,1,614,0.980787038803101,dog,dog,2-0-10,0614_eid_s04_2-0-10_dog_10_n02108422_6951.png
subject-04,1,615,0.682601928710938,keyboard,keyboard,1-0-10,0615_eid_s04_1-0-10_keyboard_10_n03085013_23286.png
subject-04,1,616,0.650315046310425,bear,bear,32-0-10,0616_eid_s04_32-0-10_bear_10_n02132136_26438.png
subject-04,1,617,0.782273054122925,keyboard,knife,128-0-10,0617_eid_s04_128-0-10_knife_10_n03041632_10999.png
subject-04,1,618,0.992111921310425,keyboard,clock,8-0-10,0618_eid_s04_8-0-10_clock_10_n03196217_13380.png
subject-04,1,619,1.17791700363159,bicycle,bicycle,1-0-10,0619_eid_s04_1-0-10_bicycle_10_n03792782_4544.png
subject-04,1,620,0.87965202331543,cat,car,64-0-10,0620_eid_s04_64-0-10_car_10_n04285008_12580.png
subject-04,1,621,1.07334303855896,bear,bottle,64-0-10,0621_eid_s04_64-0-10_bottle_10_n04591713_7940.png
subject-04,1,622,1.09724593162537,bottle,cat,8-0-10,0622_eid_s04_8-0-10_cat_10_n02123597_22140.png
subject-04,1,623,0.757122993469238,bear,cat,64-0-10,0623_eid_s04_64-0-10_cat_10_n02124075_7474.png
subject-04,1,624,0.826961994171143,elephant,elephant,4-0-10,0624_eid_s04_4-0-10_elephant_10_n02504013_9796.png
subject-04,1,625,0.811002969741821,knife,cat,4-0-10,0625_eid_s04_4-0-10_cat_10_n02123597_2069.png
subject-04,1,626,0.942394018173218,bear,boat,32-0-10,0626_eid_s04_32-0-10_boat_10_n04612504_125.png
subject-04,1,627,0.666680812835693,clock,clock,2-0-10,0627_eid_s04_2-0-10_clock_10_n04548280_6159.png
subject-04,1,628,0.70399808883667,car,car,8-0-10,0628_eid_s04_8-0-10_car_10_n02814533_68668.png
subject-04,1,629,0.774027109146118,airplane,airplane,4-0-10,0629_eid_s04_4-0-10_airplane_10_n02690373_6429.png
subject-04,1,630,0.887600898742676,boat,airplane,4-0-10,0630_eid_s04_4-0-10_airplane_10_n02690373_9175.png
subject-04,1,631,0.851594924926758,car,car,32-0-10,0631_eid_s04_32-0-10_car_10_n02814533_58462.png
subject-04,1,632,0.713227987289429,clock,clock,2-0-10,0632_eid_s04_2-0-10_clock_10_n03196217_2201.png
subject-04,1,633,0.759277105331421,bear,bear,4-0-10,0633_eid_s04_4-0-10_bear_10_n02133161_499.png
subject-04,1,634,0.913064002990723,elephant,elephant,16-0-10,0634_eid_s04_16-0-10_elephant_10_n02504458_1727.png
subject-04,1,635,0.91884183883667,elephant,chair,32-0-10,0635_eid_s04_32-0-10_chair_10_n04099969_114.png
subject-04,1,636,0.800495862960815,bear,truck,32-0-10,0636_eid_s04_32-0-10_truck_10_n04467665_9833.png
subject-04,1,637,0.776299953460693,keyboard,keyboard,1-0-10,0637_eid_s04_1-0-10_keyboard_10_n04505470_10697.png
subject-04,1,638,0.97432804107666,bottle,elephant,16-0-10,0638_eid_s04_16-0-10_elephant_10_n02504458_3570.png
subject-04,1,639,0.80008602142334,bear,chair,32-0-10,0639_eid_s04_32-0-10_chair_10_n02791124_624.png
subject-04,1,640,0.956011056900024,bottle,dog,32-0-10,0640_eid_s04_32-0-10_dog_10_n02088238_4028.png
subject-04,1,641,0.799180030822754,keyboard,elephant,64-0-10,0641_eid_s04_64-0-10_elephant_10_n02504013_10765.png
subject-04,1,642,0.686588048934937,airplane,airplane,1-0-10,0642_eid_s04_1-0-10_airplane_10_n02690373_8967.png
subject-04,1,643,0.920686960220337,bear,keyboard,8-0-10,0643_eid_s04_8-0-10_keyboard_10_n03085013_25066.png
subject-04,1,644,0.900413990020752,knife,knife,4-0-10,0644_eid_s04_4-0-10_knife_10_n03041632_39840.png
subject-04,1,645,0.656172037124634,cat,boat,64-0-10,0645_eid_s04_64-0-10_boat_10_n04273569_14454.png
subject-04,1,646,0.888424158096313,dog,bottle,16-0-10,0646_eid_s04_16-0-10_bottle_10_n03983396_5281.png
subject-04,1,647,0.911828994750977,oven,chair,8-0-10,0647_eid_s04_8-0-10_chair_10_n04429376_17013.png
subject-04,1,648,0.853753805160522,car,car,1-0-10,0648_eid_s04_1-0-10_car_10_n03100240_16646.png
subject-04,1,649,1.01333403587341,bear,keyboard,32-0-10,0649_eid_s04_32-0-10_keyboard_10_n03085013_24030.png
subject-04,1,650,0.927050113677979,bear,bear,16-0-10,0650_eid_s04_16-0-10_bear_10_n02133161_25789.png
subject-04,1,651,1.08102011680603,knife,knife,4-0-10,0651_eid_s04_4-0-10_knife_10_n03041632_4975.png
subject-04,1,652,1.00888395309448,airplane,boat,4-0-10,0652_eid_s04_4-0-10_boat_10_n04612504_15875.png
subject-04,1,653,0.710690975189209,bear,clock,32-0-10,0653_eid_s04_32-0-10_clock_10_n04548280_8412.png
subject-04,1,654,0.958348989486694,bird,bottle,16-0-10,0654_eid_s04_16-0-10_bottle_10_n04557648_10302.png
subject-04,1,655,0.810553073883057,car,car,8-0-10,0655_eid_s04_8-0-10_car_10_n04285008_2232.png
subject-04,1,656,0.660354137420654,car,car,2-0-10,0656_eid_s04_2-0-10_car_10_n04285008_7511.png
subject-04,1,657,0.995755910873413,bottle,truck,128-0-10,0657_eid_s04_128-0-10_truck_10_n04467665_22573.png
subject-04,1,658,0.867655992507935,bird,bird,1-0-10,0658_eid_s04_1-0-10_bird_10_n01824575_10046.png
subject-04,1,659,0.821420907974243,keyboard,knife,64-0-10,0659_eid_s04_64-0-10_knife_10_n03041632_2973.png
subject-04,1,660,0.727285146713257,bear,bicycle,16-0-10,0660_eid_s04_16-0-10_bicycle_10_n02835271_18228.png
subject-04,1,661,0.669116973876953,chair,chair,2-0-10,0661_eid_s04_2-0-10_chair_10_n03376595_3043.png
subject-04,1,662,0.904793977737427,bear,keyboard,64-0-10,0662_eid_s04_64-0-10_keyboard_10_n04505470_9113.png
subject-04,1,663,0.710740089416504,dog,bird,16-0-10,0663_eid_s04_16-0-10_bird_10_n02056570_6633.png
subject-04,1,664,0.742518186569214,keyboard,bottle,8-0-10,0664_eid_s04_8-0-10_bottle_10_n04591713_807.png
subject-04,1,665,0.818487882614136,elephant,elephant,8-0-10,0665_eid_s04_8-0-10_elephant_10_n02504458_2841.png
subject-04,1,666,0.684278011322021,bear,elephant,16-0-10,0666_eid_s04_16-0-10_elephant_10_n02504458_151.png
subject-04,1,667,0.92417311668396,knife,bear,8-0-10,0667_eid_s04_8-0-10_bear_10_n02134418_5120.png
subject-04,1,668,0.861985921859741,bear,bicycle,16-0-10,0668_eid_s04_16-0-10_bicycle_10_n02835271_4667.png
subject-04,1,669,0.69367504119873,car,car,2-0-10,0669_eid_s04_2-0-10_car_10_n04285008_10631.png
subject-04,1,670,0.807422161102295,keyboard,oven,16-0-10,0670_eid_s04_16-0-10_oven_10_n04111531_3805.png
subject-04,1,671,0.775429964065552,elephant,elephant,2-0-10,0671_eid_s04_2-0-10_elephant_10_n02504013_9299.png
subject-04,1,672,0.695312023162842,bear,bird,16-0-10,0672_eid_s04_16-0-10_bird_10_n01855672_4659.png
subject-04,1,673,0.708735942840576,keyboard,bottle,16-0-10,0673_eid_s04_16-0-10_bottle_10_n04560804_183.png
subject-04,1,674,1.02893400192261,knife,knife,1-0-10,0674_eid_s04_1-0-10_knife_10_n03041632_26314.png
subject-04,1,675,1.17684388160706,airplane,airplane,16-0-10,0675_eid_s04_16-0-10_airplane_10_n02690373_1075.png
subject-04,1,676,1.2703320980072,clock,oven,16-0-10,0676_eid_s04_16-0-10_oven_10_n04111531_9867.png
subject-04,1,677,0.602071046829224,car,car,1-0-10,0677_eid_s04_1-0-10_car_10_n03100240_9171.png
subject-04,1,678,0.852066040039062,airplane,truck,2-0-10,0678_eid_s04_2-0-10_truck_10_n04467665_15994.png
subject-04,1,679,0.919647932052612,keyboard,keyboard,2-0-10,0679_eid_s04_2-0-10_keyboard_10_n03085013_23554.png
subject-04,1,680,0.847606897354126,dog,dog,1-0-10,0680_eid_s04_1-0-10_dog_10_n02087394_3095.png
subject-04,1,681,0.765491962432861,truck,truck,2-0-10,0681_eid_s04_2-0-10_truck_10_n04467665_58500.png
subject-04,1,682,1.00305199623108,airplane,airplane,16-0-10,0682_eid_s04_16-0-10_airplane_10_n02690373_3640.png
subject-04,1,683,0.832857131958008,bear,dog,16-0-10,0683_eid_s04_16-0-10_dog_10_n02088094_2292.png
subject-04,1,684,0.852653026580811,bird,clock,32-0-10,0684_eid_s04_32-0-10_clock_10_n03196217_4849.png
subject-04,1,685,0.702635049819946,knife,knife,1-0-10,0685_eid_s04_1-0-10_knife_10_n03041632_44230.png
subject-04,1,686,0.686608076095581,car,car,1-0-10,0686_eid_s04_1-0-10_car_10_n02814533_20611.png
subject-04,1,687,0.904163122177124,car,elephant,4-0-10,0687_eid_s04_4-0-10_elephant_10_n02504013_6897.png
subject-04,1,688,0.952057838439941,keyboard,dog,128-0-10,0688_eid_s04_128-0-10_dog_10_n02112350_502.png
subject-04,1,689,1.31796002388,dog,dog,2-0-10,0689_eid_s04_2-0-10_dog_10_n02090721_5234.png
subject-04,1,690,0.843725919723511,knife,bottle,1-0-10,0690_eid_s04_1-0-10_bottle_10_n04557648_264.png
subject-04,1,691,0.69355297088623,chair,chair,1-0-10,0691_eid_s04_1-0-10_chair_10_n04099969_12537.png
subject-04,1,692,0.701198101043701,bear,bear,8-0-10,0692_eid_s04_8-0-10_bear_10_n02133161_12751.png
subject-04,1,693,0.635515928268433,bear,bear,4-0-10,0693_eid_s04_4-0-10_bear_10_n02134084_967.png
subject-04,1,694,1.01690196990967,bird,bird,2-0-10,0694_eid_s04_2-0-10_bird_10_n02056570_18300.png
subject-04,1,695,0.772661924362183,bird,bird,1-0-10,0695_eid_s04_1-0-10_bird_10_n02006656_9134.png
subject-04,1,696,0.698527097702026,keyboard,keyboard,64-0-10,0696_eid_s04_64-0-10_keyboard_10_n03085013_1483.png
subject-04,1,697,0.984478950500488,keyboard,clock,128-0-10,0697_eid_s04_128-0-10_clock_10_n04548280_23690.png
subject-04,1,698,0.724570989608765,airplane,airplane,8-0-10,0698_eid_s04_8-0-10_airplane_10_n02690373_6836.png
subject-04,1,699,0.692047834396362,bear,chair,32-0-10,0699_eid_s04_32-0-10_chair_10_n04099969_6217.png
subject-04,1,700,1.09780883789062,dog,dog,1-0-10,0700_eid_s04_1-0-10_dog_10_n02098286_4560.png
subject-04,1,701,0.993836879730225,cat,airplane,32-0-10,0701_eid_s04_32-0-10_airplane_10_n02690373_2024.png
subject-04,1,702,0.741551160812378,keyboard,keyboard,2-0-10,0702_eid_s04_2-0-10_keyboard_10_n04505470_568.png
subject-04,1,703,0.809165954589844,oven,bear,16-0-10,0703_eid_s04_16-0-10_bear_10_n02134418_2891.png
subject-04,1,704,1.0269980430603,boat,boat,2-0-10,0704_eid_s04_2-0-10_boat_10_n04273569_17322.png
subject-04,1,705,0.798992872238159,chair,chair,4-0-10,0705_eid_s04_4-0-10_chair_10_n03376595_6333.png
subject-04,1,706,0.836616992950439,cat,dog,64-0-10,0706_eid_s04_64-0-10_dog_10_n02088238_2973.png
subject-04,1,707,0.796554088592529,keyboard,keyboard,1-0-10,0707_eid_s04_1-0-10_keyboard_10_n03085013_9066.png
subject-04,1,708,1.12421989440918,bear,boat,8-0-10,0708_eid_s04_8-0-10_boat_10_n03662601_3903.png
subject-04,1,709,0.892056941986084,bear,bottle,32-0-10,0709_eid_s04_32-0-10_bottle_10_n03983396_1910.png
subject-04,1,710,0.713964939117432,truck,truck,2-0-10,0710_eid_s04_2-0-10_truck_10_n03417042_7096.png
subject-04,1,711,0.961910009384155,car,bear,1-0-10,0711_eid_s04_1-0-10_bear_10_n02134418_304.png
subject-04,1,712,0.747776031494141,bear,bear,2-0-10,0712_eid_s04_2-0-10_bear_10_n02132136_10057.png
subject-04,1,713,0.903496026992798,chair,chair,1-0-10,0713_eid_s04_1-0-10_chair_10_n02791124_13477.png
subject-04,1,714,0.783341884613037,keyboard,clock,64-0-10,0714_eid_s04_64-0-10_clock_10_n03196217_775.png
subject-04,1,715,0.780860900878906,cat,boat,32-0-10,0715_eid_s04_32-0-10_boat_10_n04273569_9821.png
subject-04,1,716,0.709105014801025,keyboard,dog,128-0-10,0716_eid_s04_128-0-10_dog_10_n02094114_2394.png
subject-04,1,717,0.77888011932373,elephant,elephant,1-0-10,0717_eid_s04_1-0-10_elephant_10_n02504013_5351.png
subject-04,1,718,0.766581058502197,truck,truck,1-0-10,0718_eid_s04_1-0-10_truck_10_n03417042_3389.png
subject-04,1,719,0.788175106048584,airplane,airplane,8-0-10,0719_eid_s04_8-0-10_airplane_10_n02690373_6363.png
subject-04,1,720,1.17809915542603,airplane,bicycle,4-0-10,0720_eid_s04_4-0-10_bicycle_10_n03792782_6765.png
subject-04,1,721,0.823799133300781,elephant,elephant,1-0-10,0721_eid_s04_1-0-10_elephant_10_n02504458_12074.png
subject-04,1,722,0.783386945724487,bear,oven,32-0-10,0722_eid_s04_32-0-10_oven_10_n04111531_10313.png
subject-04,1,723,0.945426940917969,cat,cat,32-0-10,0723_eid_s04_32-0-10_cat_10_n02123159_799.png
subject-04,1,724,0.678963899612427,airplane,airplane,2-0-10,0724_eid_s04_2-0-10_airplane_10_n02690373_9718.png
subject-04,1,725,0.670722007751465,bicycle,bicycle,1-0-10,0725_eid_s04_1-0-10_bicycle_10_n02835271_9807.png
subject-04,1,726,0.784568071365356,keyboard,chair,128-0-10,0726_eid_s04_128-0-10_chair_10_n04099969_2472.png
subject-04,1,727,0.76817798614502,bear,bear,2-0-10,0727_eid_s04_2-0-10_bear_10_n02134418_3584.png
subject-04,1,728,0.814285039901733,keyboard,bear,128-0-10,0728_eid_s04_128-0-10_bear_10_n02134084_6286.png
subject-04,1,729,0.8419508934021,car,boat,32-0-10,0729_eid_s04_32-0-10_boat_10_n03662601_8360.png
subject-04,1,730,1.04365491867065,elephant,oven,64-0-10,0730_eid_s04_64-0-10_oven_10_n04111531_17781.png
subject-04,1,731,0.971534013748169,bird,bird,64-0-10,0731_eid_s04_64-0-10_bird_10_n01534433_16586.png
subject-04,1,732,0.759456872940063,boat,clock,32-0-10,0732_eid_s04_32-0-10_clock_10_n03196217_3695.png
subject-04,1,733,0.831033945083618,bottle,bottle,64-0-10,0733_eid_s04_64-0-10_bottle_10_n03983396_4024.png
subject-04,1,734,0.635022163391113,clock,clock,2-0-10,0734_eid_s04_2-0-10_clock_10_n02708093_5236.png
subject-04,1,735,0.718843936920166,bicycle,bicycle,4-0-10,0735_eid_s04_4-0-10_bicycle_10_n02835271_10932.png
subject-04,1,736,1.10846304893494,bear,bird,128-0-10,0736_eid_s04_128-0-10_bird_10_n02013706_1473.png
subject-04,1,737,0.832561016082764,car,cat,16-0-10,0737_eid_s04_16-0-10_cat_10_n02123597_6456.png
subject-04,1,738,0.876307010650635,bear,bird,128-0-10,0738_eid_s04_128-0-10_bird_10_n01843065_958.png
subject-04,1,739,0.820138931274414,boat,truck,64-0-10,0739_eid_s04_64-0-10_truck_10_n04467665_80465.png
subject-04,1,740,0.761854887008667,knife,knife,4-0-10,0740_eid_s04_4-0-10_knife_10_n03041632_11969.png
subject-04,1,741,0.807704210281372,keyboard,truck,128-0-10,0741_eid_s04_128-0-10_truck_10_n03417042_28773.png
subject-04,1,742,0.683385133743286,bear,dog,64-0-10,0742_eid_s04_64-0-10_dog_10_n02106662_4437.png
subject-04,1,743,0.823307991027832,truck,truck,2-0-10,0743_eid_s04_2-0-10_truck_10_n04467665_51267.png
subject-04,1,744,0.869102954864502,bear,bear,8-0-10,0744_eid_s04_8-0-10_bear_10_n02134084_2598.png
subject-04,1,745,0.77699613571167,bicycle,bicycle,8-0-10,0745_eid_s04_8-0-10_bicycle_10_n02835271_25268.png
subject-04,1,746,0.766742944717407,cat,bottle,64-0-10,0746_eid_s04_64-0-10_bottle_10_n02823428_12623.png
subject-04,1,747,0.906826972961426,oven,clock,64-0-10,0747_eid_s04_64-0-10_clock_10_n02708093_2943.png
subject-04,1,748,0.668396949768066,clock,clock,4-0-10,0748_eid_s04_4-0-10_clock_10_n04548280_5991.png
subject-04,1,749,0.744365215301514,keyboard,keyboard,4-0-10,0749_eid_s04_4-0-10_keyboard_10_n03085013_14764.png
subject-04,1,750,0.870036125183105,keyboard,car,128-0-10,0750_eid_s04_128-0-10_car_10_n04285008_3840.png
subject-04,1,751,0.703899145126343,bear,bear,2-0-10,0751_eid_s04_2-0-10_bear_10_n02134418_18850.png
subject-04,1,752,1.19552493095398,oven,car,16-0-10,0752_eid_s04_16-0-10_car_10_n03100240_5281.png
subject-04,1,753,0.715423107147217,bear,bear,1-0-10,0753_eid_s04_1-0-10_bear_10_n02132136_4632.png
subject-04,1,754,0.799397945404053,truck,truck,1-0-10,0754_eid_s04_1-0-10_truck_10_n03417042_8953.png
subject-04,1,755,1.38496804237366,knife,cat,4-0-10,0755_eid_s04_4-0-10_cat_10_n02123045_7294.png
subject-04,1,756,0.692858934402466,bear,truck,64-0-10,0756_eid_s04_64-0-10_truck_10_n03417042_26843.png
subject-04,1,757,0.724513053894043,oven,chair,4-0-10,0757_eid_s04_4-0-10_chair_10_n04099969_16619.png
subject-04,1,758,0.838405132293701,truck,truck,4-0-10,0758_eid_s04_4-0-10_truck_10_n04467665_41076.png
subject-04,1,759,0.870474100112915,dog,dog,8-0-10,0759_eid_s04_8-0-10_dog_10_n02102177_1533.png
subject-04,1,760,0.862226009368896,knife,knife,2-0-10,0760_eid_s04_2-0-10_knife_10_n03041632_90125.png
subject-04,1,761,1.04590606689453,elephant,bicycle,16-0-10,0761_eid_s04_16-0-10_bicycle_10_n03792782_11995.png
subject-04,1,762,0.861848115921021,boat,keyboard,32-0-10,0762_eid_s04_32-0-10_keyboard_10_n04505470_10596.png
subject-04,1,763,0.907463073730469,boat,boat,16-0-10,0763_eid_s04_16-0-10_boat_10_n03344393_6492.png
subject-04,1,764,0.827311038970947,bear,bicycle,16-0-10,0764_eid_s04_16-0-10_bicycle_10_n03792782_4895.png
subject-04,1,765,0.989373922348022,truck,keyboard,1-0-10,0765_eid_s04_1-0-10_keyboard_10_n03085013_20416.png
subject-04,1,766,1.17691683769226,car,truck,8-0-10,0766_eid_s04_8-0-10_truck_10_n03417042_16370.png
subject-04,1,767,1.18891191482544,bear,dog,64-0-10,0767_eid_s04_64-0-10_dog_10_n02097130_3519.png
subject-04,1,768,1.14658808708191,knife,bicycle,32-0-10,0768_eid_s04_32-0-10_bicycle_10_n02835271_6563.png
subject-04,1,769,0.690526962280273,bear,dog,64-0-10,0769_eid_s04_64-0-10_dog_10_n02106030_17418.png
subject-04,1,770,1.01814913749695,bird,oven,4-0-10,0770_eid_s04_4-0-10_oven_10_n04111531_5801.png
subject-04,1,771,1.01005983352661,bear,keyboard,64-0-10,0771_eid_s04_64-0-10_keyboard_10_n04505470_4660.png
subject-04,1,772,0.695859909057617,cat,oven,128-0-10,0772_eid_s04_128-0-10_oven_10_n04111531_17045.png
subject-04,1,773,0.611608028411865,clock,clock,4-0-10,0773_eid_s04_4-0-10_clock_10_n04548280_4526.png
subject-04,1,774,0.73349404335022,boat,airplane,128-0-10,0774_eid_s04_128-0-10_airplane_10_n02690373_1670.png
subject-04,1,775,0.671313047409058,bicycle,bicycle,1-0-10,0775_eid_s04_1-0-10_bicycle_10_n02835271_2050.png
subject-04,1,776,0.707350969314575,bear,chair,16-0-10,0776_eid_s04_16-0-10_chair_10_n02791124_6505.png
subject-04,1,777,1.04115796089172,bird,bird,32-0-10,0777_eid_s04_32-0-10_bird_10_n02051845_34393.png
subject-04,1,778,0.868582010269165,bear,elephant,16-0-10,0778_eid_s04_16-0-10_elephant_10_n02504458_2054.png
subject-04,1,779,1.04446792602539,dog,cat,1-0-10,0779_eid_s04_1-0-10_cat_10_n02123394_8695.png
subject-04,1,780,0.832466840744019,boat,boat,1-0-10,0780_eid_s04_1-0-10_boat_10_n03344393_1017.png
subject-04,1,781,0.682303905487061,keyboard,keyboard,2-0-10,0781_eid_s04_2-0-10_keyboard_10_n04505470_3531.png
subject-04,1,782,0.819960117340088,oven,clock,128-0-10,0782_eid_s04_128-0-10_clock_10_n04548280_3614.png
subject-04,1,783,0.755887985229492,elephant,elephant,1-0-10,0783_eid_s04_1-0-10_elephant_10_n02504458_4248.png
subject-04,1,784,0.863923788070679,bear,cat,8-0-10,0784_eid_s04_8-0-10_cat_10_n02123597_10199.png
subject-04,1,785,0.783463954925537,truck,truck,4-0-10,0785_eid_s04_4-0-10_truck_10_n03796401_1791.png
subject-04,1,786,0.883307218551636,cat,bird,32-0-10,0786_eid_s04_32-0-10_bird_10_n02028035_2219.png
subject-04,1,787,0.929131031036377,bottle,boat,8-0-10,0787_eid_s04_8-0-10_boat_10_n03344393_3535.png
subject-04,1,788,0.795072078704834,cat,bird,16-0-10,0788_eid_s04_16-0-10_bird_10_n01855032_8095.png
subject-04,1,789,0.75068998336792,keyboard,keyboard,8-0-10,0789_eid_s04_8-0-10_keyboard_10_n04505470_4776.png
subject-04,1,790,0.740595102310181,knife,knife,4-0-10,0790_eid_s04_4-0-10_knife_10_n03041632_29580.png
subject-04,1,791,0.708256006240845,bear,clock,32-0-10,0791_eid_s04_32-0-10_clock_10_n04548280_2260.png
subject-04,1,792,0.598140954971313,clock,clock,2-0-10,0792_eid_s04_2-0-10_clock_10_n03196217_300.png
subject-04,1,793,0.815970897674561,bottle,knife,32-0-10,0793_eid_s04_32-0-10_knife_10_n03041632_27879.png
subject-04,1,794,1.03417611122131,truck,chair,8-0-10,0794_eid_s04_8-0-10_chair_10_n03376595_6589.png
subject-04,1,795,0.901391983032227,clock,elephant,32-0-10,0795_eid_s04_32-0-10_elephant_10_n02504013_5678.png
subject-04,1,796,0.689527034759521,clock,clock,4-0-10,0796_eid_s04_4-0-10_clock_10_n04548280_4557.png
subject-04,1,797,0.735083103179932,knife,knife,4-0-10,0797_eid_s04_4-0-10_knife_10_n03041632_12748.png
subject-04,1,798,0.749205112457275,keyboard,car,128-0-10,0798_eid_s04_128-0-10_car_10_n02814533_64988.png
subject-04,1,799,0.926766157150269,knife,oven,2-0-10,0799_eid_s04_2-0-10_oven_10_n04111531_14913.png
subject-04,1,800,1.05088806152344,oven,elephant,64-0-10,0800_eid_s04_64-0-10_elephant_10_n02504013_13427.png
subject-04,1,801,0.88800311088562,bear,bear,4-0-10,0801_eid_s04_4-0-10_bear_10_n02134418_6030.png
subject-04,1,802,1.02770495414734,bear,bird,8-0-10,0802_eid_s04_8-0-10_bird_10_n01817953_1734.png
subject-04,1,803,0.98771595954895,keyboard,chair,1-0-10,0803_eid_s04_1-0-10_chair_10_n03376595_10149.png
subject-04,1,804,0.67137598991394,cat,bicycle,32-0-10,0804_eid_s04_32-0-10_bicycle_10_n03792782_5517.png
subject-04,1,805,0.795105934143066,keyboard,oven,64-0-10,0805_eid_s04_64-0-10_oven_10_n04111531_136.png
subject-04,1,806,0.604850053787231,boat,boat,4-0-10,0806_eid_s04_4-0-10_boat_10_n02951358_2330.png
subject-04,1,807,1.16863894462585,knife,oven,2-0-10,0807_eid_s04_2-0-10_oven_10_n04111531_21869.png
subject-04,1,808,0.656584024429321,car,car,8-0-10,0808_eid_s04_8-0-10_car_10_n04285008_8545.png
subject-04,1,809,0.998441934585571,keyboard,keyboard,8-0-10,0809_eid_s04_8-0-10_keyboard_10_n03085013_17035.png
subject-04,1,810,0.708310127258301,bear,keyboard,32-0-10,0810_eid_s04_32-0-10_keyboard_10_n04505470_4922.png
subject-04,1,811,0.806079149246216,car,bear,64-0-10,0811_eid_s04_64-0-10_bear_10_n02134418_1307.png
subject-04,1,812,0.789933919906616,bear,dog,32-0-10,0812_eid_s04_32-0-10_dog_10_n02113624_2109.png
subject-04,1,813,0.727789878845215,cat,airplane,64-0-10,0813_eid_s04_64-0-10_airplane_10_n02690373_10012.png
subject-04,1,814,1.1795539855957,elephant,oven,1-0-10,0814_eid_s04_1-0-10_oven_10_n04111531_4250.png
subject-04,1,815,0.981367826461792,keyboard,keyboard,128-0-10,0815_eid_s04_128-0-10_keyboard_10_n03085013_23943.png
subject-04,1,816,0.729233026504517,boat,keyboard,32-0-10,0816_eid_s04_32-0-10_keyboard_10_n04505470_2326.png
subject-04,1,817,0.844985961914062,bear,bottle,32-0-10,0817_eid_s04_32-0-10_bottle_10_n04591713_5921.png
subject-04,1,818,1.17268896102905,dog,elephant,16-0-10,0818_eid_s04_16-0-10_elephant_10_n02504013_3857.png
subject-04,1,819,0.938568115234375,knife,knife,1-0-10,0819_eid_s04_1-0-10_knife_10_n03041632_56454.png
subject-04,1,820,0.984307050704956,airplane,truck,16-0-10,0820_eid_s04_16-0-10_truck_10_n04467665_1009.png
subject-04,1,821,0.80213189125061,bottle,bottle,1-0-10,0821_eid_s04_1-0-10_bottle_10_n04591713_956.png
subject-04,1,822,0.714096069335938,bear,bear,32-0-10,0822_eid_s04_32-0-10_bear_10_n02132136_8516.png
subject-04,1,823,1.19575691223145,truck,oven,2-0-10,0823_eid_s04_2-0-10_oven_10_n04111531_13560.png
subject-04,1,824,0.845902919769287,bottle,bottle,1-0-10,0824_eid_s04_1-0-10_bottle_10_n04560804_6112.png
subject-04,1,825,0.713495969772339,cat,cat,4-0-10,0825_eid_s04_4-0-10_cat_10_n02124075_13568.png
subject-04,1,826,0.743243217468262,truck,truck,1-0-10,0826_eid_s04_1-0-10_truck_10_n04467665_49282.png
subject-04,1,827,0.707424163818359,boat,boat,32-0-10,0827_eid_s04_32-0-10_boat_10_n03344393_5599.png
subject-04,1,828,0.878753185272217,bear,keyboard,32-0-10,0828_eid_s04_32-0-10_keyboard_10_n03085013_22027.png
subject-04,1,829,0.938673973083496,bicycle,bicycle,1-0-10,0829_eid_s04_1-0-10_bicycle_10_n03792782_9692.png
subject-04,1,830,0.80242395401001,truck,chair,2-0-10,0830_eid_s04_2-0-10_chair_10_n02791124_7063.png
subject-04,1,831,0.752248048782349,elephant,elephant,1-0-10,0831_eid_s04_1-0-10_elephant_10_n02504458_3628.png
subject-04,1,832,1.09608316421509,elephant,elephant,8-0-10,0832_eid_s04_8-0-10_elephant_10_n02504013_1986.png
subject-04,1,833,0.913744926452637,airplane,airplane,16-0-10,0833_eid_s04_16-0-10_airplane_10_n02690373_17044.png
subject-04,1,834,0.927858829498291,bird,bear,64-0-10,0834_eid_s04_64-0-10_bear_10_n02132136_699.png
subject-04,1,835,0.78985595703125,keyboard,cat,128-0-10,0835_eid_s04_128-0-10_cat_10_n02123394_8946.png
subject-04,1,836,0.747483015060425,bicycle,bicycle,2-0-10,0836_eid_s04_2-0-10_bicycle_10_n03792782_42626.png
subject-04,1,837,0.7831871509552,boat,clock,16-0-10,0837_eid_s04_16-0-10_clock_10_n03196217_5888.png
subject-04,1,838,0.85306191444397,keyboard,clock,8-0-10,0838_eid_s04_8-0-10_clock_10_n03196217_6257.png
subject-04,1,839,1.07910799980164,keyboard,oven,2-0-10,0839_eid_s04_2-0-10_oven_10_n04111531_10476.png
subject-04,1,840,0.696590900421143,cat,bicycle,128-0-10,0840_eid_s04_128-0-10_bicycle_10_n02835271_25033.png
subject-04,1,841,0.700596809387207,bear,knife,32-0-10,0841_eid_s04_32-0-10_knife_10_n03041632_41493.png
subject-04,1,842,0.696166038513184,boat,airplane,32-0-10,0842_eid_s04_32-0-10_airplane_10_n02690373_9335.png
subject-04,1,843,0.881949901580811,keyboard,bird,128-0-10,0843_eid_s04_128-0-10_bird_10_n01855032_8576.png
subject-04,1,844,0.919914960861206,clock,oven,1-0-10,0844_eid_s04_1-0-10_oven_10_n04111531_5357.png
subject-04,1,845,0.997781991958618,car,oven,8-0-10,0845_eid_s04_8-0-10_oven_10_n04111531_23340.png
subject-04,1,846,0.935409784317017,bottle,boat,16-0-10,0846_eid_s04_16-0-10_boat_10_n04612504_550.png
subject-04,1,847,0.685287237167358,boat,boat,2-0-10,0847_eid_s04_2-0-10_boat_10_n04612504_3152.png
subject-04,1,848,0.845103025436401,clock,knife,2-0-10,0848_eid_s04_2-0-10_knife_10_n03041632_13424.png
subject-04,1,849,0.750952005386353,bear,bottle,16-0-10,0849_eid_s04_16-0-10_bottle_10_n03983396_3109.png
subject-04,1,850,0.636905908584595,clock,clock,1-0-10,0850_eid_s04_1-0-10_clock_10_n02708093_274.png
subject-04,1,851,0.790408134460449,car,clock,16-0-10,0851_eid_s04_16-0-10_clock_10_n03196217_1601.png
subject-04,1,852,0.772333145141602,boat,dog,16-0-10,0852_eid_s04_16-0-10_dog_10_n02085936_4491.png
subject-04,1,853,0.802267074584961,keyboard,keyboard,128-0-10,0853_eid_s04_128-0-10_keyboard_10_n04505470_4289.png
subject-04,1,854,0.738181829452515,boat,boat,8-0-10,0854_eid_s04_8-0-10_boat_10_n02951358_13144.png
subject-04,1,855,0.665978193283081,chair,chair,4-0-10,0855_eid_s04_4-0-10_chair_10_n04099969_3161.png
subject-04,1,856,0.719595909118652,cat,cat,16-0-10,0856_eid_s04_16-0-10_cat_10_n02123045_6514.png
subject-04,1,857,0.74934196472168,keyboard,keyboard,2-0-10,0857_eid_s04_2-0-10_keyboard_10_n03085013_28083.png
subject-04,1,858,0.811336994171143,keyboard,bird,128-0-10,0858_eid_s04_128-0-10_bird_10_n01855672_8041.png
subject-04,1,859,0.771183967590332,keyboard,chair,128-0-10,0859_eid_s04_128-0-10_chair_10_n03376595_9079.png
subject-04,1,860,1.19065999984741,airplane,bicycle,16-0-10,0860_eid_s04_16-0-10_bicycle_10_n02835271_14966.png
subject-04,1,861,1.04062604904175,bear,clock,32-0-10,0861_eid_s04_32-0-10_clock_10_n02708093_6982.png
subject-04,1,862,0.772613048553467,cat,chair,64-0-10,0862_eid_s04_64-0-10_chair_10_n03376595_989.png
subject-04,1,863,0.794291973114014,bottle,clock,64-0-10,0863_eid_s04_64-0-10_clock_10_n04548280_1893.png
subject-04,1,864,0.886063098907471,bear,bicycle,16-0-10,0864_eid_s04_16-0-10_bicycle_10_n03792782_10876.png
subject-04,1,865,0.733972072601318,knife,knife,2-0-10,0865_eid_s04_2-0-10_knife_10_n03041632_54191.png
subject-04,1,866,0.80779504776001,bottle,bottle,4-0-10,0866_eid_s04_4-0-10_bottle_10_n02823428_2754.png
subject-04,1,867,0.883630990982056,keyboard,boat,64-0-10,0867_eid_s04_64-0-10_boat_10_n02951358_7603.png
subject-04,1,868,0.897326946258545,dog,cat,1-0-10,0868_eid_s04_1-0-10_cat_10_n02123597_3398.png
subject-04,1,869,0.84906005859375,bear,boat,32-0-10,0869_eid_s04_32-0-10_boat_10_n03662601_8650.png
subject-04,1,870,0.77889609336853,elephant,elephant,4-0-10,0870_eid_s04_4-0-10_elephant_10_n02504013_8562.png
subject-04,1,871,1.16085696220398,dog,cat,4-0-10,0871_eid_s04_4-0-10_cat_10_n02125311_25749.png
subject-04,1,872,0.804549932479858,bicycle,oven,8-0-10,0872_eid_s04_8-0-10_oven_10_n04111531_10420.png
subject-04,1,873,1.08640885353088,knife,car,16-0-10,0873_eid_s04_16-0-10_car_10_n03100240_24544.png
subject-04,1,874,0.900279998779297,car,bird,64-0-10,0874_eid_s04_64-0-10_bird_10_n02018207_12980.png
subject-04,1,875,0.924333095550537,cat,keyboard,128-0-10,0875_eid_s04_128-0-10_keyboard_10_n04505470_713.png
subject-04,1,876,0.711851119995117,chair,chair,2-0-10,0876_eid_s04_2-0-10_chair_10_n03376595_3462.png
subject-04,1,877,0.717753887176514,keyboard,boat,128-0-10,0877_eid_s04_128-0-10_boat_10_n04612504_1889.png
subject-04,1,878,0.795496940612793,car,chair,16-0-10,0878_eid_s04_16-0-10_chair_10_n02791124_957.png
subject-04,1,879,1.27938008308411,cat,cat,8-0-10,0879_eid_s04_8-0-10_cat_10_n02123394_1726.png
subject-04,1,880,0.925081014633179,dog,elephant,8-0-10,0880_eid_s04_8-0-10_elephant_10_n02504458_3953.png
subject-04,1,881,0.700196027755737,keyboard,airplane,128-0-10,0881_eid_s04_128-0-10_airplane_10_n02690373_6807.png
subject-04,1,882,0.907870054244995,elephant,elephant,1-0-10,0882_eid_s04_1-0-10_elephant_10_n02504458_415.png
subject-04,1,883,0.954103946685791,knife,knife,4-0-10,0883_eid_s04_4-0-10_knife_10_n03041632_32054.png
subject-04,1,884,1.50014495849609,knife,bicycle,8-0-10,0884_eid_s04_8-0-10_bicycle_10_n02835271_42981.png
subject-04,1,885,0.759291172027588,bear,truck,64-0-10,0885_eid_s04_64-0-10_truck_10_n03796401_1458.png
subject-04,1,886,0.579179048538208,airplane,airplane,8-0-10,0886_eid_s04_8-0-10_airplane_10_n02690373_7293.png
subject-04,1,887,0.693002939224243,keyboard,knife,64-0-10,0887_eid_s04_64-0-10_knife_10_n03041632_29862.png
subject-04,1,888,0.85680103302002,bear,cat,8-0-10,0888_eid_s04_8-0-10_cat_10_n02123045_8751.png
subject-04,1,889,0.760444164276123,bear,knife,16-0-10,0889_eid_s04_16-0-10_knife_10_n03041632_43625.png
subject-04,1,890,0.774771928787231,car,car,4-0-10,0890_eid_s04_4-0-10_car_10_n03100240_5570.png
subject-04,1,891,0.726191997528076,keyboard,airplane,64-0-10,0891_eid_s04_64-0-10_airplane_10_n02690373_3840.png
subject-04,1,892,0.904057025909424,dog,oven,64-0-10,0892_eid_s04_64-0-10_oven_10_n04111531_15317.png
subject-04,1,893,0.70582389831543,boat,airplane,64-0-10,0893_eid_s04_64-0-10_airplane_10_n02690373_16250.png
subject-04,1,894,0.681610107421875,clock,clock,1-0-10,0894_eid_s04_1-0-10_clock_10_n02708093_4267.png
subject-04,1,895,0.639535903930664,bicycle,bicycle,1-0-10,0895_eid_s04_1-0-10_bicycle_10_n03792782_12074.png
subject-04,1,896,0.875331163406372,car,truck,16-0-10,0896_eid_s04_16-0-10_truck_10_n03417042_910.png
subject-04,1,897,0.8352210521698,bear,oven,32-0-10,0897_eid_s04_32-0-10_oven_10_n04111531_4392.png
subject-04,1,898,0.747036218643188,keyboard,keyboard,4-0-10,0898_eid_s04_4-0-10_keyboard_10_n03085013_20302.png
subject-04,1,899,1.20069003105164,dog,boat,32-0-10,0899_eid_s04_32-0-10_boat_10_n02951358_15087.png
subject-04,1,900,0.736401081085205,cat,knife,16-0-10,0900_eid_s04_16-0-10_knife_10_n03041632_102828.png
subject-04,1,901,0.772289037704468,bear,knife,64-0-10,0901_eid_s04_64-0-10_knife_10_n03041632_1407.png
subject-04,1,902,0.904068946838379,bear,bear,2-0-10,0902_eid_s04_2-0-10_bear_10_n02133161_9724.png
subject-04,1,903,0.83200216293335,airplane,airplane,1-0-10,0903_eid_s04_1-0-10_airplane_10_n02690373_8592.png
subject-04,1,904,0.751667976379395,cat,airplane,128-0-10,0904_eid_s04_128-0-10_airplane_10_n02690373_2867.png
subject-04,1,905,1.22775506973267,dog,bird,4-0-10,0905_eid_s04_4-0-10_bird_10_n02033041_7196.png
subject-04,1,906,1.42949795722961,chair,chair,4-0-10,0906_eid_s04_4-0-10_chair_10_n04429376_33792.png
subject-04,1,907,0.951356887817383,bear,chair,64-0-10,0907_eid_s04_64-0-10_chair_10_n04429376_29954.png
subject-04,1,908,0.918991088867188,bear,bear,2-0-10,0908_eid_s04_2-0-10_bear_10_n02132136_2372.png
subject-04,1,909,0.68273401260376,keyboard,oven,128-0-10,0909_eid_s04_128-0-10_oven_10_n04111531_12450.png
subject-04,1,910,0.754826068878174,cat,clock,64-0-10,0910_eid_s04_64-0-10_clock_10_n02708093_6816.png
subject-04,1,911,0.70450496673584,bear,bear,8-0-10,0911_eid_s04_8-0-10_bear_10_n02134084_14992.png
subject-04,1,912,0.67828106880188,airplane,boat,4-0-10,0912_eid_s04_4-0-10_boat_10_n03344393_3824.png
subject-04,1,913,0.780120849609375,bear,bird,16-0-10,0913_eid_s04_16-0-10_bird_10_n02037110_875.png
subject-04,1,914,1.24013018608093,bird,bird,4-0-10,0914_eid_s04_4-0-10_bird_10_n01796340_4181.png
subject-04,1,915,0.864160060882568,bird,bird,8-0-10,0915_eid_s04_8-0-10_bird_10_n01855032_14659.png
subject-04,1,916,0.803821802139282,bear,chair,32-0-10,0916_eid_s04_32-0-10_chair_10_n03376595_9395.png
subject-04,1,917,1.00558185577393,dog,oven,64-0-10,0917_eid_s04_64-0-10_oven_10_n04111531_769.png
subject-04,1,918,0.809085130691528,bear,dog,32-0-10,0918_eid_s04_32-0-10_dog_10_n02097209_8270.png
subject-04,1,919,1.20288395881653,oven,chair,16-0-10,0919_eid_s04_16-0-10_chair_10_n04099969_28139.png
subject-04,1,920,0.746623039245605,boat,airplane,64-0-10,0920_eid_s04_64-0-10_airplane_10_n02690373_4134.png
subject-04,1,921,0.854574918746948,keyboard,car,64-0-10,0921_eid_s04_64-0-10_car_10_n04285008_9811.png
subject-04,1,922,0.84631085395813,bear,truck,64-0-10,0922_eid_s04_64-0-10_truck_10_n04467665_43222.png
subject-04,1,923,0.884799003601074,car,cat,128-0-10,0923_eid_s04_128-0-10_cat_10_n02123045_7812.png
subject-04,1,924,0.74213695526123,elephant,elephant,2-0-10,0924_eid_s04_2-0-10_elephant_10_n02504013_1708.png
subject-04,1,925,0.903838157653809,bear,airplane,8-0-10,0925_eid_s04_8-0-10_airplane_10_n02690373_7311.png
subject-04,1,926,0.723636150360107,dog,dog,2-0-10,0926_eid_s04_2-0-10_dog_10_n02089973_7552.png
subject-04,1,927,1.09544920921326,bottle,bottle,8-0-10,0927_eid_s04_8-0-10_bottle_10_n02823428_1153.png
subject-04,1,928,0.781464815139771,car,car,1-0-10,0928_eid_s04_1-0-10_car_10_n03100240_13410.png
subject-04,1,929,0.821256875991821,bicycle,cat,64-0-10,0929_eid_s04_64-0-10_cat_10_n02123394_1828.png
subject-04,1,930,0.806951999664307,bear,bird,16-0-10,0930_eid_s04_16-0-10_bird_10_n02017213_6104.png
subject-04,1,931,0.814736843109131,bear,chair,64-0-10,0931_eid_s04_64-0-10_chair_10_n04429376_17336.png
subject-04,1,932,0.816519975662231,elephant,bird,32-0-10,0932_eid_s04_32-0-10_bird_10_n01843383_91.png
subject-04,1,933,0.758655071258545,bottle,bottle,2-0-10,0933_eid_s04_2-0-10_bottle_10_n04591713_2123.png
subject-04,1,934,0.828290939331055,knife,knife,8-0-10,0934_eid_s04_8-0-10_knife_10_n03041632_38540.png
subject-04,1,935,0.748009920120239,bear,bird,64-0-10,0935_eid_s04_64-0-10_bird_10_n01843383_6887.png
subject-04,1,936,0.791880130767822,dog,cat,32-0-10,0936_eid_s04_32-0-10_cat_10_n02125311_14714.png
subject-04,1,937,0.735705852508545,keyboard,keyboard,128-0-10,0937_eid_s04_128-0-10_keyboard_10_n04505470_3905.png
subject-04,1,938,1.44741702079773,bear,dog,4-0-10,0938_eid_s04_4-0-10_dog_10_n02086910_8694.png
subject-04,1,939,0.723128080368042,airplane,airplane,4-0-10,0939_eid_s04_4-0-10_airplane_10_n02690373_5164.png
subject-04,1,940,0.762992858886719,knife,knife,2-0-10,0940_eid_s04_2-0-10_knife_10_n03041632_84240.png
subject-04,1,941,0.768828153610229,truck,truck,2-0-10,0941_eid_s04_2-0-10_truck_10_n04467665_41352.png
subject-04,1,942,0.743046998977661,elephant,elephant,2-0-10,0942_eid_s04_2-0-10_elephant_10_n02504458_5095.png
subject-04,1,943,0.774858951568604,bear,bear,64-0-10,0943_eid_s04_64-0-10_bear_10_n02132136_949.png
subject-04,1,944,0.912312030792236,bear,cat,32-0-10,0944_eid_s04_32-0-10_cat_10_n02123394_1879.png
subject-04,1,945,0.72012996673584,car,car,2-0-10,0945_eid_s04_2-0-10_car_10_n02814533_41478.png
subject-04,1,946,1.00999712944031,car,truck,8-0-10,0946_eid_s04_8-0-10_truck_10_n03417042_18743.png
subject-04,1,947,0.827893018722534,bicycle,boat,64-0-10,0947_eid_s04_64-0-10_boat_10_n04273569_1141.png
subject-04,1,948,0.951489925384521,knife,boat,16-0-10,0948_eid_s04_16-0-10_boat_10_n04273569_3896.png
subject-04,1,949,1.11337208747864,bottle,knife,16-0-10,0949_eid_s04_16-0-10_knife_10_n03041632_27134.png
subject-04,1,950,0.759135961532593,bicycle,knife,128-0-10,0950_eid_s04_128-0-10_knife_10_n03041632_22738.png
subject-04,1,951,0.869262933731079,cat,clock,64-0-10,0951_eid_s04_64-0-10_clock_10_n04548280_1324.png
subject-04,1,952,1.32063698768616,knife,oven,16-0-10,0952_eid_s04_16-0-10_oven_10_n04111531_4346.png
subject-04,1,953,0.746665954589844,oven,knife,32-0-10,0953_eid_s04_32-0-10_knife_10_n03041632_18141.png
subject-04,1,954,0.986675024032593,elephant,dog,4-0-10,0954_eid_s04_4-0-10_dog_10_n02097130_1442.png
subject-04,1,955,1.06232190132141,boat,car,128-0-10,0955_eid_s04_128-0-10_car_10_n02814533_23512.png
subject-04,1,956,0.771952867507935,keyboard,airplane,128-0-10,0956_eid_s04_128-0-10_airplane_10_n02690373_9293.png
subject-04,1,957,0.8958740234375,keyboard,chair,128-0-10,0957_eid_s04_128-0-10_chair_10_n02791124_1482.png
subject-04,1,958,0.799776077270508,boat,boat,16-0-10,0958_eid_s04_16-0-10_boat_10_n03662601_5104.png
subject-04,1,959,0.727500915527344,boat,truck,128-0-10,0959_eid_s04_128-0-10_truck_10_n04467665_80153.png
subject-04,1,960,0.797508955001831,bear,bird,32-0-10,0960_eid_s04_32-0-10_bird_10_n01796340_24254.png
subject-04,1,961,1.08210897445679,bear,bicycle,8-0-10,0961_eid_s04_8-0-10_bicycle_10_n03792782_126.png
subject-04,1,962,0.815871000289917,car,truck,16-0-10,0962_eid_s04_16-0-10_truck_10_n03417042_12328.png
subject-04,1,963,0.665570020675659,car,car,1-0-10,0963_eid_s04_1-0-10_car_10_n04285008_3015.png
subject-04,1,964,0.757517099380493,elephant,elephant,2-0-10,0964_eid_s04_2-0-10_elephant_10_n02504458_37.png
subject-04,1,965,1.22922587394714,bottle,dog,8-0-10,0965_eid_s04_8-0-10_dog_10_n02106382_3856.png
subject-04,1,966,0.823029041290283,bicycle,bicycle,128-0-10,0966_eid_s04_128-0-10_bicycle_10_n02835271_3298.png
