subj,Session,trial,rt,object_response,category,condition,imagename
subject-02,1,1,1.07026100158691,car,car,8-0-10,0001_eid_s02_8-0-10_car_10_n04285008_13958.png
subject-02,1,2,1.06820106506348,bird,bicycle,128-0-10,0002_eid_s02_128-0-10_bicycle_10_n02835271_4726.png
subject-02,1,3,0.84987998008728,car,car,1-0-10,0003_eid_s02_1-0-10_car_10_n03100240_9171.png
subject-02,1,4,1.17575597763062,dog,bear,2-0-10,0004_eid_s02_2-0-10_bear_10_n02134418_18850.png
subject-02,1,5,0.923418998718262,car,car,2-0-10,0005_eid_s02_2-0-10_car_10_n02814533_211.png
subject-02,1,6,1.01134490966797,elephant,elephant,4-0-10,0006_eid_s02_4-0-10_elephant_10_n02504013_8562.png
subject-02,1,7,0.845381021499634,cat,bottle,32-0-10,0007_eid_s02_32-0-10_bottle_10_n04591713_4865.png
subject-02,1,8,1.02335715293884,bird,bird,2-0-10,0008_eid_s02_2-0-10_bird_10_n01795545_15255.png
subject-02,1,9,0.864768981933594,cat,clock,64-0-10,0009_eid_s02_64-0-10_clock_10_n04548280_1324.png
subject-02,1,10,0.948349952697754,cat,oven,128-0-10,0010_eid_s02_128-0-10_oven_10_n04111531_17045.png
subject-02,1,11,1.01632881164551,boat,airplane,64-0-10,0011_eid_s02_64-0-10_airplane_10_n02690373_16250.png
subject-02,1,12,1.2860209941864,boat,car,32-0-10,0012_eid_s02_32-0-10_car_10_n03100240_21737.png
subject-02,1,13,0.945949077606201,bear,bear,1-0-10,0013_eid_s02_1-0-10_bear_10_n02134418_2545.png
subject-02,1,14,0.847879886627197,cat,airplane,128-0-10,0014_eid_s02_128-0-10_airplane_10_n02690373_5141.png
subject-02,1,15,0.881713151931763,boat,bird,4-0-10,0015_eid_s02_4-0-10_bird_10_n02028035_32557.png
subject-02,1,16,0.879864931106567,cat,car,16-0-10,0016_eid_s02_16-0-10_car_10_n02814533_28371.png
subject-02,1,17,0.805407047271729,cat,keyboard,32-0-10,0017_eid_s02_32-0-10_keyboard_10_n04505470_2326.png
subject-02,1,18,0.639053106307983,cat,keyboard,64-0-10,0018_eid_s02_64-0-10_keyboard_10_n04505470_4660.png
subject-02,1,19,0.988803148269653,bear,car,64-0-10,0019_eid_s02_64-0-10_car_10_n02814533_14484.png
subject-02,1,20,0.83055591583252,boat,keyboard,128-0-10,0020_eid_s02_128-0-10_keyboard_10_n04505470_659.png
subject-02,1,21,0.92043399810791,cat,bear,16-0-10,0021_eid_s02_16-0-10_bear_10_n02132136_2765.png
subject-02,1,22,1.10037589073181,dog,car,64-0-10,0022_eid_s02_64-0-10_car_10_n04285008_12580.png
subject-02,1,23,0.792465925216675,boat,dog,128-0-10,0023_eid_s02_128-0-10_dog_10_n02093991_196.png
subject-02,1,24,0.904000997543335,airplane,airplane,8-0-10,0024_eid_s02_8-0-10_airplane_10_n02690373_7293.png
subject-02,1,25,1.0976710319519,keyboard,knife,1-0-10,0025_eid_s02_1-0-10_knife_10_n03041632_56436.png
subject-02,1,26,0.731497049331665,boat,boat,1-0-10,0026_eid_s02_1-0-10_boat_10_n02951358_30458.png
subject-02,1,27,0.98177695274353,truck,truck,4-0-10,0027_eid_s02_4-0-10_truck_10_n03417042_14574.png
subject-02,1,28,1.11953806877136,cat,knife,128-0-10,0028_eid_s02_128-0-10_knife_10_n03041632_33584.png
subject-02,1,29,1.24107718467712,elephant,chair,16-0-10,0029_eid_s02_16-0-10_chair_10_n02791124_9162.png
subject-02,1,30,0.938766002655029,bear,knife,64-0-10,0030_eid_s02_64-0-10_knife_10_n03041632_29862.png
subject-02,1,31,0.928546190261841,bear,bird,128-0-10,0031_eid_s02_128-0-10_bird_10_n01843065_958.png
subject-02,1,32,1.34073901176453,boat,elephant,16-0-10,0032_eid_s02_16-0-10_elephant_10_n02504458_5155.png
subject-02,1,33,0.770205020904541,cat,cat,64-0-10,0033_eid_s02_64-0-10_cat_10_n02125311_2576.png
subject-02,1,34,1.0320680141449,bird,cat,16-0-10,0034_eid_s02_16-0-10_cat_10_n02123045_6514.png
subject-02,1,35,0.936208009719849,airplane,airplane,4-0-10,0035_eid_s02_4-0-10_airplane_10_n02690373_4061.png
subject-02,1,36,1.08970403671265,dog,bicycle,32-0-10,0036_eid_s02_32-0-10_bicycle_10_n02835271_3535.png
subject-02,1,37,0.907383918762207,bird,bird,32-0-10,0037_eid_s02_32-0-10_bird_10_n02051845_34393.png
subject-02,1,38,0.913242101669312,dog,bird,64-0-10,0038_eid_s02_64-0-10_bird_10_n01843383_6887.png
subject-02,1,39,0.737118005752563,cat,elephant,128-0-10,0039_eid_s02_128-0-10_elephant_10_n02504013_6903.png
subject-02,1,40,0.880919933319092,bottle,bird,128-0-10,0040_eid_s02_128-0-10_bird_10_n02013706_1473.png
subject-02,1,41,0.830778121948242,cat,elephant,8-0-10,0041_eid_s02_8-0-10_elephant_10_n02504013_23154.png
subject-02,1,42,0.906718969345093,bear,bear,4-0-10,0042_eid_s02_4-0-10_bear_10_n02134084_7079.png
subject-02,1,43,1.30427503585815,knife,oven,8-0-10,0043_eid_s02_8-0-10_oven_10_n04111531_23340.png
subject-02,1,44,0.658579111099243,boat,boat,1-0-10,0044_eid_s02_1-0-10_boat_10_n02951358_9323.png
subject-02,1,45,0.912208080291748,keyboard,keyboard,4-0-10,0045_eid_s02_4-0-10_keyboard_10_n04505470_3306.png
subject-02,1,46,0.923686027526855,cat,boat,64-0-10,0046_eid_s02_64-0-10_boat_10_n02951358_23759.png
subject-02,1,47,1.38953614234924,truck,bottle,32-0-10,0047_eid_s02_32-0-10_bottle_10_n03937543_3298.png
subject-02,1,48,1.17531681060791,bottle,bear,128-0-10,0048_eid_s02_128-0-10_bear_10_n02134418_896.png
subject-02,1,49,0.869372129440308,bear,bear,4-0-10,0049_eid_s02_4-0-10_bear_10_n02133161_334.png
subject-02,1,50,1.38717913627625,boat,bottle,16-0-10,0050_eid_s02_16-0-10_bottle_10_n04560804_30659.png
subject-02,1,51,1.03096485137939,dog,elephant,8-0-10,0051_eid_s02_8-0-10_elephant_10_n02504013_2438.png
subject-02,1,52,1.36479306221008,boat,airplane,16-0-10,0052_eid_s02_16-0-10_airplane_10_n02690373_1426.png
subject-02,1,53,0.916561841964722,clock,clock,4-0-10,0053_eid_s02_4-0-10_clock_10_n04548280_4526.png
subject-02,1,54,0.792451858520508,bottle,bottle,2-0-10,0054_eid_s02_2-0-10_bottle_10_n04591713_5406.png
subject-02,1,55,0.726162910461426,oven,oven,1-0-10,0055_eid_s02_1-0-10_oven_10_n04111531_687.png
subject-02,1,56,0.753808975219727,cat,knife,8-0-10,0056_eid_s02_8-0-10_knife_10_n03041632_3063.png
subject-02,1,57,0.633575916290283,cat,cat,4-0-10,0057_eid_s02_4-0-10_cat_10_n02123394_1259.png
subject-02,1,58,1.20555782318115,chair,dog,4-0-10,0058_eid_s02_4-0-10_dog_10_n02093991_141.png
subject-02,1,59,0.927470207214355,knife,knife,1-0-10,0059_eid_s02_1-0-10_knife_10_n03041632_44230.png
subject-02,1,60,0.885262966156006,oven,chair,2-0-10,0060_eid_s02_2-0-10_chair_10_n02791124_17035.png
subject-02,1,61,0.891006946563721,cat,boat,64-0-10,0061_eid_s02_64-0-10_boat_10_n03344393_4562.png
subject-02,1,62,0.842850923538208,bird,chair,16-0-10,0062_eid_s02_16-0-10_chair_10_n03376595_262.png
subject-02,1,63,0.562697172164917,cat,cat,4-0-10,0063_eid_s02_4-0-10_cat_10_n02124075_13568.png
subject-02,1,64,0.772572040557861,knife,knife,1-0-10,0064_eid_s02_1-0-10_knife_10_n03041632_48062.png
subject-02,1,65,1.01440191268921,keyboard,keyboard,8-0-10,0065_eid_s02_8-0-10_keyboard_10_n03085013_20996.png
subject-02,1,66,0.95403790473938,keyboard,knife,128-0-10,0066_eid_s02_128-0-10_knife_10_n03041632_29343.png
subject-02,1,67,0.99008584022522,cat,cat,64-0-10,0067_eid_s02_64-0-10_cat_10_n02123394_292.png
subject-02,1,68,0.971976041793823,keyboard,car,64-0-10,0068_eid_s02_64-0-10_car_10_n03100240_5527.png
subject-02,1,69,0.897336006164551,elephant,elephant,2-0-10,0069_eid_s02_2-0-10_elephant_10_n02504458_3063.png
subject-02,1,70,0.787272930145264,oven,cat,128-0-10,0070_eid_s02_128-0-10_cat_10_n02125311_19340.png
subject-02,1,71,0.861270189285278,oven,airplane,64-0-10,0071_eid_s02_64-0-10_airplane_10_n02690373_15472.png
subject-02,1,72,1.28889322280884,bicycle,boat,128-0-10,0072_eid_s02_128-0-10_boat_10_n04273569_9306.png
subject-02,1,73,0.574717998504639,cat,bottle,64-0-10,0073_eid_s02_64-0-10_bottle_10_n02823428_12623.png
subject-02,1,74,0.704412937164307,boat,boat,4-0-10,0074_eid_s02_4-0-10_boat_10_n02951358_2330.png
subject-02,1,75,0.614327907562256,cat,keyboard,64-0-10,0075_eid_s02_64-0-10_keyboard_10_n04505470_3881.png
subject-02,1,76,0.862371921539307,boat,car,16-0-10,0076_eid_s02_16-0-10_car_10_n04285008_8959.png
subject-02,1,77,0.854400873184204,bicycle,bicycle,1-0-10,0077_eid_s02_1-0-10_bicycle_10_n03792782_9692.png
subject-02,1,78,0.771701097488403,cat,elephant,64-0-10,0078_eid_s02_64-0-10_elephant_10_n02504458_7642.png
subject-02,1,79,0.637702226638794,cat,cat,4-0-10,0079_eid_s02_4-0-10_cat_10_n02123159_1113.png
subject-02,1,80,0.813327074050903,car,car,4-0-10,0080_eid_s02_4-0-10_car_10_n04285008_3445.png
subject-02,1,81,1.03687000274658,truck,truck,8-0-10,0081_eid_s02_8-0-10_truck_10_n04467665_21900.png
subject-02,1,82,1.36270308494568,bottle,knife,2-0-10,0082_eid_s02_2-0-10_knife_10_n03041632_90125.png
subject-02,1,83,1.28066301345825,chair,truck,128-0-10,0083_eid_s02_128-0-10_truck_10_n04467665_67327.png
subject-02,1,84,0.996376037597656,dog,dog,1-0-10,0084_eid_s02_1-0-10_dog_10_n02108422_5595.png
subject-02,1,85,1.47815108299255,knife,oven,2-0-10,0085_eid_s02_2-0-10_oven_10_n04111531_12820.png
subject-02,1,86,1.04385685920715,knife,knife,4-0-10,0086_eid_s02_4-0-10_knife_10_n03041632_4975.png
subject-02,1,87,1.29179787635803,knife,bear,4-0-10,0087_eid_s02_4-0-10_bear_10_n02134418_6030.png
subject-02,1,88,0.961534976959229,boat,elephant,128-0-10,0088_eid_s02_128-0-10_elephant_10_n02504458_5827.png
subject-02,1,89,0.925403118133545,knife,knife,2-0-10,0089_eid_s02_2-0-10_knife_10_n03041632_965.png
subject-02,1,90,0.863223075866699,cat,dog,16-0-10,0090_eid_s02_16-0-10_dog_10_n02111129_5833.png
subject-02,1,91,0.930972099304199,boat,dog,128-0-10,0091_eid_s02_128-0-10_dog_10_n02107908_8814.png
subject-02,1,92,0.870849132537842,cat,truck,32-0-10,0092_eid_s02_32-0-10_truck_10_n03417042_6373.png
subject-02,1,93,0.836629152297974,airplane,airplane,4-0-10,0093_eid_s02_4-0-10_airplane_10_n02690373_18693.png
subject-02,1,94,0.848367929458618,oven,bicycle,128-0-10,0094_eid_s02_128-0-10_bicycle_10_n03792782_1475.png
subject-02,1,95,0.950402975082397,dog,bottle,32-0-10,0095_eid_s02_32-0-10_bottle_10_n03937543_2652.png
subject-02,1,96,1.24204683303833,car,dog,4-0-10,0096_eid_s02_4-0-10_dog_10_n02097130_1442.png
subject-02,1,97,0.780407190322876,cat,oven,64-0-10,0097_eid_s02_64-0-10_oven_10_n04111531_15489.png
subject-02,1,98,0.681885957717896,bicycle,bicycle,2-0-10,0098_eid_s02_2-0-10_bicycle_10_n03792782_7913.png
subject-02,1,99,1.13185000419617,knife,knife,8-0-10,0099_eid_s02_8-0-10_knife_10_n03041632_3504.png
subject-02,1,100,0.839404106140137,elephant,elephant,2-0-10,0100_eid_s02_2-0-10_elephant_10_n02504013_1692.png
subject-02,1,101,0.8993980884552,bear,car,32-0-10,0101_eid_s02_32-0-10_car_10_n03100240_11224.png
subject-02,1,102,0.747047185897827,clock,clock,1-0-10,0102_eid_s02_1-0-10_clock_10_n02708093_2843.png
subject-02,1,103,0.719182014465332,cat,chair,128-0-10,0103_eid_s02_128-0-10_chair_10_n03376595_8409.png
subject-02,1,104,1.17860984802246,bird,bird,4-0-10,0104_eid_s02_4-0-10_bird_10_n01795545_17770.png
subject-02,1,105,1.38244700431824,keyboard,car,128-0-10,0105_eid_s02_128-0-10_car_10_n04285008_14653.png
subject-02,1,106,0.704200983047485,bicycle,bicycle,2-0-10,0106_eid_s02_2-0-10_bicycle_10_n03792782_11679.png
subject-02,1,107,0.790005922317505,airplane,airplane,4-0-10,0107_eid_s02_4-0-10_airplane_10_n02690373_4434.png
subject-02,1,108,0.927939891815186,cat,cat,1-0-10,0108_eid_s02_1-0-10_cat_10_n02123597_3398.png
subject-02,1,109,0.80798077583313,boat,boat,4-0-10,0109_eid_s02_4-0-10_boat_10_n03344393_3773.png
subject-02,1,110,1.33535194396973,car,clock,8-0-10,0110_eid_s02_8-0-10_clock_10_n03196217_884.png
subject-02,1,111,1.0833261013031,bird,bird,4-0-10,0111_eid_s02_4-0-10_bird_10_n01614925_2708.png
subject-02,1,112,1.05505204200745,dog,car,64-0-10,0112_eid_s02_64-0-10_car_10_n02814533_4803.png
subject-02,1,113,1.04543709754944,bear,cat,128-0-10,0113_eid_s02_128-0-10_cat_10_n02125311_2981.png
subject-02,1,114,1.31671285629272,bird,cat,4-0-10,0114_eid_s02_4-0-10_cat_10_n02125311_25749.png
subject-02,1,115,0.81849193572998,bird,bird,2-0-10,0115_eid_s02_2-0-10_bird_10_n01855672_1001.png
subject-02,1,116,1.05036902427673,cat,car,32-0-10,0116_eid_s02_32-0-10_car_10_n03100240_4605.png
subject-02,1,117,1.06225895881653,dog,cat,128-0-10,0117_eid_s02_128-0-10_cat_10_n02124075_6464.png
subject-02,1,118,0.88611102104187,cat,car,128-0-10,0118_eid_s02_128-0-10_car_10_n03100240_3710.png
subject-02,1,119,0.89198899269104,bird,clock,32-0-10,0119_eid_s02_32-0-10_clock_10_n03196217_4849.png
subject-02,1,120,1.03153800964355,cat,bird,2-0-10,0120_eid_s02_2-0-10_bird_10_n01843383_7800.png
subject-02,1,121,0.965425968170166,keyboard,keyboard,1-0-10,0121_eid_s02_1-0-10_keyboard_10_n04505470_1744.png
subject-02,1,122,0.859048843383789,bicycle,bicycle,8-0-10,0122_eid_s02_8-0-10_bicycle_10_n02835271_42981.png
subject-02,1,123,0.664917945861816,cat,airplane,128-0-10,0123_eid_s02_128-0-10_airplane_10_n02690373_6929.png
subject-02,1,124,0.888751029968262,elephant,elephant,1-0-10,0124_eid_s02_1-0-10_elephant_10_n02504458_3628.png
subject-02,1,125,1.23855495452881,cat,dog,8-0-10,0125_eid_s02_8-0-10_dog_10_n02097209_3538.png
subject-02,1,126,0.798586130142212,cat,cat,16-0-10,0126_eid_s02_16-0-10_cat_10_n02124075_6716.png
subject-02,1,127,1.30421614646912,bicycle,boat,16-0-10,0127_eid_s02_16-0-10_boat_10_n04612504_1491.png
subject-02,1,128,0.830347061157227,dog,dog,4-0-10,0128_eid_s02_4-0-10_dog_10_n02102318_15295.png
subject-02,1,129,0.763891935348511,truck,truck,4-0-10,0129_eid_s02_4-0-10_truck_10_n03796401_28712.png
subject-02,1,130,0.807812929153442,cat,clock,8-0-10,0130_eid_s02_8-0-10_clock_10_n02708093_3171.png
subject-02,1,131,0.611404895782471,boat,dog,128-0-10,0131_eid_s02_128-0-10_dog_10_n02091831_538.png
subject-02,1,132,0.677425146102905,cat,boat,64-0-10,0132_eid_s02_64-0-10_boat_10_n02951358_15252.png
subject-02,1,133,0.699080944061279,cat,oven,128-0-10,0133_eid_s02_128-0-10_oven_10_n04111531_4795.png
subject-02,1,134,0.923012018203735,bicycle,bird,8-0-10,0134_eid_s02_8-0-10_bird_10_n02025239_17670.png
subject-02,1,135,0.864809036254883,dog,elephant,32-0-10,0135_eid_s02_32-0-10_elephant_10_n02504013_782.png
subject-02,1,136,0.894582033157349,bird,bird,1-0-10,0136_eid_s02_1-0-10_bird_10_n01616318_2473.png
subject-02,1,137,0.900530099868774,knife,knife,2-0-10,0137_eid_s02_2-0-10_knife_10_n03041632_31301.png
subject-02,1,138,0.882138967514038,boat,airplane,16-0-10,0138_eid_s02_16-0-10_airplane_10_n02690373_1909.png
subject-02,1,139,0.892030954360962,dog,bicycle,128-0-10,0139_eid_s02_128-0-10_bicycle_10_n02835271_7476.png
subject-02,1,140,0.809786081314087,bird,oven,64-0-10,0140_eid_s02_64-0-10_oven_10_n04111531_13797.png
subject-02,1,141,0.689657926559448,keyboard,keyboard,2-0-10,0141_eid_s02_2-0-10_keyboard_10_n03085013_7536.png
subject-02,1,142,0.845428943634033,clock,dog,128-0-10,0142_eid_s02_128-0-10_dog_10_n02097130_3615.png
subject-02,1,143,0.877602815628052,car,car,8-0-10,0143_eid_s02_8-0-10_car_10_n04285008_8545.png
subject-02,1,144,0.621356010437012,cat,knife,64-0-10,0144_eid_s02_64-0-10_knife_10_n03041632_3171.png
subject-02,1,145,0.968885183334351,dog,dog,1-0-10,0145_eid_s02_1-0-10_dog_10_n02109047_26316.png
subject-02,1,146,0.738748073577881,chair,chair,1-0-10,0146_eid_s02_1-0-10_chair_10_n04099969_10825.png
subject-02,1,147,1.17266011238098,knife,oven,2-0-10,0147_eid_s02_2-0-10_oven_10_n04111531_21869.png
subject-02,1,148,0.918354988098145,truck,truck,4-0-10,0148_eid_s02_4-0-10_truck_10_n03417042_26102.png
subject-02,1,149,1.1802818775177,dog,clock,32-0-10,0149_eid_s02_32-0-10_clock_10_n02708093_3360.png
subject-02,1,150,0.952045917510986,bottle,oven,16-0-10,0150_eid_s02_16-0-10_oven_10_n04111531_8603.png
subject-02,1,151,0.885847806930542,dog,bicycle,64-0-10,0151_eid_s02_64-0-10_bicycle_10_n02835271_7900.png
subject-02,1,152,1.21147489547729,airplane,boat,2-0-10,0152_eid_s02_2-0-10_boat_10_n04273569_6941.png
subject-02,1,153,0.815717935562134,keyboard,chair,4-0-10,0153_eid_s02_4-0-10_chair_10_n03376595_360.png
subject-02,1,154,0.853591918945312,clock,clock,16-0-10,0154_eid_s02_16-0-10_clock_10_n04548280_7050.png
subject-02,1,155,0.843027114868164,boat,clock,16-0-10,0155_eid_s02_16-0-10_clock_10_n03196217_5620.png
subject-02,1,156,1.0887451171875,bicycle,cat,16-0-10,0156_eid_s02_16-0-10_cat_10_n02123394_5907.png
subject-02,1,157,0.710522890090942,cat,chair,128-0-10,0157_eid_s02_128-0-10_chair_10_n04099969_2472.png
subject-02,1,158,0.722616910934448,boat,boat,4-0-10,0158_eid_s02_4-0-10_boat_10_n02951358_16217.png
subject-02,1,159,0.61837911605835,oven,bicycle,16-0-10,0159_eid_s02_16-0-10_bicycle_10_n03792782_4895.png
subject-02,1,160,1.17225694656372,knife,bottle,2-0-10,0160_eid_s02_2-0-10_bottle_10_n03937543_7763.png
subject-02,1,161,0.938117027282715,cat,boat,16-0-10,0161_eid_s02_16-0-10_boat_10_n03662601_1191.png
subject-02,1,162,1.15364599227905,dog,cat,8-0-10,0162_eid_s02_8-0-10_cat_10_n02123394_1726.png
subject-02,1,163,0.925539970397949,oven,cat,8-0-10,0163_eid_s02_8-0-10_cat_10_n02123597_22140.png
subject-02,1,164,0.735111951828003,boat,boat,4-0-10,0164_eid_s02_4-0-10_boat_10_n02951358_13456.png
subject-02,1,165,0.833472013473511,bicycle,bicycle,2-0-10,0165_eid_s02_2-0-10_bicycle_10_n03792782_3388.png
subject-02,1,166,0.642746925354004,cat,knife,16-0-10,0166_eid_s02_16-0-10_knife_10_n03041632_7680.png
subject-02,1,167,0.766781091690063,clock,clock,8-0-10,0167_eid_s02_8-0-10_clock_10_n04548280_6463.png
subject-02,1,168,1.04446887969971,dog,cat,2-0-10,0168_eid_s02_2-0-10_cat_10_n02123394_8164.png
subject-02,1,169,1.14055013656616,bottle,knife,64-0-10,0169_eid_s02_64-0-10_knife_10_n03041632_20504.png
subject-02,1,170,0.714509010314941,clock,clock,8-0-10,0170_eid_s02_8-0-10_clock_10_n02708093_5188.png
subject-02,1,171,0.852064847946167,keyboard,chair,8-0-10,0171_eid_s02_8-0-10_chair_10_n04099969_7191.png
subject-02,1,172,0.927834033966064,bicycle,bicycle,2-0-10,0172_eid_s02_2-0-10_bicycle_10_n03792782_1933.png
subject-02,1,173,1.05763816833496,boat,boat,4-0-10,0173_eid_s02_4-0-10_boat_10_n04612504_27504.png
subject-02,1,174,0.951166868209839,bear,cat,32-0-10,0174_eid_s02_32-0-10_cat_10_n02123045_7764.png
subject-02,1,175,0.917047023773193,dog,bicycle,64-0-10,0175_eid_s02_64-0-10_bicycle_10_n03792782_9412.png
subject-02,1,176,0.80288290977478,cat,dog,32-0-10,0176_eid_s02_32-0-10_dog_10_n02097474_8052.png
subject-02,1,177,1.15268516540527,knife,knife,1-0-10,0177_eid_s02_1-0-10_knife_10_n03041632_16606.png
subject-02,1,178,0.847119092941284,oven,knife,128-0-10,0178_eid_s02_128-0-10_knife_10_n03041632_10999.png
subject-02,1,179,1.26638412475586,oven,clock,4-0-10,0179_eid_s02_4-0-10_clock_10_n04548280_4557.png
subject-02,1,180,0.768278121948242,boat,clock,128-0-10,0180_eid_s02_128-0-10_clock_10_n04548280_6811.png
subject-02,1,181,0.80007004737854,keyboard,keyboard,2-0-10,0181_eid_s02_2-0-10_keyboard_10_n04505470_4505.png
subject-02,1,182,0.613829135894775,cat,cat,1-0-10,0182_eid_s02_1-0-10_cat_10_n02124075_13436.png
subject-02,1,183,1.00960397720337,bottle,oven,128-0-10,0183_eid_s02_128-0-10_oven_10_n04111531_12450.png
subject-02,1,184,0.755569934844971,boat,airplane,1-0-10,0184_eid_s02_1-0-10_airplane_10_n02690373_8653.png
subject-02,1,185,1.01942801475525,truck,truck,2-0-10,0185_eid_s02_2-0-10_truck_10_n03417042_7096.png
subject-02,1,186,0.961096048355103,bottle,boat,128-0-10,0186_eid_s02_128-0-10_boat_10_n02951358_6465.png
subject-02,1,187,0.852824926376343,cat,bottle,64-0-10,0187_eid_s02_64-0-10_bottle_10_n04591713_360.png
subject-02,1,188,1.1947009563446,bottle,chair,8-0-10,0188_eid_s02_8-0-10_chair_10_n03376595_8289.png
subject-02,1,189,0.918377161026001,dog,bicycle,16-0-10,0189_eid_s02_16-0-10_bicycle_10_n02835271_18228.png
subject-02,1,190,1.11023092269897,clock,bear,2-0-10,0190_eid_s02_2-0-10_bear_10_n02133161_15593.png
subject-02,1,191,0.942276000976562,dog,bicycle,16-0-10,0191_eid_s02_16-0-10_bicycle_10_n02835271_29741.png
subject-02,1,192,0.962088108062744,bird,bird,64-0-10,0192_eid_s02_64-0-10_bird_10_n01582220_1814.png
subject-02,1,193,0.655709981918335,cat,keyboard,128-0-10,0193_eid_s02_128-0-10_keyboard_10_n03085013_23561.png
subject-02,1,194,0.817624092102051,dog,boat,8-0-10,0194_eid_s02_8-0-10_boat_10_n03662601_3903.png
subject-02,1,195,0.851701021194458,oven,oven,1-0-10,0195_eid_s02_1-0-10_oven_10_n04111531_7664.png
subject-02,1,196,0.98114013671875,elephant,bear,1-0-10,0196_eid_s02_1-0-10_bear_10_n02134418_304.png
subject-02,1,197,0.887071132659912,bird,boat,8-0-10,0197_eid_s02_8-0-10_boat_10_n03344393_3535.png
subject-02,1,198,0.720978975296021,cat,elephant,32-0-10,0198_eid_s02_32-0-10_elephant_10_n02504458_10344.png
subject-02,1,199,0.834614992141724,keyboard,keyboard,4-0-10,0199_eid_s02_4-0-10_keyboard_10_n04505470_4552.png
subject-02,1,200,1.08852696418762,dog,bottle,128-0-10,0200_eid_s02_128-0-10_bottle_10_n02823428_7788.png
subject-02,1,201,0.780247926712036,boat,boat,1-0-10,0201_eid_s02_1-0-10_boat_10_n03344393_1017.png
subject-02,1,202,0.872153997421265,chair,chair,1-0-10,0202_eid_s02_1-0-10_chair_10_n04099969_3583.png
subject-02,1,203,0.791852951049805,oven,truck,128-0-10,0203_eid_s02_128-0-10_truck_10_n03417042_6298.png
subject-02,1,204,0.967766046524048,bottle,bottle,8-0-10,0204_eid_s02_8-0-10_bottle_10_n04591713_4474.png
subject-02,1,205,1.08967685699463,bicycle,elephant,128-0-10,0205_eid_s02_128-0-10_elephant_10_n02504013_4247.png
subject-02,1,206,0.961366891860962,cat,bear,32-0-10,0206_eid_s02_32-0-10_bear_10_n02133161_15561.png
subject-02,1,207,0.715234041213989,bicycle,bicycle,2-0-10,0207_eid_s02_2-0-10_bicycle_10_n03792782_15752.png
subject-02,1,208,0.912810087203979,chair,chair,2-0-10,0208_eid_s02_2-0-10_chair_10_n02791124_2470.png
subject-02,1,209,0.902992963790894,car,keyboard,64-0-10,0209_eid_s02_64-0-10_keyboard_10_n04505470_3929.png
subject-02,1,210,1.10248899459839,bicycle,airplane,64-0-10,0210_eid_s02_64-0-10_airplane_10_n02690373_3840.png
subject-02,1,211,0.912770986557007,bottle,bottle,1-0-10,0211_eid_s02_1-0-10_bottle_10_n02823428_685.png
subject-02,1,212,0.966063022613525,truck,boat,64-0-10,0212_eid_s02_64-0-10_boat_10_n04273569_15879.png
subject-02,1,213,0.946112155914307,airplane,airplane,2-0-10,0213_eid_s02_2-0-10_airplane_10_n02690373_4851.png
subject-02,1,214,0.944066047668457,chair,chair,1-0-10,0214_eid_s02_1-0-10_chair_10_n03376595_2382.png
subject-02,1,215,1.23561692237854,bird,keyboard,128-0-10,0215_eid_s02_128-0-10_keyboard_10_n04505470_6.png
subject-02,1,216,0.835467100143433,chair,chair,2-0-10,0216_eid_s02_2-0-10_chair_10_n04429376_20941.png
subject-02,1,217,0.957259893417358,car,car,1-0-10,0217_eid_s02_1-0-10_car_10_n04285008_1243.png
subject-02,1,218,0.69554591178894,cat,oven,32-0-10,0218_eid_s02_32-0-10_oven_10_n04111531_669.png
subject-02,1,219,0.771054983139038,keyboard,keyboard,1-0-10,0219_eid_s02_1-0-10_keyboard_10_n03085013_20416.png
subject-02,1,220,0.884742021560669,keyboard,keyboard,4-0-10,0220_eid_s02_4-0-10_keyboard_10_n03085013_14764.png
subject-02,1,221,0.676893949508667,boat,airplane,64-0-10,0221_eid_s02_64-0-10_airplane_10_n02690373_10012.png
subject-02,1,222,0.722362041473389,oven,bird,64-0-10,0222_eid_s02_64-0-10_bird_10_n02013706_5454.png
subject-02,1,223,0.764187097549438,clock,clock,2-0-10,0223_eid_s02_2-0-10_clock_10_n03196217_2201.png
subject-02,1,224,1.29187512397766,cat,bear,64-0-10,0224_eid_s02_64-0-10_bear_10_n02132136_699.png
subject-02,1,225,0.859905004501343,boat,car,32-0-10,0225_eid_s02_32-0-10_car_10_n03100240_16210.png
subject-02,1,226,0.799698114395142,oven,bear,1-0-10,0226_eid_s02_1-0-10_bear_10_n02134084_1694.png
subject-02,1,227,0.913344144821167,bear,cat,8-0-10,0227_eid_s02_8-0-10_cat_10_n02123394_2434.png
subject-02,1,228,1.05717015266418,bird,clock,32-0-10,0228_eid_s02_32-0-10_clock_10_n04548280_8412.png
subject-02,1,229,1.10088300704956,knife,knife,1-0-10,0229_eid_s02_1-0-10_knife_10_n03041632_19275.png
subject-02,1,230,0.90474796295166,car,car,2-0-10,0230_eid_s02_2-0-10_car_10_n03100240_18788.png
subject-02,1,231,1.05063605308533,cat,keyboard,32-0-10,0231_eid_s02_32-0-10_keyboard_10_n03085013_24030.png
subject-02,1,232,0.920464038848877,bird,airplane,32-0-10,0232_eid_s02_32-0-10_airplane_10_n02690373_2874.png
subject-02,1,233,0.796291828155518,bird,boat,32-0-10,0233_eid_s02_32-0-10_boat_10_n04273569_3313.png
subject-02,1,234,0.816131114959717,boat,clock,16-0-10,0234_eid_s02_16-0-10_clock_10_n03196217_5888.png
subject-02,1,235,0.726186037063599,boat,boat,2-0-10,0235_eid_s02_2-0-10_boat_10_n04612504_3152.png
subject-02,1,236,0.78581714630127,cat,cat,4-0-10,0236_eid_s02_4-0-10_cat_10_n02124075_8465.png
subject-02,1,237,1.08138418197632,dog,bicycle,32-0-10,0237_eid_s02_32-0-10_bicycle_10_n03792782_30246.png
subject-02,1,238,1.07765412330627,chair,knife,2-0-10,0238_eid_s02_2-0-10_knife_10_n03041632_84240.png
subject-02,1,239,0.905277967453003,bird,boat,32-0-10,0239_eid_s02_32-0-10_boat_10_n02951358_26334.png
subject-02,1,240,0.761219024658203,cat,chair,64-0-10,0240_eid_s02_64-0-10_chair_10_n03376595_1770.png
subject-02,1,241,0.830519914627075,bear,bear,2-0-10,0241_eid_s02_2-0-10_bear_10_n02134084_18800.png
subject-02,1,242,1.50007486343384,dog,bird,2-0-10,0242_eid_s02_2-0-10_bird_10_n01537544_25558.png
subject-02,1,243,0.776283979415894,airplane,boat,4-0-10,0243_eid_s02_4-0-10_boat_10_n03344393_3824.png
subject-02,1,244,0.71222996711731,clock,clock,2-0-10,0244_eid_s02_2-0-10_clock_10_n02708093_772.png
subject-02,1,245,0.909974098205566,cat,knife,16-0-10,0245_eid_s02_16-0-10_knife_10_n03041632_38610.png
subject-02,1,246,0.969703197479248,dog,dog,2-0-10,0246_eid_s02_2-0-10_dog_10_n02106550_7165.png
subject-02,1,247,0.817519903182983,boat,boat,8-0-10,0247_eid_s02_8-0-10_boat_10_n02951358_13144.png
subject-02,1,248,0.821323156356812,cat,bear,64-0-10,0248_eid_s02_64-0-10_bear_10_n02134084_7904.png
subject-02,1,249,0.763069868087769,clock,clock,1-0-10,0249_eid_s02_1-0-10_clock_10_n04548280_1051.png
subject-02,1,250,1.11900496482849,dog,bicycle,8-0-10,0250_eid_s02_8-0-10_bicycle_10_n03792782_14293.png
subject-02,1,251,0.756742000579834,cat,bicycle,64-0-10,0251_eid_s02_64-0-10_bicycle_10_n02835271_12945.png
subject-02,1,252,0.948615074157715,dog,chair,64-0-10,0252_eid_s02_64-0-10_chair_10_n04429376_29954.png
subject-02,1,253,0.780290842056274,bicycle,bicycle,4-0-10,0253_eid_s02_4-0-10_bicycle_10_n02835271_22334.png
subject-02,1,254,0.784288883209229,cat,bottle,128-0-10,0254_eid_s02_128-0-10_bottle_10_n04579145_1168.png
subject-02,1,255,0.827965021133423,cat,knife,128-0-10,0255_eid_s02_128-0-10_knife_10_n03041632_85488.png
subject-02,1,256,1.06799602508545,bottle,bottle,4-0-10,0256_eid_s02_4-0-10_bottle_10_n03937543_4912.png
subject-02,1,257,1.00972986221313,cat,bird,16-0-10,0257_eid_s02_16-0-10_bird_10_n01829413_1007.png
subject-02,1,258,0.909282922744751,bottle,knife,128-0-10,0258_eid_s02_128-0-10_knife_10_n03041632_35260.png
subject-02,1,259,0.991160869598389,boat,truck,16-0-10,0259_eid_s02_16-0-10_truck_10_n03417042_4288.png
subject-02,1,260,0.823068141937256,bird,bird,4-0-10,0260_eid_s02_4-0-10_bird_10_n02006656_713.png
subject-02,1,261,0.648808002471924,clock,clock,2-0-10,0261_eid_s02_2-0-10_clock_10_n02708093_1701.png
subject-02,1,262,0.864546060562134,car,car,4-0-10,0262_eid_s02_4-0-10_car_10_n02814533_27327.png
subject-02,1,263,0.626445055007935,cat,cat,4-0-10,0263_eid_s02_4-0-10_cat_10_n02123159_5764.png
subject-02,1,264,1.10636782646179,dog,oven,4-0-10,0264_eid_s02_4-0-10_oven_10_n04111531_4332.png
subject-02,1,265,0.940067052841187,bicycle,oven,128-0-10,0265_eid_s02_128-0-10_oven_10_n04111531_891.png
subject-02,1,266,0.825907945632935,dog,dog,1-0-10,0266_eid_s02_1-0-10_dog_10_n02093991_8648.png
subject-02,1,267,1.35421013832092,boat,chair,1-0-10,0267_eid_s02_1-0-10_chair_10_n04099969_4675.png
subject-02,1,268,0.85753607749939,bird,knife,32-0-10,0268_eid_s02_32-0-10_knife_10_n03041632_87380.png
subject-02,1,269,0.853732109069824,boat,bicycle,4-0-10,0269_eid_s02_4-0-10_bicycle_10_n03792782_10366.png
subject-02,1,270,1.11517405509949,bottle,elephant,32-0-10,0270_eid_s02_32-0-10_elephant_10_n02504458_62.png
subject-02,1,271,0.82294487953186,truck,truck,4-0-10,0271_eid_s02_4-0-10_truck_10_n03417042_16238.png
subject-02,1,272,0.780622959136963,boat,boat,8-0-10,0272_eid_s02_8-0-10_boat_10_n03662601_33374.png
subject-02,1,273,0.836470127105713,chair,bottle,128-0-10,0273_eid_s02_128-0-10_bottle_10_n04591713_8914.png
subject-02,1,274,0.982392072677612,dog,cat,1-0-10,0274_eid_s02_1-0-10_cat_10_n02123597_2009.png
subject-02,1,275,1.30614995956421,cat,boat,8-0-10,0275_eid_s02_8-0-10_boat_10_n03344393_5322.png
subject-02,1,276,0.59237003326416,boat,boat,2-0-10,0276_eid_s02_2-0-10_boat_10_n02951358_16803.png
subject-02,1,277,1.07424092292786,bicycle,oven,8-0-10,0277_eid_s02_8-0-10_oven_10_n04111531_1150.png
subject-02,1,278,0.649779081344604,cat,cat,64-0-10,0278_eid_s02_64-0-10_cat_10_n02124075_7474.png
subject-02,1,279,1.33351302146912,car,truck,8-0-10,0279_eid_s02_8-0-10_truck_10_n03417042_18743.png
subject-02,1,280,0.75943398475647,cat,airplane,64-0-10,0280_eid_s02_64-0-10_airplane_10_n02690373_1169.png
subject-02,1,281,0.819352865219116,car,car,8-0-10,0281_eid_s02_8-0-10_car_10_n02814533_68668.png
subject-02,1,282,0.878925085067749,airplane,airplane,8-0-10,0282_eid_s02_8-0-10_airplane_10_n02690373_2941.png
subject-02,1,283,1.17310118675232,airplane,airplane,4-0-10,0283_eid_s02_4-0-10_airplane_10_n02690373_9802.png
subject-02,1,284,0.612523078918457,cat,truck,128-0-10,0284_eid_s02_128-0-10_truck_10_n04467665_22573.png
subject-02,1,285,0.750465154647827,airplane,airplane,2-0-10,0285_eid_s02_2-0-10_airplane_10_n02690373_9718.png
subject-02,1,286,0.810291051864624,dog,dog,8-0-10,0286_eid_s02_8-0-10_dog_10_n02101388_9815.png
subject-02,1,287,0.862092971801758,clock,clock,1-0-10,0287_eid_s02_1-0-10_clock_10_n04548280_4989.png
subject-02,1,288,0.747720956802368,clock,clock,1-0-10,0288_eid_s02_1-0-10_clock_10_n03196217_3063.png
subject-02,1,289,0.79200291633606,clock,keyboard,16-0-10,0289_eid_s02_16-0-10_keyboard_10_n04505470_9446.png
subject-02,1,290,0.785507917404175,oven,bird,64-0-10,0290_eid_s02_64-0-10_bird_10_n01531178_9584.png
subject-02,1,291,1.35344195365906,dog,bottle,32-0-10,0291_eid_s02_32-0-10_bottle_10_n04591713_5921.png
subject-02,1,292,0.997300863265991,dog,car,16-0-10,0292_eid_s02_16-0-10_car_10_n04285008_7904.png
subject-02,1,293,0.90693211555481,clock,clock,4-0-10,0293_eid_s02_4-0-10_clock_10_n03196217_5568.png
subject-02,1,294,0.932571887969971,dog,bottle,32-0-10,0294_eid_s02_32-0-10_bottle_10_n04560804_1356.png
subject-02,1,295,1.03258609771729,bear,oven,64-0-10,0295_eid_s02_64-0-10_oven_10_n04111531_17781.png
subject-02,1,296,1.08231806755066,boat,cat,32-0-10,0296_eid_s02_32-0-10_cat_10_n02123597_6721.png
subject-02,1,297,0.980314970016479,bear,dog,8-0-10,0297_eid_s02_8-0-10_dog_10_n02098105_865.png
subject-02,1,298,0.945945978164673,elephant,elephant,2-0-10,0298_eid_s02_2-0-10_elephant_10_n02504013_1708.png
subject-02,1,299,0.847728967666626,truck,truck,2-0-10,0299_eid_s02_2-0-10_truck_10_n04467665_51267.png
subject-02,1,300,0.773980140686035,cat,elephant,32-0-10,0300_eid_s02_32-0-10_elephant_10_n02504013_7732.png
subject-02,1,301,1.05965304374695,bird,bird,2-0-10,0301_eid_s02_2-0-10_bird_10_n02056570_18300.png
subject-02,1,302,0.921510934829712,boat,clock,8-0-10,0302_eid_s02_8-0-10_clock_10_n03196217_6257.png
subject-02,1,303,0.918890953063965,bicycle,knife,64-0-10,0303_eid_s02_64-0-10_knife_10_n03041632_21425.png
subject-02,1,304,1.08078503608704,keyboard,bicycle,128-0-10,0304_eid_s02_128-0-10_bicycle_10_n02835271_42320.png
subject-02,1,305,0.810713052749634,boat,dog,16-0-10,0305_eid_s02_16-0-10_dog_10_n02085936_4491.png
subject-02,1,306,1.11276316642761,dog,car,128-0-10,0306_eid_s02_128-0-10_car_10_n04285008_3840.png
subject-02,1,307,1.31830215454102,dog,dog,8-0-10,0307_eid_s02_8-0-10_dog_10_n02086240_3031.png
subject-02,1,308,0.855931997299194,cat,bird,8-0-10,0308_eid_s02_8-0-10_bird_10_n02009912_11813.png
subject-02,1,309,1.05596899986267,bird,oven,32-0-10,0309_eid_s02_32-0-10_oven_10_n04111531_7067.png
subject-02,1,310,0.825589895248413,cat,cat,32-0-10,0310_eid_s02_32-0-10_cat_10_n02123159_7616.png
subject-02,1,311,0.985435962677002,bear,knife,8-0-10,0311_eid_s02_8-0-10_knife_10_n03041632_20517.png
subject-02,1,312,1.49145698547363,bird,bicycle,8-0-10,0312_eid_s02_8-0-10_bicycle_10_n02835271_18846.png
subject-02,1,313,1.50015807151794,cat,bear,128-0-10,0313_eid_s02_128-0-10_bear_10_n02132136_15806.png
subject-02,1,314,0.998920202255249,bear,bear,4-0-10,0314_eid_s02_4-0-10_bear_10_n02133161_499.png
subject-02,1,315,0.72071099281311,clock,clock,2-0-10,0315_eid_s02_2-0-10_clock_10_n03196217_1272.png
subject-02,1,316,0.75257682800293,cat,knife,64-0-10,0316_eid_s02_64-0-10_knife_10_n03041632_86554.png
subject-02,1,317,1.03446078300476,dog,bottle,16-0-10,0317_eid_s02_16-0-10_bottle_10_n04560804_11732.png
subject-02,1,318,0.950142860412598,bear,bear,16-0-10,0318_eid_s02_16-0-10_bear_10_n02134418_17.png
subject-02,1,319,0.945948123931885,dog,dog,4-0-10,0319_eid_s02_4-0-10_dog_10_n02099601_9973.png
subject-02,1,320,0.756219148635864,boat,boat,1-0-10,0320_eid_s02_1-0-10_boat_10_n04273569_10847.png
subject-02,1,321,0.995621204376221,cat,chair,32-0-10,0321_eid_s02_32-0-10_chair_10_n02791124_624.png
subject-02,1,322,0.773690938949585,cat,chair,128-0-10,0322_eid_s02_128-0-10_chair_10_n02791124_7759.png
subject-02,1,323,0.757339000701904,cat,airplane,128-0-10,0323_eid_s02_128-0-10_airplane_10_n02690373_2867.png
subject-02,1,324,1.01892614364624,keyboard,keyboard,1-0-10,0324_eid_s02_1-0-10_keyboard_10_n03085013_23286.png
subject-02,1,325,1.11078596115112,bear,cat,4-0-10,0325_eid_s02_4-0-10_cat_10_n02123045_7294.png
subject-02,1,326,0.934453010559082,truck,truck,4-0-10,0326_eid_s02_4-0-10_truck_10_n03417042_6241.png
subject-02,1,327,0.650390148162842,cat,dog,32-0-10,0327_eid_s02_32-0-10_dog_10_n02111500_6090.png
subject-02,1,328,0.748329877853394,cat,keyboard,16-0-10,0328_eid_s02_16-0-10_keyboard_10_n03085013_24538.png
subject-02,1,329,1.50003981590271,elephant,elephant,8-0-10,0329_eid_s02_8-0-10_elephant_10_n02504458_2841.png
subject-02,1,330,1.03983092308044,boat,bird,128-0-10,0330_eid_s02_128-0-10_bird_10_n02025239_1723.png
subject-02,1,331,0.919809103012085,bottle,bottle,4-0-10,0331_eid_s02_4-0-10_bottle_10_n04591713_493.png
subject-02,1,332,0.821560859680176,truck,truck,1-0-10,0332_eid_s02_1-0-10_truck_10_n04467665_54079.png
subject-02,1,333,0.887168884277344,chair,cat,32-0-10,0333_eid_s02_32-0-10_cat_10_n02123394_4167.png
subject-02,1,334,0.787189960479736,bicycle,airplane,64-0-10,0334_eid_s02_64-0-10_airplane_10_n02690373_2038.png
subject-02,1,335,1.19692087173462,bicycle,bicycle,1-0-10,0335_eid_s02_1-0-10_bicycle_10_n03792782_4544.png
subject-02,1,336,1.02069616317749,bottle,bear,8-0-10,0336_eid_s02_8-0-10_bear_10_n02134418_6133.png
subject-02,1,337,0.838566780090332,oven,oven,16-0-10,0337_eid_s02_16-0-10_oven_10_n04111531_2937.png
subject-02,1,338,0.78038501739502,cat,bear,32-0-10,0338_eid_s02_32-0-10_bear_10_n02134084_21170.png
subject-02,1,339,0.996272802352905,keyboard,keyboard,2-0-10,0339_eid_s02_2-0-10_keyboard_10_n03085013_22605.png
subject-02,1,340,0.883997917175293,boat,boat,2-0-10,0340_eid_s02_2-0-10_boat_10_n02951358_4363.png
subject-02,1,341,0.850115060806274,cat,keyboard,128-0-10,0341_eid_s02_128-0-10_keyboard_10_n03085013_23943.png
subject-02,1,342,1.09561896324158,dog,chair,8-0-10,0342_eid_s02_8-0-10_chair_10_n04099969_3404.png
subject-02,1,343,0.927470922470093,bird,bird,4-0-10,0343_eid_s02_4-0-10_bird_10_n01592084_7870.png
subject-02,1,344,0.831490039825439,clock,clock,4-0-10,0344_eid_s02_4-0-10_clock_10_n04548280_5991.png
subject-02,1,345,0.983389139175415,boat,bicycle,128-0-10,0345_eid_s02_128-0-10_bicycle_10_n02835271_25033.png
subject-02,1,346,0.941030979156494,oven,oven,32-0-10,0346_eid_s02_32-0-10_oven_10_n04111531_5168.png
subject-02,1,347,0.968500137329102,dog,dog,1-0-10,0347_eid_s02_1-0-10_dog_10_n02097209_5571.png
subject-02,1,348,0.910443067550659,cat,truck,128-0-10,0348_eid_s02_128-0-10_truck_10_n03796401_15846.png
subject-02,1,349,1.18676400184631,dog,chair,8-0-10,0349_eid_s02_8-0-10_chair_10_n03376595_3214.png
subject-02,1,350,0.752188920974731,boat,boat,4-0-10,0350_eid_s02_4-0-10_boat_10_n04612504_15875.png
subject-02,1,351,0.795944929122925,cat,cat,32-0-10,0351_eid_s02_32-0-10_cat_10_n02123159_799.png
subject-02,1,352,1.00402522087097,airplane,chair,16-0-10,0352_eid_s02_16-0-10_chair_10_n04099969_16270.png
subject-02,1,353,0.907413959503174,bottle,dog,128-0-10,0353_eid_s02_128-0-10_dog_10_n02094114_2394.png
subject-02,1,354,1.01546692848206,dog,clock,64-0-10,0354_eid_s02_64-0-10_clock_10_n04548280_2588.png
subject-02,1,355,0.957200050354004,bottle,bottle,1-0-10,0355_eid_s02_1-0-10_bottle_10_n03937543_299.png
subject-02,1,356,1.12497591972351,truck,truck,4-0-10,0356_eid_s02_4-0-10_truck_10_n03417042_3807.png
subject-02,1,357,0.908894062042236,car,car,1-0-10,0357_eid_s02_1-0-10_car_10_n03100240_16646.png
subject-02,1,358,1.02040815353394,dog,dog,1-0-10,0358_eid_s02_1-0-10_dog_10_n02098286_4560.png
subject-02,1,359,0.854498147964478,cat,cat,8-0-10,0359_eid_s02_8-0-10_cat_10_n02123159_5733.png
subject-02,1,360,0.772171020507812,cat,elephant,8-0-10,0360_eid_s02_8-0-10_elephant_10_n02504458_10264.png
subject-02,1,361,1.11206388473511,bear,elephant,16-0-10,0361_eid_s02_16-0-10_elephant_10_n02504458_1727.png
subject-02,1,362,0.826124906539917,chair,chair,4-0-10,0362_eid_s02_4-0-10_chair_10_n04099969_3161.png
subject-02,1,363,0.87756609916687,boat,airplane,8-0-10,0363_eid_s02_8-0-10_airplane_10_n02690373_4979.png
subject-02,1,364,0.959506988525391,dog,bird,32-0-10,0364_eid_s02_32-0-10_bird_10_n01820546_1135.png
subject-02,1,365,0.98734712600708,knife,bottle,8-0-10,0365_eid_s02_8-0-10_bottle_10_n03983396_10330.png
subject-02,1,366,1.02894306182861,cat,knife,32-0-10,0366_eid_s02_32-0-10_knife_10_n03041632_18141.png
subject-02,1,367,0.892754793167114,clock,boat,128-0-10,0367_eid_s02_128-0-10_boat_10_n02951358_33277.png
subject-02,1,368,1.18464088439941,elephant,elephant,4-0-10,0368_eid_s02_4-0-10_elephant_10_n02504013_1865.png
subject-02,1,369,0.938666105270386,oven,knife,64-0-10,0369_eid_s02_64-0-10_knife_10_n03041632_2973.png
subject-02,1,370,0.980603933334351,car,car,1-0-10,0370_eid_s02_1-0-10_car_10_n03100240_13410.png
subject-02,1,371,0.712092876434326,cat,cat,2-0-10,0371_eid_s02_2-0-10_cat_10_n02123597_14233.png
subject-02,1,372,1.01585698127747,bicycle,dog,64-0-10,0372_eid_s02_64-0-10_dog_10_n02097130_5859.png
subject-02,1,373,0.935734033584595,truck,truck,1-0-10,0373_eid_s02_1-0-10_truck_10_n04467665_2797.png
subject-02,1,374,1.10350298881531,knife,knife,1-0-10,0374_eid_s02_1-0-10_knife_10_n03041632_56454.png
subject-02,1,375,0.9112229347229,bicycle,bicycle,4-0-10,0375_eid_s02_4-0-10_bicycle_10_n03792782_30530.png
subject-02,1,376,0.837191104888916,oven,oven,2-0-10,0376_eid_s02_2-0-10_oven_10_n04111531_1662.png
subject-02,1,377,0.768898010253906,airplane,airplane,1-0-10,0377_eid_s02_1-0-10_airplane_10_n02690373_8967.png
subject-02,1,378,0.76474404335022,cat,keyboard,64-0-10,0378_eid_s02_64-0-10_keyboard_10_n03085013_20322.png
subject-02,1,379,0.690798997879028,cat,truck,128-0-10,0379_eid_s02_128-0-10_truck_10_n04467665_19747.png
subject-02,1,380,0.93056321144104,boat,airplane,32-0-10,0380_eid_s02_32-0-10_airplane_10_n02690373_17731.png
subject-02,1,381,0.638324022293091,cat,bird,64-0-10,0381_eid_s02_64-0-10_bird_10_n01514859_6021.png
subject-02,1,382,0.554085969924927,cat,bicycle,64-0-10,0382_eid_s02_64-0-10_bicycle_10_n02835271_7051.png
subject-02,1,383,1.02994203567505,dog,chair,16-0-10,0383_eid_s02_16-0-10_chair_10_n02791124_957.png
subject-02,1,384,0.843733072280884,bicycle,bicycle,4-0-10,0384_eid_s02_4-0-10_bicycle_10_n03792782_16034.png
subject-02,1,385,0.863548040390015,cat,airplane,64-0-10,0385_eid_s02_64-0-10_airplane_10_n02690373_4134.png
subject-02,1,386,0.789245843887329,car,car,4-0-10,0386_eid_s02_4-0-10_car_10_n04285008_13054.png
subject-02,1,387,0.823261022567749,knife,knife,2-0-10,0387_eid_s02_2-0-10_knife_10_n03041632_13846.png
subject-02,1,388,0.850921869277954,bottle,bottle,4-0-10,0388_eid_s02_4-0-10_bottle_10_n04560804_15122.png
subject-02,1,389,0.822705030441284,airplane,airplane,8-0-10,0389_eid_s02_8-0-10_airplane_10_n02690373_6363.png
subject-02,1,390,0.93668794631958,airplane,airplane,4-0-10,0390_eid_s02_4-0-10_airplane_10_n02690373_8214.png
subject-02,1,391,1.42437696456909,bear,bear,4-0-10,0391_eid_s02_4-0-10_bear_10_n02132136_4510.png
subject-02,1,392,0.996111869812012,keyboard,bottle,128-0-10,0392_eid_s02_128-0-10_bottle_10_n02823428_5791.png
subject-02,1,393,1.36605501174927,bird,bird,8-0-10,0393_eid_s02_8-0-10_bird_10_n02009912_27132.png
subject-02,1,394,0.785720825195312,bird,dog,64-0-10,0394_eid_s02_64-0-10_dog_10_n02104029_5234.png
subject-02,1,395,0.883652925491333,bottle,oven,2-0-10,0395_eid_s02_2-0-10_oven_10_n04111531_14913.png
subject-02,1,396,0.771485805511475,bicycle,bicycle,1-0-10,0396_eid_s02_1-0-10_bicycle_10_n03792782_12074.png
subject-02,1,397,0.923295974731445,boat,airplane,32-0-10,0397_eid_s02_32-0-10_airplane_10_n02690373_18845.png
subject-02,1,398,0.779159069061279,boat,boat,1-0-10,0398_eid_s02_1-0-10_boat_10_n04273569_6158.png
subject-02,1,399,1.38721084594727,dog,elephant,4-0-10,0399_eid_s02_4-0-10_elephant_10_n02504013_6897.png
subject-02,1,400,1.42258787155151,bird,bear,8-0-10,0400_eid_s02_8-0-10_bear_10_n02134418_5120.png
subject-02,1,401,1.32441997528076,elephant,oven,64-0-10,0401_eid_s02_64-0-10_oven_10_n04111531_21855.png
subject-02,1,402,0.836091995239258,keyboard,keyboard,8-0-10,0402_eid_s02_8-0-10_keyboard_10_n03085013_5812.png
subject-02,1,403,1.31406307220459,bird,car,16-0-10,0403_eid_s02_16-0-10_car_10_n03100240_7257.png
subject-02,1,404,0.771914958953857,cat,bicycle,64-0-10,0404_eid_s02_64-0-10_bicycle_10_n03792782_41097.png
subject-02,1,405,0.713766098022461,cat,clock,64-0-10,0405_eid_s02_64-0-10_clock_10_n03196217_775.png
subject-02,1,406,0.869788885116577,bird,bird,8-0-10,0406_eid_s02_8-0-10_bird_10_n01817953_1734.png
subject-02,1,407,0.755199909210205,cat,airplane,64-0-10,0407_eid_s02_64-0-10_airplane_10_n02690373_3313.png
subject-02,1,408,0.925014019012451,bear,dog,64-0-10,0408_eid_s02_64-0-10_dog_10_n02106030_17418.png
subject-02,1,409,0.873187065124512,dog,bicycle,16-0-10,0409_eid_s02_16-0-10_bicycle_10_n02835271_4667.png
subject-02,1,410,0.816553115844727,cat,bicycle,32-0-10,0410_eid_s02_32-0-10_bicycle_10_n03792782_5517.png
subject-02,1,411,0.866611003875732,bird,bird,4-0-10,0411_eid_s02_4-0-10_bird_10_n01592084_9109.png
subject-02,1,412,0.910472869873047,airplane,car,16-0-10,0412_eid_s02_16-0-10_car_10_n03100240_3386.png
subject-02,1,413,0.922070980072021,dog,bottle,64-0-10,0413_eid_s02_64-0-10_bottle_10_n03983396_14002.png
subject-02,1,414,0.724081039428711,oven,oven,1-0-10,0414_eid_s02_1-0-10_oven_10_n04111531_8984.png
subject-02,1,415,0.8976149559021,bird,bird,16-0-10,0415_eid_s02_16-0-10_bird_10_n01795545_13849.png
subject-02,1,416,1.00954604148865,elephant,elephant,2-0-10,0416_eid_s02_2-0-10_elephant_10_n02504458_5095.png
subject-02,1,417,0.991400003433228,chair,chair,2-0-10,0417_eid_s02_2-0-10_chair_10_n03376595_3043.png
subject-02,1,418,0.867198944091797,keyboard,keyboard,4-0-10,0418_eid_s02_4-0-10_keyboard_10_n04505470_5011.png
subject-02,1,419,1.50014305114746,bird,elephant,4-0-10,0419_eid_s02_4-0-10_elephant_10_n02504458_5995.png
subject-02,1,420,0.686915159225464,oven,oven,4-0-10,0420_eid_s02_4-0-10_oven_10_n04111531_8046.png
subject-02,1,421,0.860740900039673,airplane,airplane,2-0-10,0421_eid_s02_2-0-10_airplane_10_n02690373_4148.png
subject-02,1,422,1.12240982055664,cat,bird,32-0-10,0422_eid_s02_32-0-10_bird_10_n01582220_10508.png
subject-02,1,423,0.820514917373657,keyboard,keyboard,2-0-10,0423_eid_s02_2-0-10_keyboard_10_n03085013_4636.png
subject-02,1,424,0.7085120677948,boat,chair,128-0-10,0424_eid_s02_128-0-10_chair_10_n02791124_1482.png
subject-02,1,425,0.711984157562256,cat,knife,128-0-10,0425_eid_s02_128-0-10_knife_10_n03041632_15754.png
subject-02,1,426,0.707769870758057,cat,elephant,128-0-10,0426_eid_s02_128-0-10_elephant_10_n02504458_3094.png
subject-02,1,427,0.939529895782471,bottle,elephant,64-0-10,0427_eid_s02_64-0-10_elephant_10_n02504013_5495.png
subject-02,1,428,0.787332057952881,keyboard,keyboard,4-0-10,0428_eid_s02_4-0-10_keyboard_10_n03085013_20727.png
subject-02,1,429,1.22932410240173,bicycle,chair,64-0-10,0429_eid_s02_64-0-10_chair_10_n04429376_17336.png
subject-02,1,430,0.665445804595947,clock,clock,2-0-10,0430_eid_s02_2-0-10_clock_10_n03196217_6375.png
subject-02,1,431,1.21657800674438,car,chair,16-0-10,0431_eid_s02_16-0-10_chair_10_n03376595_3130.png
subject-02,1,432,1.26045608520508,bottle,bicycle,4-0-10,0432_eid_s02_4-0-10_bicycle_10_n03792782_6765.png
subject-02,1,433,0.87263298034668,bear,car,32-0-10,0433_eid_s02_32-0-10_car_10_n02814533_58462.png
subject-02,1,434,0.690326929092407,keyboard,keyboard,4-0-10,0434_eid_s02_4-0-10_keyboard_10_n04505470_751.png
subject-02,1,435,1.50002908706665,bear,truck,32-0-10,0435_eid_s02_32-0-10_truck_10_n04467665_9833.png
subject-02,1,436,0.925887823104858,bicycle,bicycle,8-0-10,0436_eid_s02_8-0-10_bicycle_10_n03792782_46560.png
subject-02,1,437,0.99962306022644,boat,keyboard,32-0-10,0437_eid_s02_32-0-10_keyboard_10_n03085013_3264.png
subject-02,1,438,1.49965596199036,bear,oven,128-0-10,0438_eid_s02_128-0-10_oven_10_n04111531_6622.png
subject-02,1,439,0.959680080413818,dog,bear,16-0-10,0439_eid_s02_16-0-10_bear_10_n02134418_2891.png
subject-02,1,440,1.24539995193481,keyboard,clock,128-0-10,0440_eid_s02_128-0-10_clock_10_n04548280_4346.png
subject-02,1,441,0.716907978057861,clock,clock,1-0-10,0441_eid_s02_1-0-10_clock_10_n04548280_16233.png
subject-02,1,442,0.909060955047607,bear,airplane,8-0-10,0442_eid_s02_8-0-10_airplane_10_n02690373_7311.png
subject-02,1,443,0.888679027557373,dog,dog,4-0-10,0443_eid_s02_4-0-10_dog_10_n02107574_1519.png
subject-02,1,444,0.790211915969849,cat,keyboard,128-0-10,0444_eid_s02_128-0-10_keyboard_10_n03085013_18854.png
subject-02,1,445,1.256178855896,keyboard,truck,128-0-10,0445_eid_s02_128-0-10_truck_10_n03796401_2988.png
subject-02,1,446,0.942291975021362,bottle,bottle,4-0-10,0446_eid_s02_4-0-10_bottle_10_n03937543_5215.png
subject-02,1,447,0.695831060409546,cat,cat,1-0-10,0447_eid_s02_1-0-10_cat_10_n02123394_10162.png
subject-02,1,448,0.987643003463745,bird,clock,16-0-10,0448_eid_s02_16-0-10_clock_10_n04548280_10066.png
subject-02,1,449,0.873309850692749,bird,bird,16-0-10,0449_eid_s02_16-0-10_bird_10_n01534433_31697.png
subject-02,1,450,1.23724699020386,cat,keyboard,16-0-10,0450_eid_s02_16-0-10_keyboard_10_n04505470_4974.png
subject-02,1,451,0.947043180465698,bird,cat,2-0-10,0451_eid_s02_2-0-10_cat_10_n02123597_13834.png
subject-02,1,452,0.777079105377197,oven,oven,1-0-10,0452_eid_s02_1-0-10_oven_10_n04111531_5357.png
subject-02,1,453,0.872844934463501,keyboard,bottle,128-0-10,0453_eid_s02_128-0-10_bottle_10_n02823428_3.png
subject-02,1,454,0.866436958312988,keyboard,keyboard,4-0-10,0454_eid_s02_4-0-10_keyboard_10_n03085013_9475.png
subject-02,1,455,1.17628407478333,dog,boat,64-0-10,0455_eid_s02_64-0-10_boat_10_n03662601_13696.png
subject-02,1,456,0.977985143661499,dog,knife,128-0-10,0456_eid_s02_128-0-10_knife_10_n03041632_9406.png
subject-02,1,457,0.833948850631714,keyboard,cat,8-0-10,0457_eid_s02_8-0-10_cat_10_n02123045_8751.png
subject-02,1,458,0.843693017959595,bicycle,bicycle,4-0-10,0458_eid_s02_4-0-10_bicycle_10_n03792782_2960.png
subject-02,1,459,1.01160907745361,keyboard,boat,128-0-10,0459_eid_s02_128-0-10_boat_10_n03662601_15713.png
subject-02,1,460,0.905236005783081,dog,dog,16-0-10,0460_eid_s02_16-0-10_dog_10_n02097130_2752.png
subject-02,1,461,0.777384042739868,oven,oven,1-0-10,0461_eid_s02_1-0-10_oven_10_n04111531_10749.png
subject-02,1,462,0.96889591217041,knife,knife,1-0-10,0462_eid_s02_1-0-10_knife_10_n03041632_11327.png
subject-02,1,463,0.890845060348511,chair,chair,4-0-10,0463_eid_s02_4-0-10_chair_10_n04429376_9517.png
subject-02,1,464,1.33254504203796,dog,car,16-0-10,0464_eid_s02_16-0-10_car_10_n04285008_6325.png
subject-02,1,465,1.37634611129761,boat,chair,1-0-10,0465_eid_s02_1-0-10_chair_10_n02791124_3601.png
subject-02,1,466,1.19235110282898,dog,dog,64-0-10,0466_eid_s02_64-0-10_dog_10_n02110063_12166.png
subject-02,1,467,0.801926851272583,keyboard,oven,128-0-10,0467_eid_s02_128-0-10_oven_10_n04111531_5328.png
subject-02,1,468,1.05192899703979,elephant,oven,1-0-10,0468_eid_s02_1-0-10_oven_10_n04111531_3121.png
subject-02,1,469,0.889652967453003,knife,knife,1-0-10,0469_eid_s02_1-0-10_knife_10_n03041632_26314.png
subject-02,1,470,0.817464828491211,cat,chair,32-0-10,0470_eid_s02_32-0-10_chair_10_n04429376_25268.png
subject-02,1,471,1.363440990448,airplane,keyboard,8-0-10,0471_eid_s02_8-0-10_keyboard_10_n03085013_17035.png
subject-02,1,472,0.913252115249634,dog,cat,16-0-10,0472_eid_s02_16-0-10_cat_10_n02123045_20507.png
subject-02,1,473,1.1367609500885,oven,oven,8-0-10,0473_eid_s02_8-0-10_oven_10_n04111531_4944.png
subject-02,1,474,0.913060188293457,cat,oven,32-0-10,0474_eid_s02_32-0-10_oven_10_n04111531_9613.png
subject-02,1,475,0.948477983474731,car,car,8-0-10,0475_eid_s02_8-0-10_car_10_n02814533_12271.png
subject-02,1,476,0.842385053634644,dog,dog,8-0-10,0476_eid_s02_8-0-10_dog_10_n02092339_2607.png
subject-02,1,477,1.16018319129944,dog,cat,64-0-10,0477_eid_s02_64-0-10_cat_10_n02125311_47792.png
subject-02,1,478,0.976069211959839,boat,bird,2-0-10,0478_eid_s02_2-0-10_bird_10_n02056570_9511.png
subject-02,1,479,0.899891138076782,dog,boat,64-0-10,0479_eid_s02_64-0-10_boat_10_n04273569_1141.png
subject-02,1,480,0.833864212036133,cat,elephant,64-0-10,0480_eid_s02_64-0-10_elephant_10_n02504013_10765.png
subject-02,1,481,1.26312112808228,oven,knife,2-0-10,0481_eid_s02_2-0-10_knife_10_n03041632_22480.png
subject-02,1,482,0.813024997711182,chair,chair,2-0-10,0482_eid_s02_2-0-10_chair_10_n03376595_6973.png
subject-02,1,483,0.918944835662842,airplane,airplane,2-0-10,0483_eid_s02_2-0-10_airplane_10_n02690373_1441.png
subject-02,1,484,0.828701972961426,dog,truck,32-0-10,0484_eid_s02_32-0-10_truck_10_n03417042_2812.png
subject-02,1,485,0.800843000411987,cat,clock,64-0-10,0485_eid_s02_64-0-10_clock_10_n04548280_3293.png
subject-02,1,486,1.16239595413208,bicycle,bicycle,8-0-10,0486_eid_s02_8-0-10_bicycle_10_n03792782_126.png
subject-02,1,487,0.720126152038574,cat,cat,2-0-10,0487_eid_s02_2-0-10_cat_10_n02124075_11153.png
subject-02,1,488,0.932125806808472,dog,chair,128-0-10,0488_eid_s02_128-0-10_chair_10_n02791124_3916.png
subject-02,1,489,0.717815160751343,cat,dog,32-0-10,0489_eid_s02_32-0-10_dog_10_n02088238_4028.png
subject-02,1,490,0.767643928527832,cat,bird,128-0-10,0490_eid_s02_128-0-10_bird_10_n02051845_2316.png
subject-02,1,491,0.623504877090454,cat,cat,1-0-10,0491_eid_s02_1-0-10_cat_10_n02124075_12622.png
subject-02,1,492,0.979295015335083,dog,car,64-0-10,0492_eid_s02_64-0-10_car_10_n04285008_11893.png
subject-02,1,493,1.50012111663818,knife,bottle,2-0-10,0493_eid_s02_2-0-10_bottle_10_n04557648_21449.png
subject-02,1,494,0.712960004806519,cat,bear,64-0-10,0494_eid_s02_64-0-10_bear_10_n02132136_11027.png
subject-02,1,495,0.762527942657471,cat,oven,16-0-10,0495_eid_s02_16-0-10_oven_10_n04111531_5792.png
subject-02,1,496,1.28246212005615,bird,chair,128-0-10,0496_eid_s02_128-0-10_chair_10_n04099969_20604.png
subject-02,1,497,0.864678859710693,bird,dog,128-0-10,0497_eid_s02_128-0-10_dog_10_n02106030_11782.png
subject-02,1,498,0.712090969085693,boat,boat,1-0-10,0498_eid_s02_1-0-10_boat_10_n04273569_15455.png
subject-02,1,499,0.970215082168579,dog,bear,64-0-10,0499_eid_s02_64-0-10_bear_10_n02134418_912.png
subject-02,1,500,0.826108932495117,truck,truck,2-0-10,0500_eid_s02_2-0-10_truck_10_n04467665_41352.png
subject-02,1,501,0.867506980895996,bear,clock,64-0-10,0501_eid_s02_64-0-10_clock_10_n02708093_2943.png
subject-02,1,502,1.05134510993958,bear,chair,64-0-10,0502_eid_s02_64-0-10_chair_10_n04429376_36848.png
subject-02,1,503,0.907088994979858,keyboard,keyboard,1-0-10,0503_eid_s02_1-0-10_keyboard_10_n03085013_8677.png
subject-02,1,504,1.49709606170654,bottle,elephant,128-0-10,0504_eid_s02_128-0-10_elephant_10_n02504013_6501.png
subject-02,1,505,0.834772109985352,chair,chair,4-0-10,0505_eid_s02_4-0-10_chair_10_n02791124_15606.png
subject-02,1,506,0.860647916793823,dog,truck,16-0-10,0506_eid_s02_16-0-10_truck_10_n04467665_2695.png
subject-02,1,507,0.842334985733032,bottle,bottle,1-0-10,0507_eid_s02_1-0-10_bottle_10_n04591713_956.png
subject-02,1,508,0.882277965545654,elephant,elephant,1-0-10,0508_eid_s02_1-0-10_elephant_10_n02504013_6287.png
subject-02,1,509,0.918086051940918,bicycle,chair,16-0-10,0509_eid_s02_16-0-10_chair_10_n02791124_6505.png
subject-02,1,510,0.881894111633301,knife,bottle,1-0-10,0510_eid_s02_1-0-10_bottle_10_n04557648_264.png
subject-02,1,511,1.03361582756042,boat,knife,16-0-10,0511_eid_s02_16-0-10_knife_10_n03041632_80829.png
subject-02,1,512,1.28755903244019,bear,bear,8-0-10,0512_eid_s02_8-0-10_bear_10_n02134084_14992.png
subject-02,1,513,1.28135108947754,oven,knife,8-0-10,0513_eid_s02_8-0-10_knife_10_n03041632_38540.png
subject-02,1,514,0.824955940246582,oven,elephant,16-0-10,0514_eid_s02_16-0-10_elephant_10_n02504013_3857.png
subject-02,1,515,1.10884499549866,oven,car,8-0-10,0515_eid_s02_8-0-10_car_10_n02814533_79696.png
subject-02,1,516,0.892951011657715,elephant,elephant,1-0-10,0516_eid_s02_1-0-10_elephant_10_n02504013_5351.png
subject-02,1,517,0.800585985183716,truck,truck,2-0-10,0517_eid_s02_2-0-10_truck_10_n04467665_58500.png
subject-02,1,518,0.906466960906982,bicycle,car,128-0-10,0518_eid_s02_128-0-10_car_10_n02814533_64988.png
subject-02,1,519,1.09016418457031,bird,bicycle,32-0-10,0519_eid_s02_32-0-10_bicycle_10_n03792782_10437.png
subject-02,1,520,0.758299112319946,oven,oven,8-0-10,0520_eid_s02_8-0-10_oven_10_n04111531_16583.png
subject-02,1,521,0.737627983093262,cat,oven,32-0-10,0521_eid_s02_32-0-10_oven_10_n04111531_9314.png
subject-02,1,522,1.5,bird,bottle,32-0-10,0522_eid_s02_32-0-10_bottle_10_n03983396_10229.png
subject-02,1,523,1.0174548625946,bicycle,bicycle,16-0-10,0523_eid_s02_16-0-10_bicycle_10_n03792782_1778.png
subject-02,1,524,0.763216972351074,car,car,4-0-10,0524_eid_s02_4-0-10_car_10_n03100240_5570.png
subject-02,1,525,0.696917057037354,boat,truck,8-0-10,0525_eid_s02_8-0-10_truck_10_n04467665_69892.png
subject-02,1,526,0.92677903175354,chair,chair,2-0-10,0526_eid_s02_2-0-10_chair_10_n02791124_11523.png
subject-02,1,527,0.796519041061401,knife,knife,2-0-10,0527_eid_s02_2-0-10_knife_10_n03041632_54191.png
subject-02,1,528,0.948482990264893,bear,clock,32-0-10,0528_eid_s02_32-0-10_clock_10_n03196217_3695.png
subject-02,1,529,0.724280118942261,car,car,4-0-10,0529_eid_s02_4-0-10_car_10_n02814533_11273.png
subject-02,1,530,0.760415077209473,bicycle,bicycle,2-0-10,0530_eid_s02_2-0-10_bicycle_10_n02835271_3406.png
subject-02,1,531,0.95024299621582,bird,chair,8-0-10,0531_eid_s02_8-0-10_chair_10_n04429376_17013.png
subject-02,1,532,0.891739845275879,cat,bird,64-0-10,0532_eid_s02_64-0-10_bird_10_n02025239_6209.png
subject-02,1,533,0.753607988357544,airplane,airplane,8-0-10,0533_eid_s02_8-0-10_airplane_10_n02690373_1161.png
subject-02,1,534,1.17146515846252,dog,car,32-0-10,0534_eid_s02_32-0-10_car_10_n02814533_6498.png
subject-02,1,535,1.50013399124146,bottle,bottle,8-0-10,0535_eid_s02_8-0-10_bottle_10_n04591713_807.png
subject-02,1,536,1.30285501480103,oven,oven,16-0-10,0536_eid_s02_16-0-10_oven_10_n04111531_8988.png
subject-02,1,537,1.42511391639709,bird,elephant,32-0-10,0537_eid_s02_32-0-10_elephant_10_n02504013_5678.png
subject-02,1,538,0.802457094192505,bear,bear,1-0-10,0538_eid_s02_1-0-10_bear_10_n02134084_8601.png
subject-02,1,539,0.800529956817627,elephant,elephant,1-0-10,0539_eid_s02_1-0-10_elephant_10_n02504458_12074.png
subject-02,1,540,0.906193017959595,bear,dog,8-0-10,0540_eid_s02_8-0-10_dog_10_n02113712_9172.png
subject-02,1,541,1.34622693061829,bird,airplane,16-0-10,0541_eid_s02_16-0-10_airplane_10_n02690373_17044.png
subject-02,1,542,1.04389595985413,dog,bottle,128-0-10,0542_eid_s02_128-0-10_bottle_10_n03983396_2959.png
subject-02,1,543,1.0856602191925,bear,dog,16-0-10,0543_eid_s02_16-0-10_dog_10_n02107142_9379.png
subject-02,1,544,1.10579895973206,oven,clock,16-0-10,0544_eid_s02_16-0-10_clock_10_n02708093_3173.png
subject-02,1,545,0.95930004119873,bear,bear,1-0-10,0545_eid_s02_1-0-10_bear_10_n02133161_4513.png
subject-02,1,546,0.831022977828979,keyboard,truck,128-0-10,0546_eid_s02_128-0-10_truck_10_n03796401_9953.png
subject-02,1,547,0.936823844909668,dog,dog,2-0-10,0547_eid_s02_2-0-10_dog_10_n02102177_3185.png
subject-02,1,548,0.946604013442993,chair,oven,8-0-10,0548_eid_s02_8-0-10_oven_10_n04111531_12952.png
subject-02,1,549,0.942404985427856,dog,chair,64-0-10,0549_eid_s02_64-0-10_chair_10_n03376595_3015.png
subject-02,1,550,1.03238391876221,dog,bottle,8-0-10,0550_eid_s02_8-0-10_bottle_10_n04560804_32775.png
subject-02,1,551,1.03408598899841,truck,truck,2-0-10,0551_eid_s02_2-0-10_truck_10_n04467665_32276.png
subject-02,1,552,0.946087837219238,boat,bird,16-0-10,0552_eid_s02_16-0-10_bird_10_n01855032_8095.png
subject-02,1,553,1.02006983757019,elephant,elephant,4-0-10,0553_eid_s02_4-0-10_elephant_10_n02504013_10582.png
subject-02,1,554,0.847446918487549,keyboard,keyboard,8-0-10,0554_eid_s02_8-0-10_keyboard_10_n04505470_2869.png
subject-02,1,555,1.01513910293579,dog,clock,64-0-10,0555_eid_s02_64-0-10_clock_10_n04548280_1893.png
subject-02,1,556,0.877367973327637,car,car,8-0-10,0556_eid_s02_8-0-10_car_10_n03100240_7134.png
subject-02,1,557,0.668889999389648,cat,cat,1-0-10,0557_eid_s02_1-0-10_cat_10_n02123045_13545.png
subject-02,1,558,0.792962074279785,boat,boat,2-0-10,0558_eid_s02_2-0-10_boat_10_n02951358_7137.png
subject-02,1,559,1.4525580406189,bottle,bottle,8-0-10,0559_eid_s02_8-0-10_bottle_10_n03983396_5828.png
subject-02,1,560,0.970512866973877,dog,chair,64-0-10,0560_eid_s02_64-0-10_chair_10_n03376595_3038.png
subject-02,1,561,0.687743186950684,cat,oven,8-0-10,0561_eid_s02_8-0-10_oven_10_n04111531_114.png
subject-02,1,562,1.16759991645813,oven,boat,32-0-10,0562_eid_s02_32-0-10_boat_10_n04273569_9821.png
subject-02,1,563,0.697084188461304,cat,car,128-0-10,0563_eid_s02_128-0-10_car_10_n03100240_963.png
subject-02,1,564,0.784839868545532,cat,dog,64-0-10,0564_eid_s02_64-0-10_dog_10_n02106662_4437.png
subject-02,1,565,0.860818147659302,truck,truck,1-0-10,0565_eid_s02_1-0-10_truck_10_n03417042_8953.png
subject-02,1,566,1.12859106063843,bicycle,bicycle,1-0-10,0566_eid_s02_1-0-10_bicycle_10_n02835271_2570.png
subject-02,1,567,0.834394931793213,chair,chair,8-0-10,0567_eid_s02_8-0-10_chair_10_n03376595_6589.png
subject-02,1,568,1.15998697280884,dog,car,32-0-10,0568_eid_s02_32-0-10_car_10_n04285008_5869.png
subject-02,1,569,1.08390808105469,elephant,elephant,8-0-10,0569_eid_s02_8-0-10_elephant_10_n02504013_4005.png
subject-02,1,570,0.723833799362183,clock,clock,8-0-10,0570_eid_s02_8-0-10_clock_10_n04548280_7826.png
subject-02,1,571,0.749598026275635,cat,bear,8-0-10,0571_eid_s02_8-0-10_bear_10_n02133161_12751.png
subject-02,1,572,1.50002598762512,bicycle,bicycle,8-0-10,0572_eid_s02_8-0-10_bicycle_10_n03792782_34550.png
subject-02,1,573,0.771560192108154,cat,bird,128-0-10,0573_eid_s02_128-0-10_bird_10_n02056570_8553.png
subject-02,1,574,0.704905986785889,cat,oven,64-0-10,0574_eid_s02_64-0-10_oven_10_n04111531_8553.png
subject-02,1,575,1.25689506530762,dog,bottle,32-0-10,0575_eid_s02_32-0-10_bottle_10_n04591713_13589.png
subject-02,1,576,1.07266592979431,bear,keyboard,32-0-10,0576_eid_s02_32-0-10_keyboard_10_n03085013_23566.png
subject-02,1,577,0.638434171676636,cat,dog,64-0-10,0577_eid_s02_64-0-10_dog_10_n02097130_3519.png
subject-02,1,578,0.812314033508301,bicycle,bicycle,8-0-10,0578_eid_s02_8-0-10_bicycle_10_n02835271_25268.png
subject-02,1,579,1.21414995193481,bird,truck,64-0-10,0579_eid_s02_64-0-10_truck_10_n03417042_26843.png
subject-02,1,580,0.911903858184814,oven,cat,16-0-10,0580_eid_s02_16-0-10_cat_10_n02123394_5726.png
subject-02,1,581,1.01009011268616,cat,cat,128-0-10,0581_eid_s02_128-0-10_cat_10_n02123159_5716.png
subject-02,1,582,1.09988903999329,boat,airplane,16-0-10,0582_eid_s02_16-0-10_airplane_10_n02690373_1075.png
subject-02,1,583,0.649178981781006,cat,bird,16-0-10,0583_eid_s02_16-0-10_bird_10_n02037110_875.png
subject-02,1,584,0.973037958145142,boat,boat,1-0-10,0584_eid_s02_1-0-10_boat_10_n04273569_29113.png
subject-02,1,585,1.38496494293213,keyboard,oven,4-0-10,0585_eid_s02_4-0-10_oven_10_n04111531_7266.png
subject-02,1,586,1.50011706352234,bottle,bird,1-0-10,0586_eid_s02_1-0-10_bird_10_n01530575_3831.png
subject-02,1,587,0.866608142852783,cat,knife,128-0-10,0587_eid_s02_128-0-10_knife_10_n03041632_2438.png
subject-02,1,588,1.08252692222595,car,car,1-0-10,0588_eid_s02_1-0-10_car_10_n02814533_149.png
subject-02,1,589,1.07010912895203,elephant,dog,8-0-10,0589_eid_s02_8-0-10_dog_10_n02104029_5465.png
subject-02,1,590,0.684377908706665,oven,oven,1-0-10,0590_eid_s02_1-0-10_oven_10_n04111531_18979.png
subject-02,1,591,0.799760818481445,boat,boat,16-0-10,0591_eid_s02_16-0-10_boat_10_n04273569_9452.png
subject-02,1,592,1.24974393844604,bird,elephant,32-0-10,0592_eid_s02_32-0-10_elephant_10_n02504458_379.png
subject-02,1,593,0.885611057281494,boat,car,16-0-10,0593_eid_s02_16-0-10_car_10_n03100240_24544.png
subject-02,1,594,1.02362394332886,bottle,bottle,8-0-10,0594_eid_s02_8-0-10_bottle_10_n03983396_13764.png
subject-02,1,595,0.963083028793335,elephant,elephant,2-0-10,0595_eid_s02_2-0-10_elephant_10_n02504013_7926.png
subject-02,1,596,0.974943876266479,boat,keyboard,8-0-10,0596_eid_s02_8-0-10_keyboard_10_n03085013_23563.png
subject-02,1,597,1.30673885345459,oven,bottle,16-0-10,0597_eid_s02_16-0-10_bottle_10_n04560804_5068.png
subject-02,1,598,1.24083590507507,bird,bird,4-0-10,0598_eid_s02_4-0-10_bird_10_n01796340_4181.png
subject-02,1,599,1.1344039440155,elephant,elephant,16-0-10,0599_eid_s02_16-0-10_elephant_10_n02504458_3570.png
subject-02,1,600,0.958242893218994,cat,car,16-0-10,0600_eid_s02_16-0-10_car_10_n03100240_7788.png
subject-02,1,601,0.937918186187744,cat,elephant,128-0-10,0601_eid_s02_128-0-10_elephant_10_n02504458_964.png
subject-02,1,602,1.03594398498535,dog,car,8-0-10,0602_eid_s02_8-0-10_car_10_n03100240_1140.png
subject-02,1,603,0.726036071777344,cat,dog,128-0-10,0603_eid_s02_128-0-10_dog_10_n02101006_17876.png
subject-02,1,604,0.769261837005615,bottle,bottle,1-0-10,0604_eid_s02_1-0-10_bottle_10_n03983396_12916.png
subject-02,1,605,0.725403785705566,cat,keyboard,64-0-10,0605_eid_s02_64-0-10_keyboard_10_n03085013_20460.png
subject-02,1,606,0.790863990783691,bicycle,bicycle,8-0-10,0606_eid_s02_8-0-10_bicycle_10_n03792782_66771.png
subject-02,1,607,0.694707870483398,cat,bottle,128-0-10,0607_eid_s02_128-0-10_bottle_10_n04560804_16276.png
subject-02,1,608,1.36262702941895,dog,oven,16-0-10,0608_eid_s02_16-0-10_oven_10_n04111531_13542.png
subject-02,1,609,0.890511035919189,dog,chair,16-0-10,0609_eid_s02_16-0-10_chair_10_n02791124_3109.png
subject-02,1,610,1.03828096389771,dog,truck,16-0-10,0610_eid_s02_16-0-10_truck_10_n03796401_7421.png
subject-02,1,611,0.884102821350098,elephant,elephant,2-0-10,0611_eid_s02_2-0-10_elephant_10_n02504013_9299.png
subject-02,1,612,0.754011154174805,cat,oven,16-0-10,0612_eid_s02_16-0-10_oven_10_n04111531_766.png
subject-02,1,613,0.665548086166382,keyboard,keyboard,1-0-10,0613_eid_s02_1-0-10_keyboard_10_n03085013_24284.png
subject-02,1,614,1.50005793571472,dog,chair,8-0-10,0614_eid_s02_8-0-10_chair_10_n04099969_6825.png
subject-02,1,615,0.955692052841187,dog,bear,128-0-10,0615_eid_s02_128-0-10_bear_10_n02133161_1624.png
subject-02,1,616,0.817137002944946,cat,knife,16-0-10,0616_eid_s02_16-0-10_knife_10_n03041632_27134.png
subject-02,1,617,1.50004386901855,chair,clock,4-0-10,0617_eid_s02_4-0-10_clock_10_n04548280_28.png
subject-02,1,618,0.616688013076782,cat,bear,128-0-10,0618_eid_s02_128-0-10_bear_10_n02134418_377.png
subject-02,1,619,0.696462154388428,cat,bear,64-0-10,0619_eid_s02_64-0-10_bear_10_n02132136_14832.png
subject-02,1,620,0.576362133026123,cat,elephant,64-0-10,0620_eid_s02_64-0-10_elephant_10_n02504013_6423.png
subject-02,1,621,0.642215013504028,cat,boat,128-0-10,0621_eid_s02_128-0-10_boat_10_n04273569_4605.png
subject-02,1,622,1.20212197303772,oven,knife,16-0-10,0622_eid_s02_16-0-10_knife_10_n03041632_992.png
subject-02,1,623,0.679870843887329,knife,knife,4-0-10,0623_eid_s02_4-0-10_knife_10_n03041632_11969.png
subject-02,1,624,0.661978006362915,cat,bear,32-0-10,0624_eid_s02_32-0-10_bear_10_n02133161_1480.png
subject-02,1,625,0.819270849227905,bottle,bottle,4-0-10,0625_eid_s02_4-0-10_bottle_10_n03983396_7337.png
subject-02,1,626,0.995274066925049,chair,chair,4-0-10,0626_eid_s02_4-0-10_chair_10_n03376595_6333.png
subject-02,1,627,0.740998029708862,boat,boat,2-0-10,0627_eid_s02_2-0-10_boat_10_n04273569_17322.png
subject-02,1,628,0.668754816055298,bird,bird,1-0-10,0628_eid_s02_1-0-10_bird_10_n02006656_9134.png
subject-02,1,629,1.15658593177795,dog,bear,2-0-10,0629_eid_s02_2-0-10_bear_10_n02133161_9724.png
subject-02,1,630,1.00465106964111,boat,boat,16-0-10,0630_eid_s02_16-0-10_boat_10_n03344393_2381.png
subject-02,1,631,0.802217960357666,knife,knife,2-0-10,0631_eid_s02_2-0-10_knife_10_n03041632_28443.png
subject-02,1,632,0.798089981079102,cat,truck,64-0-10,0632_eid_s02_64-0-10_truck_10_n04467665_80465.png
subject-02,1,633,0.949985027313232,knife,knife,4-0-10,0633_eid_s02_4-0-10_knife_10_n03041632_12748.png
subject-02,1,634,0.987605094909668,bear,bear,16-0-10,0634_eid_s02_16-0-10_bear_10_n02132136_9055.png
subject-02,1,635,1.15360808372498,bird,chair,32-0-10,0635_eid_s02_32-0-10_chair_10_n04099969_6217.png
subject-02,1,636,1.04370999336243,bird,boat,32-0-10,0636_eid_s02_32-0-10_boat_10_n04612504_125.png
subject-02,1,637,1.07922697067261,bicycle,truck,16-0-10,0637_eid_s02_16-0-10_truck_10_n03417042_17037.png
subject-02,1,638,1.01929116249084,bird,bird,32-0-10,0638_eid_s02_32-0-10_bird_10_n01797886_14611.png
subject-02,1,639,1.03881216049194,cat,bicycle,64-0-10,0639_eid_s02_64-0-10_bicycle_10_n03792782_59.png
subject-02,1,640,1.24645018577576,keyboard,airplane,128-0-10,0640_eid_s02_128-0-10_airplane_10_n02690373_9293.png
subject-02,1,641,0.998219013214111,cat,bottle,32-0-10,0641_eid_s02_32-0-10_bottle_10_n02823428_4232.png
subject-02,1,642,1.168044090271,cat,truck,64-0-10,0642_eid_s02_64-0-10_truck_10_n04467665_30588.png
subject-02,1,643,0.81795597076416,cat,airplane,128-0-10,0643_eid_s02_128-0-10_airplane_10_n02690373_6807.png
subject-02,1,644,1.08958983421326,bear,chair,8-0-10,0644_eid_s02_8-0-10_chair_10_n04099969_4816.png
subject-02,1,645,0.98346209526062,bottle,chair,16-0-10,0645_eid_s02_16-0-10_chair_10_n04099969_33329.png
subject-02,1,646,0.695389986038208,cat,cat,128-0-10,0646_eid_s02_128-0-10_cat_10_n02123394_6014.png
subject-02,1,647,0.903213024139404,keyboard,chair,64-0-10,0647_eid_s02_64-0-10_chair_10_n04099969_38787.png
subject-02,1,648,0.821130990982056,keyboard,boat,128-0-10,0648_eid_s02_128-0-10_boat_10_n03344393_1573.png
subject-02,1,649,0.868739128112793,clock,clock,2-0-10,0649_eid_s02_2-0-10_clock_10_n04548280_5845.png
subject-02,1,650,0.93652081489563,keyboard,elephant,128-0-10,0650_eid_s02_128-0-10_elephant_10_n02504458_2190.png
subject-02,1,651,0.882538080215454,keyboard,keyboard,128-0-10,0651_eid_s02_128-0-10_keyboard_10_n04505470_4289.png
subject-02,1,652,0.878257036209106,bicycle,bicycle,2-0-10,0652_eid_s02_2-0-10_bicycle_10_n02835271_1932.png
subject-02,1,653,0.984099864959717,bear,bear,4-0-10,0653_eid_s02_4-0-10_bear_10_n02133161_11816.png
subject-02,1,654,NaN,na,knife,8-0-10,0654_eid_s02_8-0-10_knife_10_n03041632_6446.png
subject-02,1,655,1.05165314674377,truck,truck,4-0-10,0655_eid_s02_4-0-10_truck_10_n03796401_2893.png
subject-02,1,656,1.19743490219116,truck,truck,2-0-10,0656_eid_s02_2-0-10_truck_10_n03417042_1716.png
subject-02,1,657,0.97150707244873,bicycle,airplane,32-0-10,0657_eid_s02_32-0-10_airplane_10_n02690373_2823.png
subject-02,1,658,0.951607942581177,car,car,1-0-10,0658_eid_s02_1-0-10_car_10_n02814533_20611.png
subject-02,1,659,0.955051898956299,bicycle,knife,32-0-10,0659_eid_s02_32-0-10_knife_10_n03041632_12949.png
subject-02,1,660,0.926682949066162,bicycle,truck,32-0-10,0660_eid_s02_32-0-10_truck_10_n03417042_16000.png
subject-02,1,661,1.08847594261169,knife,cat,1-0-10,0661_eid_s02_1-0-10_cat_10_n02123394_8695.png
subject-02,1,662,1.10070586204529,boat,knife,32-0-10,0662_eid_s02_32-0-10_knife_10_n03041632_27879.png
subject-02,1,663,1.03028798103333,bicycle,bicycle,8-0-10,0663_eid_s02_8-0-10_bicycle_10_n02835271_976.png
subject-02,1,664,0.750349998474121,bicycle,bicycle,4-0-10,0664_eid_s02_4-0-10_bicycle_10_n03792782_22908.png
subject-02,1,665,0.855917930603027,bottle,bottle,1-0-10,0665_eid_s02_1-0-10_bottle_10_n04579145_5979.png
subject-02,1,666,1.49999499320984,oven,knife,4-0-10,0666_eid_s02_4-0-10_knife_10_n03041632_29680.png
subject-02,1,667,1.48749208450317,bird,bicycle,64-0-10,0667_eid_s02_64-0-10_bicycle_10_n02835271_8757.png
subject-02,1,668,0.981357097625732,cat,chair,128-0-10,0668_eid_s02_128-0-10_chair_10_n03376595_13927.png
subject-02,1,669,0.953476905822754,airplane,airplane,1-0-10,0669_eid_s02_1-0-10_airplane_10_n02690373_4136.png
subject-02,1,670,1.50003695487976,oven,bear,2-0-10,0670_eid_s02_2-0-10_bear_10_n02132136_2372.png
subject-02,1,671,0.760631084442139,cat,keyboard,128-0-10,0671_eid_s02_128-0-10_keyboard_10_n04505470_713.png
subject-02,1,672,1.10864186286926,boat,airplane,32-0-10,0672_eid_s02_32-0-10_airplane_10_n02690373_1611.png
subject-02,1,673,0.83039116859436,knife,knife,4-0-10,0673_eid_s02_4-0-10_knife_10_n03041632_32054.png
subject-02,1,674,0.880074977874756,cat,clock,128-0-10,0674_eid_s02_128-0-10_clock_10_n04548280_7795.png
subject-02,1,675,1.0639009475708,bird,elephant,16-0-10,0675_eid_s02_16-0-10_elephant_10_n02504013_3172.png
subject-02,1,676,0.771887063980103,clock,clock,2-0-10,0676_eid_s02_2-0-10_clock_10_n03196217_300.png
subject-02,1,677,1.08179306983948,dog,elephant,16-0-10,0677_eid_s02_16-0-10_elephant_10_n02504458_1327.png
subject-02,1,678,0.709320068359375,cat,bear,128-0-10,0678_eid_s02_128-0-10_bear_10_n02134084_2516.png
subject-02,1,679,1.2093141078949,dog,chair,16-0-10,0679_eid_s02_16-0-10_chair_10_n04099969_28139.png
subject-02,1,680,0.761329174041748,boat,boat,2-0-10,0680_eid_s02_2-0-10_boat_10_n02951358_9933.png
subject-02,1,681,0.982635021209717,boat,oven,16-0-10,0681_eid_s02_16-0-10_oven_10_n04111531_3805.png
subject-02,1,682,0.936793088912964,cat,bird,128-0-10,0682_eid_s02_128-0-10_bird_10_n02009229_5290.png
subject-02,1,683,1.15241408348083,bird,oven,32-0-10,0683_eid_s02_32-0-10_oven_10_n04111531_16795.png
subject-02,1,684,0.852161169052124,chair,chair,1-0-10,0684_eid_s02_1-0-10_chair_10_n03376595_10149.png
subject-02,1,685,1.34250092506409,bicycle,truck,64-0-10,0685_eid_s02_64-0-10_truck_10_n03796401_25102.png
subject-02,1,686,1.31989407539368,bear,bird,16-0-10,0686_eid_s02_16-0-10_bird_10_n01855672_4659.png
subject-02,1,687,1.02807903289795,cat,boat,64-0-10,0687_eid_s02_64-0-10_boat_10_n02951358_7603.png
subject-02,1,688,1.11158800125122,keyboard,keyboard,8-0-10,0688_eid_s02_8-0-10_keyboard_10_n04505470_4776.png
subject-02,1,689,1.09128284454346,boat,truck,8-0-10,0689_eid_s02_8-0-10_truck_10_n04467665_45306.png
subject-02,1,690,1.01312899589539,keyboard,keyboard,1-0-10,0690_eid_s02_1-0-10_keyboard_10_n04505470_3371.png
subject-02,1,691,1.00116896629333,truck,truck,4-0-10,0691_eid_s02_4-0-10_truck_10_n03796401_1791.png
subject-02,1,692,0.872920036315918,cat,knife,32-0-10,0692_eid_s02_32-0-10_knife_10_n03041632_24883.png
subject-02,1,693,1.04255700111389,bird,bird,64-0-10,0693_eid_s02_64-0-10_bird_10_n01534433_16586.png
subject-02,1,694,0.918478012084961,bird,bird,2-0-10,0694_eid_s02_2-0-10_bird_10_n02051845_2574.png
subject-02,1,695,0.886399984359741,cat,car,128-0-10,0695_eid_s02_128-0-10_car_10_n02814533_10995.png
subject-02,1,696,1.41592812538147,bottle,oven,32-0-10,0696_eid_s02_32-0-10_oven_10_n04111531_10313.png
subject-02,1,697,1.02190780639648,bicycle,bottle,64-0-10,0697_eid_s02_64-0-10_bottle_10_n04591713_5815.png
subject-02,1,698,1.03353190422058,clock,clock,2-0-10,0698_eid_s02_2-0-10_clock_10_n02708093_5236.png
subject-02,1,699,1.08354306221008,bird,keyboard,16-0-10,0699_eid_s02_16-0-10_keyboard_10_n04505470_1719.png
subject-02,1,700,1.50014710426331,bear,truck,32-0-10,0700_eid_s02_32-0-10_truck_10_n03796401_8117.png
subject-02,1,701,0.763056993484497,cat,keyboard,64-0-10,0701_eid_s02_64-0-10_keyboard_10_n03085013_1483.png
subject-02,1,702,0.922969102859497,boat,boat,16-0-10,0702_eid_s02_16-0-10_boat_10_n03662601_17273.png
subject-02,1,703,0.908826112747192,cat,bear,32-0-10,0703_eid_s02_32-0-10_bear_10_n02134418_2633.png
subject-02,1,704,1.04651999473572,bird,dog,16-0-10,0704_eid_s02_16-0-10_dog_10_n02096051_4804.png
subject-02,1,705,0.958347797393799,dog,airplane,128-0-10,0705_eid_s02_128-0-10_airplane_10_n02690373_6988.png
subject-02,1,706,0.890190839767456,dog,dog,2-0-10,0706_eid_s02_2-0-10_dog_10_n02113624_1170.png
subject-02,1,707,0.901983022689819,bear,bear,4-0-10,0707_eid_s02_4-0-10_bear_10_n02134084_967.png
subject-02,1,708,0.891716957092285,car,car,1-0-10,0708_eid_s02_1-0-10_car_10_n02814533_57353.png
subject-02,1,709,1.02383589744568,keyboard,keyboard,2-0-10,0709_eid_s02_2-0-10_keyboard_10_n04505470_3531.png
subject-02,1,710,1.00326800346375,truck,truck,8-0-10,0710_eid_s02_8-0-10_truck_10_n03417042_16370.png
subject-02,1,711,0.757175922393799,cat,cat,32-0-10,0711_eid_s02_32-0-10_cat_10_n02123394_1879.png
subject-02,1,712,0.737014055252075,cat,car,64-0-10,0712_eid_s02_64-0-10_car_10_n02814533_48754.png
subject-02,1,713,0.85887598991394,bear,bear,1-0-10,0713_eid_s02_1-0-10_bear_10_n02132136_4632.png
subject-02,1,714,1.08677315711975,dog,bird,8-0-10,0714_eid_s02_8-0-10_bird_10_n01820546_4847.png
subject-02,1,715,0.880495071411133,bird,chair,32-0-10,0715_eid_s02_32-0-10_chair_10_n04099969_2532.png
subject-02,1,716,0.956272840499878,chair,chair,4-0-10,0716_eid_s02_4-0-10_chair_10_n04429376_17100.png
subject-02,1,717,0.928108930587769,boat,boat,16-0-10,0717_eid_s02_16-0-10_boat_10_n03662601_5104.png
subject-02,1,718,0.956001996994019,keyboard,keyboard,1-0-10,0718_eid_s02_1-0-10_keyboard_10_n04505470_10697.png
subject-02,1,719,1.48563003540039,car,knife,32-0-10,0719_eid_s02_32-0-10_knife_10_n03041632_13225.png
subject-02,1,720,1.21563196182251,truck,truck,1-0-10,0720_eid_s02_1-0-10_truck_10_n03417042_2204.png
subject-02,1,721,1.50003099441528,cat,elephant,64-0-10,0721_eid_s02_64-0-10_elephant_10_n02504458_12777.png
subject-02,1,722,0.738117933273315,cat,boat,128-0-10,0722_eid_s02_128-0-10_boat_10_n04273569_2396.png
subject-02,1,723,1.00796699523926,bird,dog,64-0-10,0723_eid_s02_64-0-10_dog_10_n02096437_4563.png
subject-02,1,724,1.20786309242249,cat,bottle,128-0-10,0724_eid_s02_128-0-10_bottle_10_n03983396_4540.png
subject-02,1,725,0.515676975250244,cat,oven,128-0-10,0725_eid_s02_128-0-10_oven_10_n04111531_11221.png
subject-02,1,726,1.13750815391541,clock,airplane,4-0-10,0726_eid_s02_4-0-10_airplane_10_n02690373_9175.png
subject-02,1,727,1.11703491210938,bear,bicycle,16-0-10,0727_eid_s02_16-0-10_bicycle_10_n03792782_11995.png
subject-02,1,728,0.753308057785034,boat,dog,16-0-10,0728_eid_s02_16-0-10_dog_10_n02090721_835.png
subject-02,1,729,0.766715049743652,bicycle,bicycle,1-0-10,0729_eid_s02_1-0-10_bicycle_10_n03792782_14424.png
subject-02,1,730,1.19257378578186,boat,elephant,4-0-10,0730_eid_s02_4-0-10_elephant_10_n02504458_6830.png
subject-02,1,731,1.40230107307434,cat,truck,64-0-10,0731_eid_s02_64-0-10_truck_10_n04467665_43222.png
subject-02,1,732,0.87427806854248,keyboard,keyboard,2-0-10,0732_eid_s02_2-0-10_keyboard_10_n03085013_24159.png
subject-02,1,733,0.668029069900513,boat,car,64-0-10,0733_eid_s02_64-0-10_car_10_n03100240_18410.png
subject-02,1,734,1.04782915115356,keyboard,clock,128-0-10,0734_eid_s02_128-0-10_clock_10_n04548280_4872.png
subject-02,1,735,0.947726011276245,bicycle,bicycle,1-0-10,0735_eid_s02_1-0-10_bicycle_10_n02835271_1530.png
subject-02,1,736,1.09163498878479,boat,airplane,32-0-10,0736_eid_s02_32-0-10_airplane_10_n02690373_6491.png
subject-02,1,737,0.767273187637329,bear,bear,2-0-10,0737_eid_s02_2-0-10_bear_10_n02132136_10057.png
subject-02,1,738,0.863426923751831,car,car,4-0-10,0738_eid_s02_4-0-10_car_10_n04285008_7630.png
subject-02,1,739,0.92897891998291,airplane,airplane,8-0-10,0739_eid_s02_8-0-10_airplane_10_n02690373_6836.png
subject-02,1,740,1.13657093048096,airplane,truck,16-0-10,0740_eid_s02_16-0-10_truck_10_n04467665_1009.png
subject-02,1,741,0.794533014297485,boat,boat,8-0-10,0741_eid_s02_8-0-10_boat_10_n04612504_30603.png
subject-02,1,742,0.752518892288208,keyboard,keyboard,1-0-10,0742_eid_s02_1-0-10_keyboard_10_n03085013_9066.png
subject-02,1,743,1.34420990943909,bear,truck,16-0-10,0743_eid_s02_16-0-10_truck_10_n03417042_12328.png
subject-02,1,744,0.839940071105957,dog,bottle,128-0-10,0744_eid_s02_128-0-10_bottle_10_n04557648_4106.png
subject-02,1,745,0.709866046905518,boat,knife,32-0-10,0745_eid_s02_32-0-10_knife_10_n03041632_383.png
subject-02,1,746,0.697542905807495,keyboard,keyboard,2-0-10,0746_eid_s02_2-0-10_keyboard_10_n03085013_23554.png
subject-02,1,747,0.781326055526733,cat,cat,128-0-10,0747_eid_s02_128-0-10_cat_10_n02123597_6291.png
subject-02,1,748,0.715520143508911,oven,oven,1-0-10,0748_eid_s02_1-0-10_oven_10_n04111531_4250.png
subject-02,1,749,0.789083003997803,boat,truck,64-0-10,0749_eid_s02_64-0-10_truck_10_n03796401_25570.png
subject-02,1,750,1.19900608062744,knife,cat,8-0-10,0750_eid_s02_8-0-10_cat_10_n02123045_12181.png
subject-02,1,751,0.740758895874023,bottle,bottle,8-0-10,0751_eid_s02_8-0-10_bottle_10_n03983396_4496.png
subject-02,1,752,0.9703528881073,keyboard,truck,8-0-10,0752_eid_s02_8-0-10_truck_10_n03417042_27093.png
subject-02,1,753,0.976170778274536,keyboard,clock,128-0-10,0753_eid_s02_128-0-10_clock_10_n04548280_23690.png
subject-02,1,754,1.05408191680908,oven,car,8-0-10,0754_eid_s02_8-0-10_car_10_n04285008_2232.png
subject-02,1,755,1.03378486633301,boat,cat,16-0-10,0755_eid_s02_16-0-10_cat_10_n02123045_873.png
subject-02,1,756,0.677772045135498,cat,keyboard,64-0-10,0756_eid_s02_64-0-10_keyboard_10_n04505470_9113.png
subject-02,1,757,1.11155414581299,bird,bear,8-0-10,0757_eid_s02_8-0-10_bear_10_n02132136_20770.png
subject-02,1,758,0.615507125854492,cat,bicycle,128-0-10,0758_eid_s02_128-0-10_bicycle_10_n03792782_28395.png
subject-02,1,759,0.571269989013672,cat,chair,64-0-10,0759_eid_s02_64-0-10_chair_10_n03376595_989.png
subject-02,1,760,0.770963907241821,truck,truck,2-0-10,0760_eid_s02_2-0-10_truck_10_n04467665_15994.png
subject-02,1,761,0.930891036987305,knife,knife,4-0-10,0761_eid_s02_4-0-10_knife_10_n03041632_29580.png
subject-02,1,762,1.05877590179443,bear,bear,16-0-10,0762_eid_s02_16-0-10_bear_10_n02132136_1858.png
subject-02,1,763,1.1984920501709,bird,bird,1-0-10,0763_eid_s02_1-0-10_bird_10_n01614925_7662.png
subject-02,1,764,0.760254859924316,oven,bear,32-0-10,0764_eid_s02_32-0-10_bear_10_n02132136_26438.png
subject-02,1,765,0.94989013671875,truck,truck,1-0-10,0765_eid_s02_1-0-10_truck_10_n04467665_70880.png
subject-02,1,766,0.792035818099976,bottle,bottle,1-0-10,0766_eid_s02_1-0-10_bottle_10_n04560804_433.png
subject-02,1,767,0.925807952880859,bear,elephant,8-0-10,0767_eid_s02_8-0-10_elephant_10_n02504013_3181.png
subject-02,1,768,1.25756406784058,bear,bird,4-0-10,0768_eid_s02_4-0-10_bird_10_n02033041_7196.png
subject-02,1,769,0.831166982650757,bottle,bottle,64-0-10,0769_eid_s02_64-0-10_bottle_10_n03983396_4024.png
subject-02,1,770,1.0669629573822,bottle,bottle,2-0-10,0770_eid_s02_2-0-10_bottle_10_n04560804_12010.png
subject-02,1,771,1.11890602111816,bird,boat,64-0-10,0771_eid_s02_64-0-10_boat_10_n04273569_14454.png
subject-02,1,772,0.912688016891479,bear,dog,2-0-10,0772_eid_s02_2-0-10_dog_10_n02108422_6951.png
subject-02,1,773,1.10261487960815,oven,oven,16-0-10,0773_eid_s02_16-0-10_oven_10_n04111531_2650.png
subject-02,1,774,1.11253094673157,bird,elephant,16-0-10,0774_eid_s02_16-0-10_elephant_10_n02504013_7777.png
subject-02,1,775,0.636245965957642,cat,cat,128-0-10,0775_eid_s02_128-0-10_cat_10_n02123045_7812.png
subject-02,1,776,0.836213111877441,airplane,airplane,1-0-10,0776_eid_s02_1-0-10_airplane_10_n02690373_8592.png
subject-02,1,777,1.29178309440613,boat,bottle,16-0-10,0777_eid_s02_16-0-10_bottle_10_n03983396_19635.png
subject-02,1,778,0.875600099563599,truck,truck,1-0-10,0778_eid_s02_1-0-10_truck_10_n03417042_3389.png
subject-02,1,779,1.23748397827148,airplane,oven,8-0-10,0779_eid_s02_8-0-10_oven_10_n04111531_4671.png
subject-02,1,780,0.803401947021484,airplane,airplane,1-0-10,0780_eid_s02_1-0-10_airplane_10_n02690373_6739.png
subject-02,1,781,1.19121193885803,boat,dog,32-0-10,0781_eid_s02_32-0-10_dog_10_n02105855_995.png
subject-02,1,782,0.665064096450806,cat,bottle,64-0-10,0782_eid_s02_64-0-10_bottle_10_n02823428_1034.png
subject-02,1,783,0.757034063339233,airplane,airplane,4-0-10,0783_eid_s02_4-0-10_airplane_10_n02690373_5142.png
subject-02,1,784,1.31475806236267,dog,bird,64-0-10,0784_eid_s02_64-0-10_bird_10_n01824575_5820.png
subject-02,1,785,1.00614309310913,bear,bear,32-0-10,0785_eid_s02_32-0-10_bear_10_n02132136_4203.png
subject-02,1,786,0.736280202865601,airplane,airplane,1-0-10,0786_eid_s02_1-0-10_airplane_10_n02690373_7355.png
subject-02,1,787,0.740318059921265,car,car,4-0-10,0787_eid_s02_4-0-10_car_10_n02814533_41953.png
subject-02,1,788,1.11965298652649,chair,knife,2-0-10,0788_eid_s02_2-0-10_knife_10_n03041632_13424.png
subject-02,1,789,0.893715858459473,bear,bicycle,32-0-10,0789_eid_s02_32-0-10_bicycle_10_n03792782_693.png
subject-02,1,790,1.25725293159485,bicycle,dog,2-0-10,0790_eid_s02_2-0-10_dog_10_n02090721_5234.png
subject-02,1,791,0.737169027328491,car,car,4-0-10,0791_eid_s02_4-0-10_car_10_n03100240_18711.png
subject-02,1,792,0.811170816421509,bear,bear,1-0-10,0792_eid_s02_1-0-10_bear_10_n02132136_13556.png
subject-02,1,793,0.904794931411743,bird,airplane,32-0-10,0793_eid_s02_32-0-10_airplane_10_n02690373_18506.png
subject-02,1,794,0.662665128707886,cat,airplane,128-0-10,0794_eid_s02_128-0-10_airplane_10_n02690373_8524.png
subject-02,1,795,0.884528160095215,bird,clock,16-0-10,0795_eid_s02_16-0-10_clock_10_n04548280_5130.png
subject-02,1,796,0.790179967880249,bird,knife,16-0-10,0796_eid_s02_16-0-10_knife_10_n03041632_43625.png
subject-02,1,797,0.793933868408203,bicycle,bicycle,128-0-10,0797_eid_s02_128-0-10_bicycle_10_n03792782_4540.png
subject-02,1,798,0.768234968185425,bottle,keyboard,8-0-10,0798_eid_s02_8-0-10_keyboard_10_n03085013_25066.png
subject-02,1,799,0.741531848907471,airplane,airplane,8-0-10,0799_eid_s02_8-0-10_airplane_10_n02690373_6663.png
subject-02,1,800,0.66773796081543,cat,elephant,64-0-10,0800_eid_s02_64-0-10_elephant_10_n02504013_6703.png
subject-02,1,801,1.14397406578064,bird,clock,32-0-10,0801_eid_s02_32-0-10_clock_10_n04548280_16295.png
subject-02,1,802,0.623785018920898,cat,cat,2-0-10,0802_eid_s02_2-0-10_cat_10_n02123159_3026.png
subject-02,1,803,1.22556185722351,bear,oven,128-0-10,0803_eid_s02_128-0-10_oven_10_n04111531_10724.png
subject-02,1,804,1.19727087020874,oven,elephant,16-0-10,0804_eid_s02_16-0-10_elephant_10_n02504013_3602.png
subject-02,1,805,0.93738317489624,bottle,chair,8-0-10,0805_eid_s02_8-0-10_chair_10_n02791124_1704.png
subject-02,1,806,0.588958024978638,clock,clock,2-0-10,0806_eid_s02_2-0-10_clock_10_n04548280_299.png
subject-02,1,807,0.748868942260742,bottle,boat,128-0-10,0807_eid_s02_128-0-10_boat_10_n04612504_1889.png
subject-02,1,808,0.684577941894531,cat,bird,32-0-10,0808_eid_s02_32-0-10_bird_10_n01829413_8851.png
subject-02,1,809,0.690592050552368,bicycle,bird,1-0-10,0809_eid_s02_1-0-10_bird_10_n01824575_10046.png
subject-02,1,810,0.71608304977417,bird,cat,8-0-10,0810_eid_s02_8-0-10_cat_10_n02125311_47927.png
subject-02,1,811,0.667894124984741,cat,elephant,32-0-10,0811_eid_s02_32-0-10_elephant_10_n02504458_6880.png
subject-02,1,812,0.727854013442993,cat,dog,4-0-10,0812_eid_s02_4-0-10_dog_10_n02086910_8694.png
subject-02,1,813,0.727957010269165,cat,knife,64-0-10,0813_eid_s02_64-0-10_knife_10_n03041632_46914.png
subject-02,1,814,0.761575937271118,dog,chair,16-0-10,0814_eid_s02_16-0-10_chair_10_n02791124_14.png
subject-02,1,815,1.23111605644226,clock,chair,2-0-10,0815_eid_s02_2-0-10_chair_10_n03376595_17811.png
subject-02,1,816,0.859107971191406,knife,knife,2-0-10,0816_eid_s02_2-0-10_knife_10_n03041632_25512.png
subject-02,1,817,0.736878871917725,airplane,airplane,4-0-10,0817_eid_s02_4-0-10_airplane_10_n02690373_6429.png
subject-02,1,818,0.562710046768188,cat,bear,128-0-10,0818_eid_s02_128-0-10_bear_10_n02132136_4219.png
subject-02,1,819,0.91875696182251,dog,bear,4-0-10,0819_eid_s02_4-0-10_bear_10_n02133161_9098.png
subject-02,1,820,1.34828996658325,dog,bicycle,32-0-10,0820_eid_s02_32-0-10_bicycle_10_n02835271_507.png
subject-02,1,821,0.672110080718994,keyboard,keyboard,2-0-10,0821_eid_s02_2-0-10_keyboard_10_n04505470_568.png
subject-02,1,822,0.65184497833252,keyboard,clock,8-0-10,0822_eid_s02_8-0-10_clock_10_n03196217_5433.png
subject-02,1,823,0.663658857345581,cat,oven,8-0-10,0823_eid_s02_8-0-10_oven_10_n04111531_10420.png
subject-02,1,824,0.755446910858154,dog,dog,4-0-10,0824_eid_s02_4-0-10_dog_10_n02113624_1212.png
subject-02,1,825,1.03340482711792,elephant,elephant,2-0-10,0825_eid_s02_2-0-10_elephant_10_n02504013_10152.png
subject-02,1,826,1.36508703231812,oven,bird,16-0-10,0826_eid_s02_16-0-10_bird_10_n02007558_15130.png
subject-02,1,827,0.742864847183228,cat,bicycle,8-0-10,0827_eid_s02_8-0-10_bicycle_10_n02835271_3642.png
subject-02,1,828,0.550798177719116,boat,boat,2-0-10,0828_eid_s02_2-0-10_boat_10_n03662601_2171.png
subject-02,1,829,0.616706132888794,cat,cat,1-0-10,0829_eid_s02_1-0-10_cat_10_n02123159_8039.png
subject-02,1,830,0.558363914489746,cat,oven,64-0-10,0830_eid_s02_64-0-10_oven_10_n04111531_8263.png
subject-02,1,831,0.980243921279907,dog,dog,1-0-10,0831_eid_s02_1-0-10_dog_10_n02104365_179.png
subject-02,1,832,0.554313182830811,cat,elephant,128-0-10,0832_eid_s02_128-0-10_elephant_10_n02504458_4395.png
subject-02,1,833,0.705872058868408,cat,boat,64-0-10,0833_eid_s02_64-0-10_boat_10_n04273569_5672.png
subject-02,1,834,0.734117984771729,boat,boat,16-0-10,0834_eid_s02_16-0-10_boat_10_n03662601_17198.png
subject-02,1,835,0.729485988616943,keyboard,keyboard,4-0-10,0835_eid_s02_4-0-10_keyboard_10_n04505470_179.png
subject-02,1,836,0.859454870223999,cat,truck,32-0-10,0836_eid_s02_32-0-10_truck_10_n03796401_10784.png
subject-02,1,837,1.25906300544739,airplane,airplane,16-0-10,0837_eid_s02_16-0-10_airplane_10_n02690373_7915.png
subject-02,1,838,0.808982133865356,bird,bird,2-0-10,0838_eid_s02_2-0-10_bird_10_n02025239_15032.png
subject-02,1,839,0.709228038787842,cat,cat,2-0-10,0839_eid_s02_2-0-10_cat_10_n02124075_8310.png
subject-02,1,840,1.29860782623291,bear,knife,16-0-10,0840_eid_s02_16-0-10_knife_10_n03041632_18766.png
subject-02,1,841,0.886320114135742,truck,truck,4-0-10,0841_eid_s02_4-0-10_truck_10_n04467665_68250.png
subject-02,1,842,0.642614841461182,cat,bird,32-0-10,0842_eid_s02_32-0-10_bird_10_n01532829_3.png
subject-02,1,843,0.817915916442871,boat,chair,2-0-10,0843_eid_s02_2-0-10_chair_10_n02791124_7063.png
subject-02,1,844,1.29987406730652,dog,bicycle,16-0-10,0844_eid_s02_16-0-10_bicycle_10_n03792782_2905.png
subject-02,1,845,0.673974990844727,airplane,airplane,8-0-10,0845_eid_s02_8-0-10_airplane_10_n02690373_7536.png
subject-02,1,846,0.765443086624146,oven,oven,2-0-10,0846_eid_s02_2-0-10_oven_10_n04111531_21382.png
subject-02,1,847,0.70958399772644,cat,bottle,16-0-10,0847_eid_s02_16-0-10_bottle_10_n03983396_11597.png
subject-02,1,848,0.839357137680054,boat,truck,16-0-10,0848_eid_s02_16-0-10_truck_10_n03417042_5875.png
subject-02,1,849,0.980859994888306,bird,keyboard,16-0-10,0849_eid_s02_16-0-10_keyboard_10_n03085013_6643.png
subject-02,1,850,1.06069803237915,bird,bird,8-0-10,0850_eid_s02_8-0-10_bird_10_n01828970_7329.png
subject-02,1,851,0.834724903106689,boat,boat,16-0-10,0851_eid_s02_16-0-10_boat_10_n03344393_6492.png
subject-02,1,852,0.730310916900635,cat,oven,128-0-10,0852_eid_s02_128-0-10_oven_10_n04111531_12129.png
subject-02,1,853,0.828159093856812,oven,oven,2-0-10,0853_eid_s02_2-0-10_oven_10_n04111531_22097.png
subject-02,1,854,0.765917062759399,boat,bicycle,16-0-10,0854_eid_s02_16-0-10_bicycle_10_n02835271_14966.png
subject-02,1,855,1.18573904037476,bear,elephant,64-0-10,0855_eid_s02_64-0-10_elephant_10_n02504458_5941.png
subject-02,1,856,0.79975700378418,boat,bear,1-0-10,0856_eid_s02_1-0-10_bear_10_n02134084_18083.png
subject-02,1,857,0.951555967330933,bird,bird,2-0-10,0857_eid_s02_2-0-10_bird_10_n01820546_4609.png
subject-02,1,858,0.80551290512085,cat,cat,8-0-10,0858_eid_s02_8-0-10_cat_10_n02123045_964.png
subject-02,1,859,0.66104793548584,cat,cat,64-0-10,0859_eid_s02_64-0-10_cat_10_n02123394_1828.png
subject-02,1,860,0.67282509803772,bird,bird,2-0-10,0860_eid_s02_2-0-10_bird_10_n01592084_3147.png
subject-02,1,861,0.926545858383179,bear,knife,8-0-10,0861_eid_s02_8-0-10_knife_10_n03041632_50423.png
subject-02,1,862,0.81252121925354,bottle,bottle,1-0-10,0862_eid_s02_1-0-10_bottle_10_n04560804_5610.png
subject-02,1,863,0.844194889068604,elephant,elephant,4-0-10,0863_eid_s02_4-0-10_elephant_10_n02504013_9796.png
subject-02,1,864,0.660110950469971,cat,cat,128-0-10,0864_eid_s02_128-0-10_cat_10_n02123394_8946.png
subject-02,1,865,0.780055999755859,bear,chair,32-0-10,0865_eid_s02_32-0-10_chair_10_n04099969_114.png
subject-02,1,866,0.98583197593689,bird,chair,8-0-10,0866_eid_s02_8-0-10_chair_10_n04099969_9017.png
subject-02,1,867,0.825391054153442,boat,keyboard,64-0-10,0867_eid_s02_64-0-10_keyboard_10_n03085013_22929.png
subject-02,1,868,0.885483026504517,boat,boat,32-0-10,0868_eid_s02_32-0-10_boat_10_n03344393_5599.png
subject-02,1,869,0.759279012680054,boat,truck,128-0-10,0869_eid_s02_128-0-10_truck_10_n04467665_80153.png
subject-02,1,870,0.731307983398438,boat,bear,64-0-10,0870_eid_s02_64-0-10_bear_10_n02134084_5794.png
subject-02,1,871,0.711134910583496,clock,clock,4-0-10,0871_eid_s02_4-0-10_clock_10_n03196217_5688.png
subject-02,1,872,0.606498956680298,cat,cat,1-0-10,0872_eid_s02_1-0-10_cat_10_n02123394_6693.png
subject-02,1,873,0.858569145202637,dog,cat,64-0-10,0873_eid_s02_64-0-10_cat_10_n02123597_12711.png
subject-02,1,874,0.736403226852417,car,car,2-0-10,0874_eid_s02_2-0-10_car_10_n04285008_7511.png
subject-02,1,875,0.724252939224243,airplane,airplane,4-0-10,0875_eid_s02_4-0-10_airplane_10_n02690373_5164.png
subject-02,1,876,0.695950984954834,airplane,airplane,1-0-10,0876_eid_s02_1-0-10_airplane_10_n02690373_3728.png
subject-02,1,877,1.09764409065247,dog,dog,4-0-10,0877_eid_s02_4-0-10_dog_10_n02086646_6567.png
subject-02,1,878,0.742007970809937,boat,boat,8-0-10,0878_eid_s02_8-0-10_boat_10_n04273569_7315.png
subject-02,1,879,1.13729095458984,airplane,boat,16-0-10,0879_eid_s02_16-0-10_boat_10_n04273569_3896.png
subject-02,1,880,0.731067895889282,airplane,airplane,8-0-10,0880_eid_s02_8-0-10_airplane_10_n02690373_19152.png
subject-02,1,881,1.1385669708252,cat,dog,64-0-10,0881_eid_s02_64-0-10_dog_10_n02096051_3825.png
subject-02,1,882,0.689838886260986,bottle,bottle,4-0-10,0882_eid_s02_4-0-10_bottle_10_n02823428_2754.png
subject-02,1,883,0.659689903259277,bicycle,bicycle,2-0-10,0883_eid_s02_2-0-10_bicycle_10_n03792782_42626.png
subject-02,1,884,0.773784875869751,bear,car,16-0-10,0884_eid_s02_16-0-10_car_10_n03100240_5281.png
subject-02,1,885,0.677414894104004,bottle,bottle,2-0-10,0885_eid_s02_2-0-10_bottle_10_n04591713_2123.png
subject-02,1,886,0.835283041000366,boat,bird,8-0-10,0886_eid_s02_8-0-10_bird_10_n01514859_7974.png
subject-02,1,887,0.692985057830811,boat,elephant,4-0-10,0887_eid_s02_4-0-10_elephant_10_n02504458_5816.png
subject-02,1,888,0.630846977233887,cat,clock,32-0-10,0888_eid_s02_32-0-10_clock_10_n04548280_2260.png
subject-02,1,889,0.678650140762329,cat,truck,128-0-10,0889_eid_s02_128-0-10_truck_10_n03796401_4898.png
subject-02,1,890,0.626451015472412,cat,keyboard,128-0-10,0890_eid_s02_128-0-10_keyboard_10_n04505470_3905.png
subject-02,1,891,0.848083972930908,bear,boat,64-0-10,0891_eid_s02_64-0-10_boat_10_n03662601_18641.png
subject-02,1,892,0.704126119613647,cat,cat,32-0-10,0892_eid_s02_32-0-10_cat_10_n02123597_5768.png
subject-02,1,893,0.74382209777832,bird,bear,128-0-10,0893_eid_s02_128-0-10_bear_10_n02134084_6286.png
subject-02,1,894,0.759636878967285,car,car,8-0-10,0894_eid_s02_8-0-10_car_10_n02814533_37736.png
subject-02,1,895,1.14580988883972,boat,bird,128-0-10,0895_eid_s02_128-0-10_bird_10_n02028035_32993.png
subject-02,1,896,0.775376081466675,cat,cat,64-0-10,0896_eid_s02_64-0-10_cat_10_n02125311_42593.png
subject-02,1,897,0.583420991897583,cat,car,128-0-10,0897_eid_s02_128-0-10_car_10_n02814533_23512.png
subject-02,1,898,1.0650999546051,bird,cat,16-0-10,0898_eid_s02_16-0-10_cat_10_n02123597_7069.png
subject-02,1,899,0.770591974258423,car,car,4-0-10,0899_eid_s02_4-0-10_car_10_n02814533_245.png
subject-02,1,900,0.70247220993042,boat,bird,8-0-10,0900_eid_s02_8-0-10_bird_10_n02013706_406.png
subject-02,1,901,1.17228579521179,airplane,truck,16-0-10,0901_eid_s02_16-0-10_truck_10_n03417042_4157.png
subject-02,1,902,0.688072919845581,bicycle,bicycle,1-0-10,0902_eid_s02_1-0-10_bicycle_10_n02835271_2050.png
subject-02,1,903,0.645891904830933,clock,clock,2-0-10,0903_eid_s02_2-0-10_clock_10_n04548280_6159.png
subject-02,1,904,0.895775079727173,bear,bear,8-0-10,0904_eid_s02_8-0-10_bear_10_n02134084_3960.png
subject-02,1,905,0.905451059341431,bear,bear,4-0-10,0905_eid_s02_4-0-10_bear_10_n02134084_2949.png
subject-02,1,906,0.81528115272522,keyboard,keyboard,4-0-10,0906_eid_s02_4-0-10_keyboard_10_n04505470_64.png
subject-02,1,907,0.911237955093384,keyboard,clock,16-0-10,0907_eid_s02_16-0-10_clock_10_n03196217_7816.png
subject-02,1,908,0.774821043014526,bear,truck,32-0-10,0908_eid_s02_32-0-10_truck_10_n03417042_3862.png
subject-02,1,909,1.00492906570435,bottle,bottle,2-0-10,0909_eid_s02_2-0-10_bottle_10_n03937543_7877.png
subject-02,1,910,0.656886100769043,bicycle,bicycle,1-0-10,0910_eid_s02_1-0-10_bicycle_10_n02835271_17357.png
subject-02,1,911,0.866297960281372,boat,oven,1-0-10,0911_eid_s02_1-0-10_oven_10_n04111531_10216.png
subject-02,1,912,1.41429805755615,bird,bear,16-0-10,0912_eid_s02_16-0-10_bear_10_n02133161_25789.png
subject-02,1,913,0.830326795578003,knife,knife,8-0-10,0913_eid_s02_8-0-10_knife_10_n03041632_26933.png
subject-02,1,914,0.910081148147583,bicycle,truck,8-0-10,0914_eid_s02_8-0-10_truck_10_n03417042_11439.png
subject-02,1,915,0.702101945877075,cat,clock,32-0-10,0915_eid_s02_32-0-10_clock_10_n02708093_3669.png
subject-02,1,916,1.08146715164185,bear,bear,8-0-10,0916_eid_s02_8-0-10_bear_10_n02132136_4261.png
subject-02,1,917,0.835273027420044,truck,truck,8-0-10,0917_eid_s02_8-0-10_truck_10_n03417042_6493.png
subject-02,1,918,0.685065984725952,cat,chair,32-0-10,0918_eid_s02_32-0-10_chair_10_n03376595_9395.png
subject-02,1,919,1.04095387458801,oven,chair,32-0-10,0919_eid_s02_32-0-10_chair_10_n03376595_8083.png
subject-02,1,920,0.826709032058716,airplane,airplane,4-0-10,0920_eid_s02_4-0-10_airplane_10_n02690373_2324.png
subject-02,1,921,0.994451999664307,bottle,chair,4-0-10,0921_eid_s02_4-0-10_chair_10_n04429376_33792.png
subject-02,1,922,0.826363086700439,keyboard,bicycle,128-0-10,0922_eid_s02_128-0-10_bicycle_10_n02835271_3298.png
subject-02,1,923,1.23614716529846,boat,oven,64-0-10,0923_eid_s02_64-0-10_oven_10_n04111531_769.png
subject-02,1,924,0.880445003509521,cat,elephant,128-0-10,0924_eid_s02_128-0-10_elephant_10_n02504458_8939.png
subject-02,1,925,1.09583210945129,dog,bottle,64-0-10,0925_eid_s02_64-0-10_bottle_10_n04591713_2732.png
subject-02,1,926,0.887763977050781,truck,truck,2-0-10,0926_eid_s02_2-0-10_truck_10_n04467665_78325.png
subject-02,1,927,0.837869167327881,dog,dog,2-0-10,0927_eid_s02_2-0-10_dog_10_n02089973_7552.png
subject-02,1,928,0.699230194091797,cat,bird,16-0-10,0928_eid_s02_16-0-10_bird_10_n02017213_6104.png
subject-02,1,929,0.835078954696655,car,car,2-0-10,0929_eid_s02_2-0-10_car_10_n02814533_20712.png
subject-02,1,930,1.1207640171051,dog,bottle,8-0-10,0930_eid_s02_8-0-10_bottle_10_n04560804_16054.png
subject-02,1,931,0.760550022125244,clock,clock,1-0-10,0931_eid_s02_1-0-10_clock_10_n02708093_4267.png
subject-02,1,932,1.1322979927063,dog,clock,8-0-10,0932_eid_s02_8-0-10_clock_10_n03196217_13380.png
subject-02,1,933,0.666402816772461,cat,car,64-0-10,0933_eid_s02_64-0-10_car_10_n02814533_6716.png
subject-02,1,934,0.866204023361206,knife,knife,4-0-10,0934_eid_s02_4-0-10_knife_10_n03041632_39840.png
subject-02,1,935,0.712029933929443,boat,boat,2-0-10,0935_eid_s02_2-0-10_boat_10_n04273569_14363.png
subject-02,1,936,0.635874032974243,cat,cat,8-0-10,0936_eid_s02_8-0-10_cat_10_n02125311_10230.png
subject-02,1,937,0.693475961685181,cat,truck,32-0-10,0937_eid_s02_32-0-10_truck_10_n04467665_62439.png
subject-02,1,938,0.869308948516846,knife,knife,4-0-10,0938_eid_s02_4-0-10_knife_10_n03041632_1607.png
subject-02,1,939,0.737283945083618,boat,bird,32-0-10,0939_eid_s02_32-0-10_bird_10_n01796340_8342.png
subject-02,1,940,0.792965173721313,airplane,airplane,1-0-10,0940_eid_s02_1-0-10_airplane_10_n02690373_4893.png
subject-02,1,941,0.976878881454468,knife,knife,4-0-10,0941_eid_s02_4-0-10_knife_10_n03041632_14293.png
subject-02,1,942,0.774604082107544,cat,bottle,64-0-10,0942_eid_s02_64-0-10_bottle_10_n04591713_7940.png
subject-02,1,943,0.762424945831299,cat,keyboard,8-0-10,0943_eid_s02_8-0-10_keyboard_10_n03085013_24166.png
subject-02,1,944,0.930356979370117,bear,elephant,16-0-10,0944_eid_s02_16-0-10_elephant_10_n02504458_151.png
subject-02,1,945,0.92801308631897,dog,keyboard,32-0-10,0945_eid_s02_32-0-10_keyboard_10_n04505470_4780.png
subject-02,1,946,0.801944971084595,bicycle,bicycle,1-0-10,0946_eid_s02_1-0-10_bicycle_10_n02835271_17184.png
subject-02,1,947,0.886043071746826,car,car,2-0-10,0947_eid_s02_2-0-10_car_10_n02814533_41478.png
subject-02,1,948,1.12953209877014,oven,truck,32-0-10,0948_eid_s02_32-0-10_truck_10_n03796401_6971.png
subject-02,1,949,0.815306186676025,chair,chair,4-0-10,0949_eid_s02_4-0-10_chair_10_n02791124_8970.png
subject-02,1,950,1.07124996185303,bear,bear,32-0-10,0950_eid_s02_32-0-10_bear_10_n02132136_8516.png
subject-02,1,951,0.750921010971069,oven,clock,128-0-10,0951_eid_s02_128-0-10_clock_10_n04548280_5466.png
subject-02,1,952,0.806820154190063,airplane,airplane,2-0-10,0952_eid_s02_2-0-10_airplane_10_n02690373_6002.png
subject-02,1,953,1.47655010223389,bear,cat,32-0-10,0953_eid_s02_32-0-10_cat_10_n02125311_14714.png
subject-02,1,954,1.45640897750854,bird,bottle,64-0-10,0954_eid_s02_64-0-10_bottle_10_n03937543_2790.png
subject-02,1,955,1.04057788848877,oven,clock,16-0-10,0955_eid_s02_16-0-10_clock_10_n04548280_1438.png
subject-02,1,956,0.746068954467773,airplane,airplane,2-0-10,0956_eid_s02_2-0-10_airplane_10_n02690373_4064.png
subject-02,1,957,0.769973993301392,airplane,airplane,1-0-10,0957_eid_s02_1-0-10_airplane_10_n02690373_3119.png
subject-02,1,958,0.725693941116333,bottle,bottle,2-0-10,0958_eid_s02_2-0-10_bottle_10_n04591713_335.png
subject-02,1,959,1.16179585456848,truck,keyboard,8-0-10,0959_eid_s02_8-0-10_keyboard_10_n03085013_24217.png
subject-02,1,960,0.599181890487671,cat,bicycle,64-0-10,0960_eid_s02_64-0-10_bicycle_10_n03792782_973.png
subject-02,1,961,1.44555902481079,oven,bottle,16-0-10,0961_eid_s02_16-0-10_bottle_10_n04560804_183.png
subject-02,1,962,0.651563167572021,cat,chair,64-0-10,0962_eid_s02_64-0-10_chair_10_n02791124_4432.png
subject-02,1,963,0.553251028060913,clock,clock,1-0-10,0963_eid_s02_1-0-10_clock_10_n02708093_274.png
subject-02,1,964,0.585125923156738,boat,boat,1-0-10,0964_eid_s02_1-0-10_boat_10_n04273569_13290.png
subject-02,1,965,0.796762943267822,oven,oven,4-0-10,0965_eid_s02_4-0-10_oven_10_n04111531_1128.png
subject-02,1,966,0.800732851028442,elephant,elephant,2-0-10,0966_eid_s02_2-0-10_elephant_10_n02504458_1628.png
subject-02,1,967,0.624428033828735,cat,dog,32-0-10,0967_eid_s02_32-0-10_dog_10_n02113624_2109.png
subject-02,1,968,0.606311798095703,cat,boat,32-0-10,0968_eid_s02_32-0-10_boat_10_n02951358_15087.png
subject-02,1,969,0.751991033554077,boat,airplane,16-0-10,0969_eid_s02_16-0-10_airplane_10_n02690373_19329.png
subject-02,1,970,0.60020899772644,cat,keyboard,16-0-10,0970_eid_s02_16-0-10_keyboard_10_n04505470_1833.png
subject-02,1,971,0.685773134231567,airplane,airplane,16-0-10,0971_eid_s02_16-0-10_airplane_10_n02690373_3640.png
subject-02,1,972,1.06979417800903,truck,truck,2-0-10,0972_eid_s02_2-0-10_truck_10_n04467665_3211.png
