subj,session,trial,rt,object_response,category,condition,imagename
swag_regnety_32gf_in1k,1,1,NaN,dog,oven,16-0-10,0001_eid_dnn_16-0-10_oven_10_n04111531_13542.png
swag_regnety_32gf_in1k,1,2,NaN,car,car,4-0-10,0002_eid_dnn_4-0-10_car_10_n03100240_5570.png
swag_regnety_32gf_in1k,1,3,NaN,dog,bird,8-0-10,0003_eid_dnn_8-0-10_bird_10_n01820546_4847.png
swag_regnety_32gf_in1k,1,4,NaN,dog,bear,32-0-10,0004_eid_dnn_32-0-10_bear_10_n02133161_15561.png
swag_regnety_32gf_in1k,1,5,NaN,dog,bird,64-0-10,0005_eid_dnn_64-0-10_bird_10_n01531178_9584.png
swag_regnety_32gf_in1k,1,6,NaN,cat,bicycle,8-0-10,0006_eid_dnn_8-0-10_bicycle_10_n02835271_18846.png
swag_regnety_32gf_in1k,1,7,NaN,bottle,oven,4-0-10,0007_eid_dnn_4-0-10_oven_10_n04111531_73.png
swag_regnety_32gf_in1k,1,8,NaN,clock,clock,2-0-10,0008_eid_dnn_2-0-10_clock_10_n04548280_6159.png
swag_regnety_32gf_in1k,1,9,NaN,dog,chair,32-0-10,0009_eid_dnn_32-0-10_chair_10_n03376595_9395.png
swag_regnety_32gf_in1k,1,10,NaN,dog,bicycle,64-0-10,0010_eid_dnn_64-0-10_bicycle_10_n02835271_1918.png
swag_regnety_32gf_in1k,1,11,NaN,cat,bicycle,128-0-10,0011_eid_dnn_128-0-10_bicycle_10_n02835271_42320.png
swag_regnety_32gf_in1k,1,12,NaN,elephant,elephant,1-0-10,0012_eid_dnn_1-0-10_elephant_10_n02504458_3628.png
swag_regnety_32gf_in1k,1,13,NaN,dog,knife,64-0-10,0013_eid_dnn_64-0-10_knife_10_n03041632_86554.png
swag_regnety_32gf_in1k,1,14,NaN,cat,cat,8-0-10,0014_eid_dnn_8-0-10_cat_10_n02123394_1726.png
swag_regnety_32gf_in1k,1,15,NaN,dog,cat,32-0-10,0015_eid_dnn_32-0-10_cat_10_n02123597_6721.png
swag_regnety_32gf_in1k,1,16,NaN,oven,oven,2-0-10,0016_eid_dnn_2-0-10_oven_10_n04111531_21869.png
swag_regnety_32gf_in1k,1,17,NaN,bear,bear,4-0-10,0017_eid_dnn_4-0-10_bear_10_n02134084_2949.png
swag_regnety_32gf_in1k,1,18,NaN,dog,truck,8-0-10,0018_eid_dnn_8-0-10_truck_10_n03417042_18743.png
swag_regnety_32gf_in1k,1,19,NaN,dog,bird,16-0-10,0019_eid_dnn_16-0-10_bird_10_n01616318_4246.png
swag_regnety_32gf_in1k,1,20,NaN,dog,bicycle,8-0-10,0020_eid_dnn_8-0-10_bicycle_10_n03792782_66771.png
swag_regnety_32gf_in1k,1,21,NaN,keyboard,keyboard,2-0-10,0021_eid_dnn_2-0-10_keyboard_10_n04505470_3531.png
swag_regnety_32gf_in1k,1,22,NaN,knife,clock,8-0-10,0022_eid_dnn_8-0-10_clock_10_n04548280_6463.png
swag_regnety_32gf_in1k,1,23,NaN,dog,keyboard,16-0-10,0023_eid_dnn_16-0-10_keyboard_10_n04505470_4974.png
swag_regnety_32gf_in1k,1,24,NaN,keyboard,chair,4-0-10,0024_eid_dnn_4-0-10_chair_10_n03376595_360.png
swag_regnety_32gf_in1k,1,25,NaN,cat,dog,16-0-10,0025_eid_dnn_16-0-10_dog_10_n02097130_2752.png
swag_regnety_32gf_in1k,1,26,NaN,bicycle,bicycle,2-0-10,0026_eid_dnn_2-0-10_bicycle_10_n02835271_3406.png
swag_regnety_32gf_in1k,1,27,NaN,knife,bottle,16-0-10,0027_eid_dnn_16-0-10_bottle_10_n04560804_11732.png
swag_regnety_32gf_in1k,1,28,NaN,dog,bottle,32-0-10,0028_eid_dnn_32-0-10_bottle_10_n04591713_13589.png
swag_regnety_32gf_in1k,1,29,NaN,cat,cat,2-0-10,0029_eid_dnn_2-0-10_cat_10_n02123045_4009.png
swag_regnety_32gf_in1k,1,30,NaN,oven,chair,8-0-10,0030_eid_dnn_8-0-10_chair_10_n02791124_1704.png
swag_regnety_32gf_in1k,1,31,NaN,cat,bicycle,128-0-10,0031_eid_dnn_128-0-10_bicycle_10_n03792782_28395.png
swag_regnety_32gf_in1k,1,32,NaN,knife,truck,16-0-10,0032_eid_dnn_16-0-10_truck_10_n03417042_4288.png
swag_regnety_32gf_in1k,1,33,NaN,keyboard,keyboard,1-0-10,0033_eid_dnn_1-0-10_keyboard_10_n04505470_3371.png
swag_regnety_32gf_in1k,1,34,NaN,cat,cat,1-0-10,0034_eid_dnn_1-0-10_cat_10_n02124075_13436.png
swag_regnety_32gf_in1k,1,35,NaN,dog,dog,32-0-10,0035_eid_dnn_32-0-10_dog_10_n02097209_8270.png
swag_regnety_32gf_in1k,1,36,NaN,dog,clock,128-0-10,0036_eid_dnn_128-0-10_clock_10_n04548280_7795.png
swag_regnety_32gf_in1k,1,37,NaN,dog,car,32-0-10,0037_eid_dnn_32-0-10_car_10_n03100240_21737.png
swag_regnety_32gf_in1k,1,38,NaN,clock,clock,128-0-10,0038_eid_dnn_128-0-10_clock_10_n02708093_1862.png
swag_regnety_32gf_in1k,1,39,NaN,dog,bicycle,64-0-10,0039_eid_dnn_64-0-10_bicycle_10_n03792782_9412.png
swag_regnety_32gf_in1k,1,40,NaN,dog,bear,32-0-10,0040_eid_dnn_32-0-10_bear_10_n02134418_163.png
swag_regnety_32gf_in1k,1,41,NaN,dog,keyboard,16-0-10,0041_eid_dnn_16-0-10_keyboard_10_n03085013_25675.png
swag_regnety_32gf_in1k,1,42,NaN,truck,truck,2-0-10,0042_eid_dnn_2-0-10_truck_10_n03417042_1716.png
swag_regnety_32gf_in1k,1,43,NaN,dog,keyboard,128-0-10,0043_eid_dnn_128-0-10_keyboard_10_n03085013_18854.png
swag_regnety_32gf_in1k,1,44,NaN,dog,bottle,32-0-10,0044_eid_dnn_32-0-10_bottle_10_n04591713_4865.png
swag_regnety_32gf_in1k,1,45,NaN,dog,bicycle,32-0-10,0045_eid_dnn_32-0-10_bicycle_10_n03792782_693.png
swag_regnety_32gf_in1k,1,46,NaN,dog,bottle,1-0-10,0046_eid_dnn_1-0-10_bottle_10_n04557648_264.png
swag_regnety_32gf_in1k,1,47,NaN,knife,knife,2-0-10,0047_eid_dnn_2-0-10_knife_10_n03041632_25512.png
swag_regnety_32gf_in1k,1,48,NaN,bottle,boat,16-0-10,0048_eid_dnn_16-0-10_boat_10_n03344393_2381.png
swag_regnety_32gf_in1k,1,49,NaN,cat,dog,128-0-10,0049_eid_dnn_128-0-10_dog_10_n02110627_17670.png
swag_regnety_32gf_in1k,1,50,NaN,dog,bear,64-0-10,0050_eid_dnn_64-0-10_bear_10_n02133161_15981.png
swag_regnety_32gf_in1k,1,51,NaN,dog,elephant,16-0-10,0051_eid_dnn_16-0-10_elephant_10_n02504458_3570.png
swag_regnety_32gf_in1k,1,52,NaN,truck,truck,4-0-10,0052_eid_dnn_4-0-10_truck_10_n03417042_6241.png
swag_regnety_32gf_in1k,1,53,NaN,bear,bird,8-0-10,0053_eid_dnn_8-0-10_bird_10_n02025239_17670.png
swag_regnety_32gf_in1k,1,54,NaN,dog,dog,16-0-10,0054_eid_dnn_16-0-10_dog_10_n02106030_19249.png
swag_regnety_32gf_in1k,1,55,NaN,dog,keyboard,32-0-10,0055_eid_dnn_32-0-10_keyboard_10_n04505470_2326.png
swag_regnety_32gf_in1k,1,56,NaN,cat,dog,16-0-10,0056_eid_dnn_16-0-10_dog_10_n02107142_9379.png
swag_regnety_32gf_in1k,1,57,NaN,dog,cat,64-0-10,0057_eid_dnn_64-0-10_cat_10_n02123394_1828.png
swag_regnety_32gf_in1k,1,58,NaN,bottle,car,32-0-10,0058_eid_dnn_32-0-10_car_10_n03100240_4605.png
swag_regnety_32gf_in1k,1,59,NaN,elephant,bicycle,4-0-10,0059_eid_dnn_4-0-10_bicycle_10_n03792782_6765.png
swag_regnety_32gf_in1k,1,60,NaN,knife,boat,8-0-10,0060_eid_dnn_8-0-10_boat_10_n03344393_8455.png
swag_regnety_32gf_in1k,1,61,NaN,knife,oven,16-0-10,0061_eid_dnn_16-0-10_oven_10_n04111531_8603.png
swag_regnety_32gf_in1k,1,62,NaN,bird,bird,2-0-10,0062_eid_dnn_2-0-10_bird_10_n02051845_2574.png
swag_regnety_32gf_in1k,1,63,NaN,boat,boat,4-0-10,0063_eid_dnn_4-0-10_boat_10_n04612504_15875.png
swag_regnety_32gf_in1k,1,64,NaN,bottle,bottle,4-0-10,0064_eid_dnn_4-0-10_bottle_10_n03983396_7337.png
swag_regnety_32gf_in1k,1,65,NaN,knife,clock,8-0-10,0065_eid_dnn_8-0-10_clock_10_n02708093_6822.png
swag_regnety_32gf_in1k,1,66,NaN,truck,truck,2-0-10,0066_eid_dnn_2-0-10_truck_10_n04467665_15994.png
swag_regnety_32gf_in1k,1,67,NaN,dog,cat,128-0-10,0067_eid_dnn_128-0-10_cat_10_n02123597_6291.png
swag_regnety_32gf_in1k,1,68,NaN,bear,bird,8-0-10,0068_eid_dnn_8-0-10_bird_10_n01817953_1734.png
swag_regnety_32gf_in1k,1,69,NaN,dog,elephant,32-0-10,0069_eid_dnn_32-0-10_elephant_10_n02504458_6880.png
swag_regnety_32gf_in1k,1,70,NaN,dog,cat,16-0-10,0070_eid_dnn_16-0-10_cat_10_n02123597_13197.png
swag_regnety_32gf_in1k,1,71,NaN,cat,bicycle,64-0-10,0071_eid_dnn_64-0-10_bicycle_10_n03792782_973.png
swag_regnety_32gf_in1k,1,72,NaN,cat,cat,2-0-10,0072_eid_dnn_2-0-10_cat_10_n02124075_8310.png
swag_regnety_32gf_in1k,1,73,NaN,dog,oven,32-0-10,0073_eid_dnn_32-0-10_oven_10_n04111531_5168.png
swag_regnety_32gf_in1k,1,74,NaN,airplane,airplane,1-0-10,0074_eid_dnn_1-0-10_airplane_10_n02690373_4893.png
swag_regnety_32gf_in1k,1,75,NaN,dog,dog,1-0-10,0075_eid_dnn_1-0-10_dog_10_n02086240_3614.png
swag_regnety_32gf_in1k,1,76,NaN,knife,oven,16-0-10,0076_eid_dnn_16-0-10_oven_10_n04111531_2937.png
swag_regnety_32gf_in1k,1,77,NaN,clock,clock,1-0-10,0077_eid_dnn_1-0-10_clock_10_n03196217_2022.png
swag_regnety_32gf_in1k,1,78,NaN,dog,bottle,64-0-10,0078_eid_dnn_64-0-10_bottle_10_n04591713_2732.png
swag_regnety_32gf_in1k,1,79,NaN,car,car,2-0-10,0079_eid_dnn_2-0-10_car_10_n03100240_8794.png
swag_regnety_32gf_in1k,1,80,NaN,knife,airplane,16-0-10,0080_eid_dnn_16-0-10_airplane_10_n02690373_3640.png
swag_regnety_32gf_in1k,1,81,NaN,dog,bicycle,64-0-10,0081_eid_dnn_64-0-10_bicycle_10_n03792782_41097.png
swag_regnety_32gf_in1k,1,82,NaN,dog,dog,64-0-10,0082_eid_dnn_64-0-10_dog_10_n02090721_6770.png
swag_regnety_32gf_in1k,1,83,NaN,cat,cat,16-0-10,0083_eid_dnn_16-0-10_cat_10_n02123597_28968.png
swag_regnety_32gf_in1k,1,84,NaN,elephant,elephant,1-0-10,0084_eid_dnn_1-0-10_elephant_10_n02504013_5894.png
swag_regnety_32gf_in1k,1,85,NaN,dog,oven,32-0-10,0085_eid_dnn_32-0-10_oven_10_n04111531_9314.png
swag_regnety_32gf_in1k,1,86,NaN,elephant,elephant,1-0-10,0086_eid_dnn_1-0-10_elephant_10_n02504458_12074.png
swag_regnety_32gf_in1k,1,87,NaN,boat,boat,4-0-10,0087_eid_dnn_4-0-10_boat_10_n03344393_3773.png
swag_regnety_32gf_in1k,1,88,NaN,knife,truck,128-0-10,0088_eid_dnn_128-0-10_truck_10_n04467665_80153.png
swag_regnety_32gf_in1k,1,89,NaN,dog,chair,128-0-10,0089_eid_dnn_128-0-10_chair_10_n04099969_20604.png
swag_regnety_32gf_in1k,1,90,NaN,knife,keyboard,32-0-10,0090_eid_dnn_32-0-10_keyboard_10_n03085013_23625.png
swag_regnety_32gf_in1k,1,91,NaN,dog,truck,64-0-10,0091_eid_dnn_64-0-10_truck_10_n03796401_1458.png
swag_regnety_32gf_in1k,1,92,NaN,car,car,4-0-10,0092_eid_dnn_4-0-10_car_10_n03100240_18711.png
swag_regnety_32gf_in1k,1,93,NaN,dog,truck,128-0-10,0093_eid_dnn_128-0-10_truck_10_n03796401_2988.png
swag_regnety_32gf_in1k,1,94,NaN,truck,truck,2-0-10,0094_eid_dnn_2-0-10_truck_10_n03417042_7096.png
swag_regnety_32gf_in1k,1,95,NaN,dog,dog,8-0-10,0095_eid_dnn_8-0-10_dog_10_n02105855_9345.png
swag_regnety_32gf_in1k,1,96,NaN,knife,bird,32-0-10,0096_eid_dnn_32-0-10_bird_10_n01796340_8342.png
swag_regnety_32gf_in1k,1,97,NaN,knife,airplane,8-0-10,0097_eid_dnn_8-0-10_airplane_10_n02690373_7293.png
swag_regnety_32gf_in1k,1,98,NaN,dog,car,64-0-10,0098_eid_dnn_64-0-10_car_10_n04285008_9811.png
swag_regnety_32gf_in1k,1,99,NaN,oven,knife,8-0-10,0099_eid_dnn_8-0-10_knife_10_n03041632_86783.png
swag_regnety_32gf_in1k,1,100,NaN,dog,oven,16-0-10,0100_eid_dnn_16-0-10_oven_10_n04111531_9867.png
swag_regnety_32gf_in1k,1,101,NaN,clock,truck,128-0-10,0101_eid_dnn_128-0-10_truck_10_n04467665_22573.png
swag_regnety_32gf_in1k,1,102,NaN,dog,car,128-0-10,0102_eid_dnn_128-0-10_car_10_n02814533_23512.png
swag_regnety_32gf_in1k,1,103,NaN,dog,bicycle,16-0-10,0103_eid_dnn_16-0-10_bicycle_10_n03792782_4895.png
swag_regnety_32gf_in1k,1,104,NaN,keyboard,keyboard,2-0-10,0104_eid_dnn_2-0-10_keyboard_10_n03085013_23554.png
swag_regnety_32gf_in1k,1,105,NaN,bear,bear,1-0-10,0105_eid_dnn_1-0-10_bear_10_n02134084_8601.png
swag_regnety_32gf_in1k,1,106,NaN,dog,bicycle,8-0-10,0106_eid_dnn_8-0-10_bicycle_10_n03792782_126.png
swag_regnety_32gf_in1k,1,107,NaN,chair,chair,1-0-10,0107_eid_dnn_1-0-10_chair_10_n04099969_3583.png
swag_regnety_32gf_in1k,1,108,NaN,knife,bicycle,8-0-10,0108_eid_dnn_8-0-10_bicycle_10_n02835271_976.png
swag_regnety_32gf_in1k,1,109,NaN,dog,oven,32-0-10,0109_eid_dnn_32-0-10_oven_10_n04111531_10313.png
swag_regnety_32gf_in1k,1,110,NaN,oven,oven,1-0-10,0110_eid_dnn_1-0-10_oven_10_n04111531_8984.png
swag_regnety_32gf_in1k,1,111,NaN,elephant,elephant,8-0-10,0111_eid_dnn_8-0-10_elephant_10_n02504013_3181.png
swag_regnety_32gf_in1k,1,112,NaN,dog,keyboard,64-0-10,0112_eid_dnn_64-0-10_keyboard_10_n03085013_21490.png
swag_regnety_32gf_in1k,1,113,NaN,knife,bird,4-0-10,0113_eid_dnn_4-0-10_bird_10_n01614925_2708.png
swag_regnety_32gf_in1k,1,114,NaN,dog,bottle,16-0-10,0114_eid_dnn_16-0-10_bottle_10_n03983396_3109.png
swag_regnety_32gf_in1k,1,115,NaN,dog,bear,128-0-10,0115_eid_dnn_128-0-10_bear_10_n02134418_377.png
swag_regnety_32gf_in1k,1,116,NaN,dog,knife,16-0-10,0116_eid_dnn_16-0-10_knife_10_n03041632_7680.png
swag_regnety_32gf_in1k,1,117,NaN,truck,truck,4-0-10,0117_eid_dnn_4-0-10_truck_10_n03417042_3807.png
swag_regnety_32gf_in1k,1,118,NaN,cat,elephant,128-0-10,0118_eid_dnn_128-0-10_elephant_10_n02504013_6501.png
swag_regnety_32gf_in1k,1,119,NaN,dog,bicycle,32-0-10,0119_eid_dnn_32-0-10_bicycle_10_n03792782_5517.png
swag_regnety_32gf_in1k,1,120,NaN,clock,bottle,128-0-10,0120_eid_dnn_128-0-10_bottle_10_n02823428_5791.png
swag_regnety_32gf_in1k,1,121,NaN,dog,car,128-0-10,0121_eid_dnn_128-0-10_car_10_n04285008_10144.png
swag_regnety_32gf_in1k,1,122,NaN,cat,cat,4-0-10,0122_eid_dnn_4-0-10_cat_10_n02123159_5764.png
swag_regnety_32gf_in1k,1,123,NaN,dog,dog,16-0-10,0123_eid_dnn_16-0-10_dog_10_n02085936_4491.png
swag_regnety_32gf_in1k,1,124,NaN,dog,bicycle,32-0-10,0124_eid_dnn_32-0-10_bicycle_10_n03792782_6159.png
swag_regnety_32gf_in1k,1,125,NaN,clock,clock,4-0-10,0125_eid_dnn_4-0-10_clock_10_n04548280_2404.png
swag_regnety_32gf_in1k,1,126,NaN,dog,bottle,64-0-10,0126_eid_dnn_64-0-10_bottle_10_n04591713_360.png
swag_regnety_32gf_in1k,1,127,NaN,knife,airplane,16-0-10,0127_eid_dnn_16-0-10_airplane_10_n02690373_1909.png
swag_regnety_32gf_in1k,1,128,NaN,bear,bear,2-0-10,0128_eid_dnn_2-0-10_bear_10_n02133161_9724.png
swag_regnety_32gf_in1k,1,129,NaN,car,car,2-0-10,0129_eid_dnn_2-0-10_car_10_n04285008_5897.png
swag_regnety_32gf_in1k,1,130,NaN,bicycle,bicycle,1-0-10,0130_eid_dnn_1-0-10_bicycle_10_n02835271_9807.png
swag_regnety_32gf_in1k,1,131,NaN,keyboard,keyboard,1-0-10,0131_eid_dnn_1-0-10_keyboard_10_n03085013_23286.png
swag_regnety_32gf_in1k,1,132,NaN,clock,clock,2-0-10,0132_eid_dnn_2-0-10_clock_10_n02708093_772.png
swag_regnety_32gf_in1k,1,133,NaN,clock,clock,4-0-10,0133_eid_dnn_4-0-10_clock_10_n03196217_820.png
swag_regnety_32gf_in1k,1,134,NaN,dog,dog,32-0-10,0134_eid_dnn_32-0-10_dog_10_n02093754_6351.png
swag_regnety_32gf_in1k,1,135,NaN,knife,truck,8-0-10,0135_eid_dnn_8-0-10_truck_10_n03417042_27093.png
swag_regnety_32gf_in1k,1,136,NaN,cat,bicycle,4-0-10,0136_eid_dnn_4-0-10_bicycle_10_n03792782_30530.png
swag_regnety_32gf_in1k,1,137,NaN,bottle,bottle,4-0-10,0137_eid_dnn_4-0-10_bottle_10_n03937543_5215.png
swag_regnety_32gf_in1k,1,138,NaN,boat,boat,2-0-10,0138_eid_dnn_2-0-10_boat_10_n02951358_9933.png
swag_regnety_32gf_in1k,1,139,NaN,dog,dog,4-0-10,0139_eid_dnn_4-0-10_dog_10_n02086910_8694.png
swag_regnety_32gf_in1k,1,140,NaN,knife,knife,8-0-10,0140_eid_dnn_8-0-10_knife_10_n03041632_3504.png
swag_regnety_32gf_in1k,1,141,NaN,dog,knife,128-0-10,0141_eid_dnn_128-0-10_knife_10_n03041632_15754.png
swag_regnety_32gf_in1k,1,142,NaN,bird,truck,8-0-10,0142_eid_dnn_8-0-10_truck_10_n04467665_45306.png
swag_regnety_32gf_in1k,1,143,NaN,elephant,elephant,1-0-10,0143_eid_dnn_1-0-10_elephant_10_n02504013_5351.png
swag_regnety_32gf_in1k,1,144,NaN,chair,bottle,2-0-10,0144_eid_dnn_2-0-10_bottle_10_n03937543_7763.png
swag_regnety_32gf_in1k,1,145,NaN,dog,bird,32-0-10,0145_eid_dnn_32-0-10_bird_10_n01843383_91.png
swag_regnety_32gf_in1k,1,146,NaN,knife,clock,4-0-10,0146_eid_dnn_4-0-10_clock_10_n04548280_28.png
swag_regnety_32gf_in1k,1,147,NaN,dog,knife,16-0-10,0147_eid_dnn_16-0-10_knife_10_n03041632_102828.png
swag_regnety_32gf_in1k,1,148,NaN,cat,car,128-0-10,0148_eid_dnn_128-0-10_car_10_n03100240_7520.png
swag_regnety_32gf_in1k,1,149,NaN,knife,knife,16-0-10,0149_eid_dnn_16-0-10_knife_10_n03041632_53874.png
swag_regnety_32gf_in1k,1,150,NaN,dog,boat,16-0-10,0150_eid_dnn_16-0-10_boat_10_n04273569_3896.png
swag_regnety_32gf_in1k,1,151,NaN,airplane,airplane,2-0-10,0151_eid_dnn_2-0-10_airplane_10_n02690373_6002.png
swag_regnety_32gf_in1k,1,152,NaN,dog,chair,8-0-10,0152_eid_dnn_8-0-10_chair_10_n04099969_7191.png
swag_regnety_32gf_in1k,1,153,NaN,dog,dog,32-0-10,0153_eid_dnn_32-0-10_dog_10_n02101388_4808.png
swag_regnety_32gf_in1k,1,154,NaN,dog,keyboard,16-0-10,0154_eid_dnn_16-0-10_keyboard_10_n03085013_24538.png
swag_regnety_32gf_in1k,1,155,NaN,cat,knife,128-0-10,0155_eid_dnn_128-0-10_knife_10_n03041632_85488.png
swag_regnety_32gf_in1k,1,156,NaN,car,car,4-0-10,0156_eid_dnn_4-0-10_car_10_n04285008_7630.png
swag_regnety_32gf_in1k,1,157,NaN,knife,airplane,8-0-10,0157_eid_dnn_8-0-10_airplane_10_n02690373_2941.png
swag_regnety_32gf_in1k,1,158,NaN,cat,bird,64-0-10,0158_eid_dnn_64-0-10_bird_10_n01514859_6021.png
swag_regnety_32gf_in1k,1,159,NaN,dog,clock,64-0-10,0159_eid_dnn_64-0-10_clock_10_n04548280_3293.png
swag_regnety_32gf_in1k,1,160,NaN,bottle,oven,4-0-10,0160_eid_dnn_4-0-10_oven_10_n04111531_4998.png
swag_regnety_32gf_in1k,1,161,NaN,cat,bird,128-0-10,0161_eid_dnn_128-0-10_bird_10_n02028035_32993.png
swag_regnety_32gf_in1k,1,162,NaN,bird,bird,2-0-10,0162_eid_dnn_2-0-10_bird_10_n01843383_7800.png
swag_regnety_32gf_in1k,1,163,NaN,dog,bear,64-0-10,0163_eid_dnn_64-0-10_bear_10_n02132136_15174.png
swag_regnety_32gf_in1k,1,164,NaN,truck,oven,4-0-10,0164_eid_dnn_4-0-10_oven_10_n04111531_7266.png
swag_regnety_32gf_in1k,1,165,NaN,dog,cat,128-0-10,0165_eid_dnn_128-0-10_cat_10_n02124075_6464.png
swag_regnety_32gf_in1k,1,166,NaN,dog,bicycle,16-0-10,0166_eid_dnn_16-0-10_bicycle_10_n02835271_4667.png
swag_regnety_32gf_in1k,1,167,NaN,dog,chair,32-0-10,0167_eid_dnn_32-0-10_chair_10_n04099969_2532.png
swag_regnety_32gf_in1k,1,168,NaN,bottle,bottle,4-0-10,0168_eid_dnn_4-0-10_bottle_10_n04560804_15683.png
swag_regnety_32gf_in1k,1,169,NaN,dog,chair,8-0-10,0169_eid_dnn_8-0-10_chair_10_n04099969_6825.png
swag_regnety_32gf_in1k,1,170,NaN,oven,oven,1-0-10,0170_eid_dnn_1-0-10_oven_10_n04111531_1612.png
swag_regnety_32gf_in1k,1,171,NaN,clock,clock,2-0-10,0171_eid_dnn_2-0-10_clock_10_n02708093_1701.png
swag_regnety_32gf_in1k,1,172,NaN,knife,elephant,32-0-10,0172_eid_dnn_32-0-10_elephant_10_n02504013_782.png
swag_regnety_32gf_in1k,1,173,NaN,dog,dog,128-0-10,0173_eid_dnn_128-0-10_dog_10_n02107908_8814.png
swag_regnety_32gf_in1k,1,174,NaN,dog,elephant,4-0-10,0174_eid_dnn_4-0-10_elephant_10_n02504458_5816.png
swag_regnety_32gf_in1k,1,175,NaN,car,car,2-0-10,0175_eid_dnn_2-0-10_car_10_n03100240_18788.png
swag_regnety_32gf_in1k,1,176,NaN,clock,airplane,16-0-10,0176_eid_dnn_16-0-10_airplane_10_n02690373_7915.png
swag_regnety_32gf_in1k,1,177,NaN,chair,chair,4-0-10,0177_eid_dnn_4-0-10_chair_10_n04429376_10544.png
swag_regnety_32gf_in1k,1,178,NaN,dog,knife,32-0-10,0178_eid_dnn_32-0-10_knife_10_n03041632_24883.png
swag_regnety_32gf_in1k,1,179,NaN,clock,bicycle,128-0-10,0179_eid_dnn_128-0-10_bicycle_10_n03792782_10367.png
swag_regnety_32gf_in1k,1,180,NaN,oven,oven,1-0-10,0180_eid_dnn_1-0-10_oven_10_n04111531_3121.png
swag_regnety_32gf_in1k,1,181,NaN,cat,car,128-0-10,0181_eid_dnn_128-0-10_car_10_n02814533_10995.png
swag_regnety_32gf_in1k,1,182,NaN,dog,dog,128-0-10,0182_eid_dnn_128-0-10_dog_10_n02112350_502.png
swag_regnety_32gf_in1k,1,183,NaN,clock,clock,128-0-10,0183_eid_dnn_128-0-10_clock_10_n04548280_5278.png
swag_regnety_32gf_in1k,1,184,NaN,dog,bird,4-0-10,0184_eid_dnn_4-0-10_bird_10_n02006656_713.png
swag_regnety_32gf_in1k,1,185,NaN,dog,bottle,128-0-10,0185_eid_dnn_128-0-10_bottle_10_n04557648_4106.png
swag_regnety_32gf_in1k,1,186,NaN,bottle,clock,64-0-10,0186_eid_dnn_64-0-10_clock_10_n02708093_1430.png
swag_regnety_32gf_in1k,1,187,NaN,oven,oven,1-0-10,0187_eid_dnn_1-0-10_oven_10_n04111531_7664.png
swag_regnety_32gf_in1k,1,188,NaN,car,car,1-0-10,0188_eid_dnn_1-0-10_car_10_n02814533_149.png
swag_regnety_32gf_in1k,1,189,NaN,dog,clock,64-0-10,0189_eid_dnn_64-0-10_clock_10_n04548280_8296.png
swag_regnety_32gf_in1k,1,190,NaN,dog,bottle,64-0-10,0190_eid_dnn_64-0-10_bottle_10_n04591713_5815.png
swag_regnety_32gf_in1k,1,191,NaN,knife,knife,2-0-10,0191_eid_dnn_2-0-10_knife_10_n03041632_90125.png
swag_regnety_32gf_in1k,1,192,NaN,clock,bird,64-0-10,0192_eid_dnn_64-0-10_bird_10_n01534433_16586.png
swag_regnety_32gf_in1k,1,193,NaN,cat,cat,4-0-10,0193_eid_dnn_4-0-10_cat_10_n02123394_2559.png
swag_regnety_32gf_in1k,1,194,NaN,elephant,elephant,4-0-10,0194_eid_dnn_4-0-10_elephant_10_n02504458_5995.png
swag_regnety_32gf_in1k,1,195,NaN,car,car,2-0-10,0195_eid_dnn_2-0-10_car_10_n02814533_211.png
swag_regnety_32gf_in1k,1,196,NaN,chair,chair,1-0-10,0196_eid_dnn_1-0-10_chair_10_n04429376_13328.png
swag_regnety_32gf_in1k,1,197,NaN,knife,keyboard,16-0-10,0197_eid_dnn_16-0-10_keyboard_10_n03085013_24618.png
swag_regnety_32gf_in1k,1,198,NaN,bottle,oven,4-0-10,0198_eid_dnn_4-0-10_oven_10_n04111531_2186.png
swag_regnety_32gf_in1k,1,199,NaN,cat,oven,8-0-10,0199_eid_dnn_8-0-10_oven_10_n04111531_114.png
swag_regnety_32gf_in1k,1,200,NaN,car,car,1-0-10,0200_eid_dnn_1-0-10_car_10_n03100240_1745.png
swag_regnety_32gf_in1k,1,201,NaN,cat,cat,4-0-10,0201_eid_dnn_4-0-10_cat_10_n02123394_1259.png
swag_regnety_32gf_in1k,1,202,NaN,knife,oven,4-0-10,0202_eid_dnn_4-0-10_oven_10_n04111531_5801.png
swag_regnety_32gf_in1k,1,203,NaN,dog,airplane,32-0-10,0203_eid_dnn_32-0-10_airplane_10_n02690373_2024.png
swag_regnety_32gf_in1k,1,204,NaN,bear,cat,8-0-10,0204_eid_dnn_8-0-10_cat_10_n02123045_12181.png
swag_regnety_32gf_in1k,1,205,NaN,dog,airplane,64-0-10,0205_eid_dnn_64-0-10_airplane_10_n02690373_3313.png
swag_regnety_32gf_in1k,1,206,NaN,bottle,truck,64-0-10,0206_eid_dnn_64-0-10_truck_10_n04467665_80465.png
swag_regnety_32gf_in1k,1,207,NaN,elephant,elephant,2-0-10,0207_eid_dnn_2-0-10_elephant_10_n02504013_8626.png
swag_regnety_32gf_in1k,1,208,NaN,dog,car,16-0-10,0208_eid_dnn_16-0-10_car_10_n04285008_7904.png
swag_regnety_32gf_in1k,1,209,NaN,knife,airplane,8-0-10,0209_eid_dnn_8-0-10_airplane_10_n02690373_6363.png
swag_regnety_32gf_in1k,1,210,NaN,cat,cat,4-0-10,0210_eid_dnn_4-0-10_cat_10_n02123045_7294.png
swag_regnety_32gf_in1k,1,211,NaN,cat,airplane,128-0-10,0211_eid_dnn_128-0-10_airplane_10_n02690373_6988.png
swag_regnety_32gf_in1k,1,212,NaN,cat,cat,4-0-10,0212_eid_dnn_4-0-10_cat_10_n02125311_25749.png
swag_regnety_32gf_in1k,1,213,NaN,dog,bird,64-0-10,0213_eid_dnn_64-0-10_bird_10_n02018207_12980.png
swag_regnety_32gf_in1k,1,214,NaN,dog,cat,32-0-10,0214_eid_dnn_32-0-10_cat_10_n02123394_2814.png
swag_regnety_32gf_in1k,1,215,NaN,car,car,4-0-10,0215_eid_dnn_4-0-10_car_10_n04285008_662.png
swag_regnety_32gf_in1k,1,216,NaN,bicycle,bicycle,2-0-10,0216_eid_dnn_2-0-10_bicycle_10_n03792782_11679.png
swag_regnety_32gf_in1k,1,217,NaN,dog,dog,16-0-10,0217_eid_dnn_16-0-10_dog_10_n02093428_17769.png
swag_regnety_32gf_in1k,1,218,NaN,dog,dog,64-0-10,0218_eid_dnn_64-0-10_dog_10_n02106030_17418.png
swag_regnety_32gf_in1k,1,219,NaN,dog,chair,64-0-10,0219_eid_dnn_64-0-10_chair_10_n02791124_7142.png
swag_regnety_32gf_in1k,1,220,NaN,bear,bear,1-0-10,0220_eid_dnn_1-0-10_bear_10_n02134084_18083.png
swag_regnety_32gf_in1k,1,221,NaN,keyboard,keyboard,2-0-10,0221_eid_dnn_2-0-10_keyboard_10_n03085013_7536.png
swag_regnety_32gf_in1k,1,222,NaN,bird,bird,1-0-10,0222_eid_dnn_1-0-10_bird_10_n01616318_2473.png
swag_regnety_32gf_in1k,1,223,NaN,elephant,elephant,1-0-10,0223_eid_dnn_1-0-10_elephant_10_n02504458_5951.png
swag_regnety_32gf_in1k,1,224,NaN,airplane,airplane,4-0-10,0224_eid_dnn_4-0-10_airplane_10_n02690373_5164.png
swag_regnety_32gf_in1k,1,225,NaN,elephant,elephant,4-0-10,0225_eid_dnn_4-0-10_elephant_10_n02504013_1865.png
swag_regnety_32gf_in1k,1,226,NaN,knife,knife,1-0-10,0226_eid_dnn_1-0-10_knife_10_n03041632_56454.png
swag_regnety_32gf_in1k,1,227,NaN,dog,bird,64-0-10,0227_eid_dnn_64-0-10_bird_10_n01824575_5820.png
swag_regnety_32gf_in1k,1,228,NaN,knife,oven,4-0-10,0228_eid_dnn_4-0-10_oven_10_n04111531_4332.png
swag_regnety_32gf_in1k,1,229,NaN,truck,truck,2-0-10,0229_eid_dnn_2-0-10_truck_10_n04467665_41352.png
swag_regnety_32gf_in1k,1,230,NaN,bird,bird,8-0-10,0230_eid_dnn_8-0-10_bird_10_n01514859_5668.png
swag_regnety_32gf_in1k,1,231,NaN,cat,oven,32-0-10,0231_eid_dnn_32-0-10_oven_10_n04111531_4438.png
swag_regnety_32gf_in1k,1,232,NaN,cat,cat,1-0-10,0232_eid_dnn_1-0-10_cat_10_n02123394_6693.png
swag_regnety_32gf_in1k,1,233,NaN,dog,elephant,32-0-10,0233_eid_dnn_32-0-10_elephant_10_n02504458_6302.png
swag_regnety_32gf_in1k,1,234,NaN,dog,bottle,16-0-10,0234_eid_dnn_16-0-10_bottle_10_n03937543_2329.png
swag_regnety_32gf_in1k,1,235,NaN,bear,elephant,16-0-10,0235_eid_dnn_16-0-10_elephant_10_n02504458_5155.png
swag_regnety_32gf_in1k,1,236,NaN,dog,bear,1-0-10,0236_eid_dnn_1-0-10_bear_10_n02134084_1694.png
swag_regnety_32gf_in1k,1,237,NaN,clock,bear,128-0-10,0237_eid_dnn_128-0-10_bear_10_n02133161_1624.png
swag_regnety_32gf_in1k,1,238,NaN,dog,bear,64-0-10,0238_eid_dnn_64-0-10_bear_10_n02132136_11027.png
swag_regnety_32gf_in1k,1,239,NaN,knife,elephant,64-0-10,0239_eid_dnn_64-0-10_elephant_10_n02504013_24621.png
swag_regnety_32gf_in1k,1,240,NaN,dog,knife,16-0-10,0240_eid_dnn_16-0-10_knife_10_n03041632_27134.png
swag_regnety_32gf_in1k,1,241,NaN,bear,keyboard,32-0-10,0241_eid_dnn_32-0-10_keyboard_10_n03085013_24316.png
swag_regnety_32gf_in1k,1,242,NaN,cat,cat,2-0-10,0242_eid_dnn_2-0-10_cat_10_n02123159_3026.png
swag_regnety_32gf_in1k,1,243,NaN,cat,bicycle,128-0-10,0243_eid_dnn_128-0-10_bicycle_10_n03792782_1475.png
swag_regnety_32gf_in1k,1,244,NaN,dog,cat,16-0-10,0244_eid_dnn_16-0-10_cat_10_n02123045_20507.png
swag_regnety_32gf_in1k,1,245,NaN,dog,boat,64-0-10,0245_eid_dnn_64-0-10_boat_10_n02951358_23759.png
swag_regnety_32gf_in1k,1,246,NaN,dog,bear,16-0-10,0246_eid_dnn_16-0-10_bear_10_n02132136_1858.png
swag_regnety_32gf_in1k,1,247,NaN,cat,boat,128-0-10,0247_eid_dnn_128-0-10_boat_10_n02951358_6465.png
swag_regnety_32gf_in1k,1,248,NaN,dog,airplane,128-0-10,0248_eid_dnn_128-0-10_airplane_10_n02690373_6223.png
swag_regnety_32gf_in1k,1,249,NaN,clock,boat,128-0-10,0249_eid_dnn_128-0-10_boat_10_n03344393_2412.png
swag_regnety_32gf_in1k,1,250,NaN,knife,knife,8-0-10,0250_eid_dnn_8-0-10_knife_10_n03041632_6446.png
swag_regnety_32gf_in1k,1,251,NaN,dog,bottle,64-0-10,0251_eid_dnn_64-0-10_bottle_10_n04591713_7940.png
swag_regnety_32gf_in1k,1,252,NaN,cat,cat,4-0-10,0252_eid_dnn_4-0-10_cat_10_n02124075_13568.png
swag_regnety_32gf_in1k,1,253,NaN,boat,boat,2-0-10,0253_eid_dnn_2-0-10_boat_10_n03662601_2171.png
swag_regnety_32gf_in1k,1,254,NaN,elephant,elephant,1-0-10,0254_eid_dnn_1-0-10_elephant_10_n02504458_415.png
swag_regnety_32gf_in1k,1,255,NaN,dog,car,16-0-10,0255_eid_dnn_16-0-10_car_10_n03100240_3386.png
swag_regnety_32gf_in1k,1,256,NaN,knife,bird,16-0-10,0256_eid_dnn_16-0-10_bird_10_n02056570_6633.png
swag_regnety_32gf_in1k,1,257,NaN,dog,bottle,32-0-10,0257_eid_dnn_32-0-10_bottle_10_n02823428_4232.png
swag_regnety_32gf_in1k,1,258,NaN,knife,boat,128-0-10,0258_eid_dnn_128-0-10_boat_10_n04273569_2396.png
swag_regnety_32gf_in1k,1,259,NaN,knife,knife,1-0-10,0259_eid_dnn_1-0-10_knife_10_n03041632_38996.png
swag_regnety_32gf_in1k,1,260,NaN,knife,oven,8-0-10,0260_eid_dnn_8-0-10_oven_10_n04111531_10420.png
swag_regnety_32gf_in1k,1,261,NaN,cat,dog,128-0-10,0261_eid_dnn_128-0-10_dog_10_n02094114_2394.png
swag_regnety_32gf_in1k,1,262,NaN,dog,elephant,128-0-10,0262_eid_dnn_128-0-10_elephant_10_n02504013_4247.png
swag_regnety_32gf_in1k,1,263,NaN,dog,chair,32-0-10,0263_eid_dnn_32-0-10_chair_10_n03376595_8137.png
swag_regnety_32gf_in1k,1,264,NaN,dog,airplane,128-0-10,0264_eid_dnn_128-0-10_airplane_10_n02690373_8524.png
swag_regnety_32gf_in1k,1,265,NaN,dog,car,64-0-10,0265_eid_dnn_64-0-10_car_10_n03100240_18410.png
swag_regnety_32gf_in1k,1,266,NaN,dog,clock,64-0-10,0266_eid_dnn_64-0-10_clock_10_n04548280_2588.png
swag_regnety_32gf_in1k,1,267,NaN,elephant,keyboard,32-0-10,0267_eid_dnn_32-0-10_keyboard_10_n03085013_24030.png
swag_regnety_32gf_in1k,1,268,NaN,clock,clock,2-0-10,0268_eid_dnn_2-0-10_clock_10_n03196217_6375.png
swag_regnety_32gf_in1k,1,269,NaN,dog,airplane,32-0-10,0269_eid_dnn_32-0-10_airplane_10_n02690373_4150.png
swag_regnety_32gf_in1k,1,270,NaN,bear,dog,4-0-10,0270_eid_dnn_4-0-10_dog_10_n02086646_6567.png
swag_regnety_32gf_in1k,1,271,NaN,dog,clock,64-0-10,0271_eid_dnn_64-0-10_clock_10_n03196217_775.png
swag_regnety_32gf_in1k,1,272,NaN,car,car,1-0-10,0272_eid_dnn_1-0-10_car_10_n02814533_57353.png
swag_regnety_32gf_in1k,1,273,NaN,knife,bottle,16-0-10,0273_eid_dnn_16-0-10_bottle_10_n04560804_183.png
swag_regnety_32gf_in1k,1,274,NaN,car,car,2-0-10,0274_eid_dnn_2-0-10_car_10_n04285008_10631.png
swag_regnety_32gf_in1k,1,275,NaN,bear,bear,2-0-10,0275_eid_dnn_2-0-10_bear_10_n02132136_10057.png
swag_regnety_32gf_in1k,1,276,NaN,dog,boat,128-0-10,0276_eid_dnn_128-0-10_boat_10_n04273569_4605.png
swag_regnety_32gf_in1k,1,277,NaN,dog,cat,64-0-10,0277_eid_dnn_64-0-10_cat_10_n02123597_12711.png
swag_regnety_32gf_in1k,1,278,NaN,bottle,bottle,1-0-10,0278_eid_dnn_1-0-10_bottle_10_n04560804_5610.png
swag_regnety_32gf_in1k,1,279,NaN,dog,clock,32-0-10,0279_eid_dnn_32-0-10_clock_10_n04548280_8412.png
swag_regnety_32gf_in1k,1,280,NaN,cat,cat,2-0-10,0280_eid_dnn_2-0-10_cat_10_n02123597_13834.png
swag_regnety_32gf_in1k,1,281,NaN,dog,dog,128-0-10,0281_eid_dnn_128-0-10_dog_10_n02091831_538.png
swag_regnety_32gf_in1k,1,282,NaN,dog,bicycle,32-0-10,0282_eid_dnn_32-0-10_bicycle_10_n03792782_10437.png
swag_regnety_32gf_in1k,1,283,NaN,bear,bear,2-0-10,0283_eid_dnn_2-0-10_bear_10_n02132136_2372.png
swag_regnety_32gf_in1k,1,284,NaN,dog,bicycle,128-0-10,0284_eid_dnn_128-0-10_bicycle_10_n03792782_4540.png
swag_regnety_32gf_in1k,1,285,NaN,elephant,elephant,2-0-10,0285_eid_dnn_2-0-10_elephant_10_n02504013_10152.png
swag_regnety_32gf_in1k,1,286,NaN,dog,boat,64-0-10,0286_eid_dnn_64-0-10_boat_10_n02951358_7603.png
swag_regnety_32gf_in1k,1,287,NaN,bear,bear,2-0-10,0287_eid_dnn_2-0-10_bear_10_n02133161_9371.png
swag_regnety_32gf_in1k,1,288,NaN,bird,truck,8-0-10,0288_eid_dnn_8-0-10_truck_10_n04467665_69892.png
swag_regnety_32gf_in1k,1,289,NaN,knife,knife,1-0-10,0289_eid_dnn_1-0-10_knife_10_n03041632_19275.png
swag_regnety_32gf_in1k,1,290,NaN,dog,keyboard,16-0-10,0290_eid_dnn_16-0-10_keyboard_10_n04505470_9446.png
swag_regnety_32gf_in1k,1,291,NaN,elephant,elephant,1-0-10,0291_eid_dnn_1-0-10_elephant_10_n02504013_9141.png
swag_regnety_32gf_in1k,1,292,NaN,dog,bird,128-0-10,0292_eid_dnn_128-0-10_bird_10_n02056570_8553.png
swag_regnety_32gf_in1k,1,293,NaN,car,car,1-0-10,0293_eid_dnn_1-0-10_car_10_n03100240_9171.png
swag_regnety_32gf_in1k,1,294,NaN,dog,dog,8-0-10,0294_eid_dnn_8-0-10_dog_10_n02102177_1533.png
swag_regnety_32gf_in1k,1,295,NaN,dog,cat,64-0-10,0295_eid_dnn_64-0-10_cat_10_n02124075_12464.png
swag_regnety_32gf_in1k,1,296,NaN,chair,chair,4-0-10,0296_eid_dnn_4-0-10_chair_10_n04429376_33792.png
swag_regnety_32gf_in1k,1,297,NaN,dog,bear,128-0-10,0297_eid_dnn_128-0-10_bear_10_n02133161_3258.png
swag_regnety_32gf_in1k,1,298,NaN,dog,dog,4-0-10,0298_eid_dnn_4-0-10_dog_10_n02097130_1442.png
swag_regnety_32gf_in1k,1,299,NaN,chair,chair,4-0-10,0299_eid_dnn_4-0-10_chair_10_n02791124_8970.png
swag_regnety_32gf_in1k,1,300,NaN,knife,car,8-0-10,0300_eid_dnn_8-0-10_car_10_n04285008_8545.png
swag_regnety_32gf_in1k,1,301,NaN,truck,truck,1-0-10,0301_eid_dnn_1-0-10_truck_10_n03417042_2204.png
swag_regnety_32gf_in1k,1,302,NaN,bear,bear,2-0-10,0302_eid_dnn_2-0-10_bear_10_n02133161_15593.png
swag_regnety_32gf_in1k,1,303,NaN,clock,clock,2-0-10,0303_eid_dnn_2-0-10_clock_10_n04548280_5845.png
swag_regnety_32gf_in1k,1,304,NaN,elephant,knife,4-0-10,0304_eid_dnn_4-0-10_knife_10_n03041632_4975.png
swag_regnety_32gf_in1k,1,305,NaN,bird,clock,32-0-10,0305_eid_dnn_32-0-10_clock_10_n03196217_4849.png
swag_regnety_32gf_in1k,1,306,NaN,bicycle,bicycle,2-0-10,0306_eid_dnn_2-0-10_bicycle_10_n03792782_15752.png
swag_regnety_32gf_in1k,1,307,NaN,dog,bicycle,16-0-10,0307_eid_dnn_16-0-10_bicycle_10_n02835271_29741.png
swag_regnety_32gf_in1k,1,308,NaN,knife,chair,4-0-10,0308_eid_dnn_4-0-10_chair_10_n04099969_16619.png
swag_regnety_32gf_in1k,1,309,NaN,keyboard,keyboard,4-0-10,0309_eid_dnn_4-0-10_keyboard_10_n04505470_4552.png
swag_regnety_32gf_in1k,1,310,NaN,elephant,boat,8-0-10,0310_eid_dnn_8-0-10_boat_10_n02951358_13144.png
swag_regnety_32gf_in1k,1,311,NaN,dog,bird,32-0-10,0311_eid_dnn_32-0-10_bird_10_n01797886_14611.png
swag_regnety_32gf_in1k,1,312,NaN,knife,knife,1-0-10,0312_eid_dnn_1-0-10_knife_10_n03041632_3326.png
swag_regnety_32gf_in1k,1,313,NaN,dog,elephant,8-0-10,0313_eid_dnn_8-0-10_elephant_10_n02504013_5829.png
swag_regnety_32gf_in1k,1,314,NaN,dog,dog,16-0-10,0314_eid_dnn_16-0-10_dog_10_n02088094_2292.png
swag_regnety_32gf_in1k,1,315,NaN,dog,oven,8-0-10,0315_eid_dnn_8-0-10_oven_10_n04111531_4944.png
swag_regnety_32gf_in1k,1,316,NaN,knife,oven,32-0-10,0316_eid_dnn_32-0-10_oven_10_n04111531_669.png
swag_regnety_32gf_in1k,1,317,NaN,dog,car,64-0-10,0317_eid_dnn_64-0-10_car_10_n02814533_6716.png
swag_regnety_32gf_in1k,1,318,NaN,dog,bear,32-0-10,0318_eid_dnn_32-0-10_bear_10_n02132136_26438.png
swag_regnety_32gf_in1k,1,319,NaN,bottle,bottle,4-0-10,0319_eid_dnn_4-0-10_bottle_10_n03983396_3027.png
swag_regnety_32gf_in1k,1,320,NaN,elephant,elephant,2-0-10,0320_eid_dnn_2-0-10_elephant_10_n02504013_9299.png
swag_regnety_32gf_in1k,1,321,NaN,knife,knife,2-0-10,0321_eid_dnn_2-0-10_knife_10_n03041632_13846.png
swag_regnety_32gf_in1k,1,322,NaN,bottle,airplane,64-0-10,0322_eid_dnn_64-0-10_airplane_10_n02690373_16250.png
swag_regnety_32gf_in1k,1,323,NaN,cat,boat,64-0-10,0323_eid_dnn_64-0-10_boat_10_n03662601_13696.png
swag_regnety_32gf_in1k,1,324,NaN,cat,cat,1-0-10,0324_eid_dnn_1-0-10_cat_10_n02123597_5692.png
swag_regnety_32gf_in1k,1,325,NaN,dog,clock,8-0-10,0325_eid_dnn_8-0-10_clock_10_n02708093_3171.png
swag_regnety_32gf_in1k,1,326,NaN,clock,keyboard,128-0-10,0326_eid_dnn_128-0-10_keyboard_10_n04505470_4902.png
swag_regnety_32gf_in1k,1,327,NaN,dog,dog,2-0-10,0327_eid_dnn_2-0-10_dog_10_n02113624_1170.png
swag_regnety_32gf_in1k,1,328,NaN,clock,clock,2-0-10,0328_eid_dnn_2-0-10_clock_10_n03196217_1272.png
swag_regnety_32gf_in1k,1,329,NaN,clock,cat,128-0-10,0329_eid_dnn_128-0-10_cat_10_n02123394_8946.png
swag_regnety_32gf_in1k,1,330,NaN,knife,car,8-0-10,0330_eid_dnn_8-0-10_car_10_n03100240_7134.png
swag_regnety_32gf_in1k,1,331,NaN,bicycle,bicycle,4-0-10,0331_eid_dnn_4-0-10_bicycle_10_n03792782_16034.png
swag_regnety_32gf_in1k,1,332,NaN,dog,dog,8-0-10,0332_eid_dnn_8-0-10_dog_10_n02104029_5465.png
swag_regnety_32gf_in1k,1,333,NaN,keyboard,keyboard,4-0-10,0333_eid_dnn_4-0-10_keyboard_10_n04505470_5011.png
swag_regnety_32gf_in1k,1,334,NaN,boat,bird,8-0-10,0334_eid_dnn_8-0-10_bird_10_n02009912_27132.png
swag_regnety_32gf_in1k,1,335,NaN,knife,knife,64-0-10,0335_eid_dnn_64-0-10_knife_10_n03041632_3171.png
swag_regnety_32gf_in1k,1,336,NaN,bird,bear,32-0-10,0336_eid_dnn_32-0-10_bear_10_n02134084_21170.png
swag_regnety_32gf_in1k,1,337,NaN,dog,dog,4-0-10,0337_eid_dnn_4-0-10_dog_10_n02086079_29044.png
swag_regnety_32gf_in1k,1,338,NaN,cat,cat,4-0-10,0338_eid_dnn_4-0-10_cat_10_n02124075_8465.png
swag_regnety_32gf_in1k,1,339,NaN,clock,bird,128-0-10,0339_eid_dnn_128-0-10_bird_10_n01855032_982.png
swag_regnety_32gf_in1k,1,340,NaN,dog,truck,32-0-10,0340_eid_dnn_32-0-10_truck_10_n03417042_6373.png
swag_regnety_32gf_in1k,1,341,NaN,dog,airplane,16-0-10,0341_eid_dnn_16-0-10_airplane_10_n02690373_9959.png
swag_regnety_32gf_in1k,1,342,NaN,dog,clock,32-0-10,0342_eid_dnn_32-0-10_clock_10_n04548280_2260.png
swag_regnety_32gf_in1k,1,343,NaN,knife,bottle,16-0-10,0343_eid_dnn_16-0-10_bottle_10_n03983396_5281.png
swag_regnety_32gf_in1k,1,344,NaN,cat,cat,4-0-10,0344_eid_dnn_4-0-10_cat_10_n02123159_1113.png
swag_regnety_32gf_in1k,1,345,NaN,cat,keyboard,64-0-10,0345_eid_dnn_64-0-10_keyboard_10_n03085013_20460.png
swag_regnety_32gf_in1k,1,346,NaN,knife,clock,8-0-10,0346_eid_dnn_8-0-10_clock_10_n03196217_884.png
swag_regnety_32gf_in1k,1,347,NaN,knife,clock,8-0-10,0347_eid_dnn_8-0-10_clock_10_n03196217_6257.png
swag_regnety_32gf_in1k,1,348,NaN,dog,dog,32-0-10,0348_eid_dnn_32-0-10_dog_10_n02113624_2109.png
swag_regnety_32gf_in1k,1,349,NaN,keyboard,keyboard,1-0-10,0349_eid_dnn_1-0-10_keyboard_10_n03085013_20416.png
swag_regnety_32gf_in1k,1,350,NaN,bird,bird,2-0-10,0350_eid_dnn_2-0-10_bird_10_n01820546_4609.png
swag_regnety_32gf_in1k,1,351,NaN,dog,cat,64-0-10,0351_eid_dnn_64-0-10_cat_10_n02125311_47792.png
swag_regnety_32gf_in1k,1,352,NaN,knife,boat,16-0-10,0352_eid_dnn_16-0-10_boat_10_n04612504_1491.png
swag_regnety_32gf_in1k,1,353,NaN,dog,truck,16-0-10,0353_eid_dnn_16-0-10_truck_10_n03417042_910.png
swag_regnety_32gf_in1k,1,354,NaN,dog,airplane,64-0-10,0354_eid_dnn_64-0-10_airplane_10_n02690373_2038.png
swag_regnety_32gf_in1k,1,355,NaN,cat,cat,2-0-10,0355_eid_dnn_2-0-10_cat_10_n02123394_8164.png
swag_regnety_32gf_in1k,1,356,NaN,oven,oven,2-0-10,0356_eid_dnn_2-0-10_oven_10_n04111531_22097.png
swag_regnety_32gf_in1k,1,357,NaN,cat,bear,128-0-10,0357_eid_dnn_128-0-10_bear_10_n02134418_278.png
swag_regnety_32gf_in1k,1,358,NaN,bird,bird,4-0-10,0358_eid_dnn_4-0-10_bird_10_n01592084_9109.png
swag_regnety_32gf_in1k,1,359,NaN,dog,clock,32-0-10,0359_eid_dnn_32-0-10_clock_10_n03196217_3695.png
swag_regnety_32gf_in1k,1,360,NaN,dog,elephant,128-0-10,0360_eid_dnn_128-0-10_elephant_10_n02504458_8939.png
swag_regnety_32gf_in1k,1,361,NaN,elephant,elephant,2-0-10,0361_eid_dnn_2-0-10_elephant_10_n02504013_7926.png
swag_regnety_32gf_in1k,1,362,NaN,elephant,bear,4-0-10,0362_eid_dnn_4-0-10_bear_10_n02133161_11816.png
swag_regnety_32gf_in1k,1,363,NaN,bird,bird,2-0-10,0363_eid_dnn_2-0-10_bird_10_n02056570_18300.png
swag_regnety_32gf_in1k,1,364,NaN,chair,chair,2-0-10,0364_eid_dnn_2-0-10_chair_10_n02791124_7063.png
swag_regnety_32gf_in1k,1,365,NaN,elephant,chair,8-0-10,0365_eid_dnn_8-0-10_chair_10_n03376595_8289.png
swag_regnety_32gf_in1k,1,366,NaN,airplane,airplane,4-0-10,0366_eid_dnn_4-0-10_airplane_10_n02690373_4434.png
swag_regnety_32gf_in1k,1,367,NaN,truck,truck,1-0-10,0367_eid_dnn_1-0-10_truck_10_n03417042_8953.png
swag_regnety_32gf_in1k,1,368,NaN,dog,bear,64-0-10,0368_eid_dnn_64-0-10_bear_10_n02132136_699.png
swag_regnety_32gf_in1k,1,369,NaN,knife,knife,8-0-10,0369_eid_dnn_8-0-10_knife_10_n03041632_20517.png
swag_regnety_32gf_in1k,1,370,NaN,knife,bottle,32-0-10,0370_eid_dnn_32-0-10_bottle_10_n03983396_1910.png
swag_regnety_32gf_in1k,1,371,NaN,dog,oven,8-0-10,0371_eid_dnn_8-0-10_oven_10_n04111531_16198.png
swag_regnety_32gf_in1k,1,372,NaN,dog,elephant,64-0-10,0372_eid_dnn_64-0-10_elephant_10_n02504013_13427.png
swag_regnety_32gf_in1k,1,373,NaN,bottle,airplane,16-0-10,0373_eid_dnn_16-0-10_airplane_10_n02690373_1075.png
swag_regnety_32gf_in1k,1,374,NaN,clock,car,64-0-10,0374_eid_dnn_64-0-10_car_10_n03100240_5527.png
swag_regnety_32gf_in1k,1,375,NaN,bear,bear,1-0-10,0375_eid_dnn_1-0-10_bear_10_n02132136_4632.png
swag_regnety_32gf_in1k,1,376,NaN,boat,boat,1-0-10,0376_eid_dnn_1-0-10_boat_10_n04273569_6158.png
swag_regnety_32gf_in1k,1,377,NaN,dog,knife,32-0-10,0377_eid_dnn_32-0-10_knife_10_n03041632_18141.png
swag_regnety_32gf_in1k,1,378,NaN,cat,bear,16-0-10,0378_eid_dnn_16-0-10_bear_10_n02132136_6378.png
swag_regnety_32gf_in1k,1,379,NaN,elephant,elephant,2-0-10,0379_eid_dnn_2-0-10_elephant_10_n02504458_5095.png
swag_regnety_32gf_in1k,1,380,NaN,elephant,elephant,4-0-10,0380_eid_dnn_4-0-10_elephant_10_n02504013_10582.png
swag_regnety_32gf_in1k,1,381,NaN,knife,chair,16-0-10,0381_eid_dnn_16-0-10_chair_10_n04099969_28139.png
swag_regnety_32gf_in1k,1,382,NaN,keyboard,keyboard,2-0-10,0382_eid_dnn_2-0-10_keyboard_10_n04505470_279.png
swag_regnety_32gf_in1k,1,383,NaN,elephant,car,8-0-10,0383_eid_dnn_8-0-10_car_10_n02814533_79696.png
swag_regnety_32gf_in1k,1,384,NaN,dog,cat,64-0-10,0384_eid_dnn_64-0-10_cat_10_n02124075_7984.png
swag_regnety_32gf_in1k,1,385,NaN,car,car,4-0-10,0385_eid_dnn_4-0-10_car_10_n02814533_27327.png
swag_regnety_32gf_in1k,1,386,NaN,bear,bear,4-0-10,0386_eid_dnn_4-0-10_bear_10_n02134084_967.png
swag_regnety_32gf_in1k,1,387,NaN,dog,bear,64-0-10,0387_eid_dnn_64-0-10_bear_10_n02132136_949.png
swag_regnety_32gf_in1k,1,388,NaN,cat,bicycle,16-0-10,0388_eid_dnn_16-0-10_bicycle_10_n03792782_2905.png
swag_regnety_32gf_in1k,1,389,NaN,dog,bicycle,8-0-10,0389_eid_dnn_8-0-10_bicycle_10_n03792782_34550.png
swag_regnety_32gf_in1k,1,390,NaN,dog,bear,16-0-10,0390_eid_dnn_16-0-10_bear_10_n02132136_9055.png
swag_regnety_32gf_in1k,1,391,NaN,dog,bear,64-0-10,0391_eid_dnn_64-0-10_bear_10_n02134084_7904.png
swag_regnety_32gf_in1k,1,392,NaN,clock,clock,4-0-10,0392_eid_dnn_4-0-10_clock_10_n04548280_4526.png
swag_regnety_32gf_in1k,1,393,NaN,bottle,bottle,1-0-10,0393_eid_dnn_1-0-10_bottle_10_n02823428_685.png
swag_regnety_32gf_in1k,1,394,NaN,dog,keyboard,64-0-10,0394_eid_dnn_64-0-10_keyboard_10_n04505470_3935.png
swag_regnety_32gf_in1k,1,395,NaN,dog,dog,64-0-10,0395_eid_dnn_64-0-10_dog_10_n02096051_3825.png
swag_regnety_32gf_in1k,1,396,NaN,dog,dog,2-0-10,0396_eid_dnn_2-0-10_dog_10_n02089078_10601.png
swag_regnety_32gf_in1k,1,397,NaN,clock,clock,2-0-10,0397_eid_dnn_2-0-10_clock_10_n02708093_5236.png
swag_regnety_32gf_in1k,1,398,NaN,cat,cat,2-0-10,0398_eid_dnn_2-0-10_cat_10_n02123159_2682.png
swag_regnety_32gf_in1k,1,399,NaN,truck,oven,1-0-10,0399_eid_dnn_1-0-10_oven_10_n04111531_10216.png
swag_regnety_32gf_in1k,1,400,NaN,boat,boat,2-0-10,0400_eid_dnn_2-0-10_boat_10_n02951358_7137.png
swag_regnety_32gf_in1k,1,401,NaN,dog,bird,64-0-10,0401_eid_dnn_64-0-10_bird_10_n02007558_6127.png
swag_regnety_32gf_in1k,1,402,NaN,knife,dog,16-0-10,0402_eid_dnn_16-0-10_dog_10_n02096051_4804.png
swag_regnety_32gf_in1k,1,403,NaN,dog,bottle,8-0-10,0403_eid_dnn_8-0-10_bottle_10_n03983396_13764.png
swag_regnety_32gf_in1k,1,404,NaN,dog,knife,32-0-10,0404_eid_dnn_32-0-10_knife_10_n03041632_105081.png
swag_regnety_32gf_in1k,1,405,NaN,cat,boat,8-0-10,0405_eid_dnn_8-0-10_boat_10_n03344393_3535.png
swag_regnety_32gf_in1k,1,406,NaN,knife,keyboard,64-0-10,0406_eid_dnn_64-0-10_keyboard_10_n03085013_22929.png
swag_regnety_32gf_in1k,1,407,NaN,bottle,bottle,1-0-10,0407_eid_dnn_1-0-10_bottle_10_n04579145_5979.png
swag_regnety_32gf_in1k,1,408,NaN,knife,knife,2-0-10,0408_eid_dnn_2-0-10_knife_10_n03041632_31301.png
swag_regnety_32gf_in1k,1,409,NaN,clock,car,128-0-10,0409_eid_dnn_128-0-10_car_10_n04285008_14653.png
swag_regnety_32gf_in1k,1,410,NaN,dog,clock,16-0-10,0410_eid_dnn_16-0-10_clock_10_n03196217_1601.png
swag_regnety_32gf_in1k,1,411,NaN,knife,bicycle,8-0-10,0411_eid_dnn_8-0-10_bicycle_10_n02835271_25268.png
swag_regnety_32gf_in1k,1,412,NaN,dog,bird,16-0-10,0412_eid_dnn_16-0-10_bird_10_n02037110_875.png
swag_regnety_32gf_in1k,1,413,NaN,dog,airplane,128-0-10,0413_eid_dnn_128-0-10_airplane_10_n02690373_6807.png
swag_regnety_32gf_in1k,1,414,NaN,clock,clock,16-0-10,0414_eid_dnn_16-0-10_clock_10_n04548280_10066.png
swag_regnety_32gf_in1k,1,415,NaN,dog,boat,64-0-10,0415_eid_dnn_64-0-10_boat_10_n02951358_15252.png
swag_regnety_32gf_in1k,1,416,NaN,dog,car,64-0-10,0416_eid_dnn_64-0-10_car_10_n02814533_4803.png
swag_regnety_32gf_in1k,1,417,NaN,knife,car,16-0-10,0417_eid_dnn_16-0-10_car_10_n03100240_24544.png
swag_regnety_32gf_in1k,1,418,NaN,dog,bear,128-0-10,0418_eid_dnn_128-0-10_bear_10_n02132136_4219.png
swag_regnety_32gf_in1k,1,419,NaN,dog,bicycle,32-0-10,0419_eid_dnn_32-0-10_bicycle_10_n02835271_507.png
swag_regnety_32gf_in1k,1,420,NaN,boat,boat,1-0-10,0420_eid_dnn_1-0-10_boat_10_n04273569_13290.png
swag_regnety_32gf_in1k,1,421,NaN,bicycle,bicycle,2-0-10,0421_eid_dnn_2-0-10_bicycle_10_n03792782_42626.png
swag_regnety_32gf_in1k,1,422,NaN,dog,dog,8-0-10,0422_eid_dnn_8-0-10_dog_10_n02106382_3856.png
swag_regnety_32gf_in1k,1,423,NaN,clock,clock,1-0-10,0423_eid_dnn_1-0-10_clock_10_n02708093_274.png
swag_regnety_32gf_in1k,1,424,NaN,dog,bottle,32-0-10,0424_eid_dnn_32-0-10_bottle_10_n04591713_5921.png
swag_regnety_32gf_in1k,1,425,NaN,elephant,elephant,1-0-10,0425_eid_dnn_1-0-10_elephant_10_n02504458_3851.png
swag_regnety_32gf_in1k,1,426,NaN,dog,dog,32-0-10,0426_eid_dnn_32-0-10_dog_10_n02105855_995.png
swag_regnety_32gf_in1k,1,427,NaN,airplane,airplane,2-0-10,0427_eid_dnn_2-0-10_airplane_10_n02690373_1979.png
swag_regnety_32gf_in1k,1,428,NaN,airplane,airplane,1-0-10,0428_eid_dnn_1-0-10_airplane_10_n02690373_6455.png
swag_regnety_32gf_in1k,1,429,NaN,oven,oven,1-0-10,0429_eid_dnn_1-0-10_oven_10_n04111531_18979.png
swag_regnety_32gf_in1k,1,430,NaN,dog,oven,32-0-10,0430_eid_dnn_32-0-10_oven_10_n04111531_16795.png
swag_regnety_32gf_in1k,1,431,NaN,truck,truck,4-0-10,0431_eid_dnn_4-0-10_truck_10_n04467665_41076.png
swag_regnety_32gf_in1k,1,432,NaN,dog,bird,16-0-10,0432_eid_dnn_16-0-10_bird_10_n01534433_31697.png
swag_regnety_32gf_in1k,1,433,NaN,cat,keyboard,128-0-10,0433_eid_dnn_128-0-10_keyboard_10_n04505470_4289.png
swag_regnety_32gf_in1k,1,434,NaN,keyboard,keyboard,4-0-10,0434_eid_dnn_4-0-10_keyboard_10_n03085013_20727.png
swag_regnety_32gf_in1k,1,435,NaN,knife,boat,8-0-10,0435_eid_dnn_8-0-10_boat_10_n04273569_7315.png
swag_regnety_32gf_in1k,1,436,NaN,car,car,1-0-10,0436_eid_dnn_1-0-10_car_10_n03100240_16646.png
swag_regnety_32gf_in1k,1,437,NaN,dog,car,16-0-10,0437_eid_dnn_16-0-10_car_10_n03100240_5281.png
swag_regnety_32gf_in1k,1,438,NaN,knife,airplane,128-0-10,0438_eid_dnn_128-0-10_airplane_10_n02690373_1670.png
swag_regnety_32gf_in1k,1,439,NaN,dog,airplane,128-0-10,0439_eid_dnn_128-0-10_airplane_10_n02690373_9293.png
swag_regnety_32gf_in1k,1,440,NaN,clock,truck,128-0-10,0440_eid_dnn_128-0-10_truck_10_n03796401_15846.png
swag_regnety_32gf_in1k,1,441,NaN,dog,truck,32-0-10,0441_eid_dnn_32-0-10_truck_10_n03796401_6971.png
swag_regnety_32gf_in1k,1,442,NaN,dog,oven,128-0-10,0442_eid_dnn_128-0-10_oven_10_n04111531_10724.png
swag_regnety_32gf_in1k,1,443,NaN,dog,keyboard,8-0-10,0443_eid_dnn_8-0-10_keyboard_10_n03085013_22187.png
swag_regnety_32gf_in1k,1,444,NaN,dog,oven,8-0-10,0444_eid_dnn_8-0-10_oven_10_n04111531_4671.png
swag_regnety_32gf_in1k,1,445,NaN,airplane,airplane,4-0-10,0445_eid_dnn_4-0-10_airplane_10_n02690373_5142.png
swag_regnety_32gf_in1k,1,446,NaN,elephant,elephant,4-0-10,0446_eid_dnn_4-0-10_elephant_10_n02504013_8562.png
swag_regnety_32gf_in1k,1,447,NaN,truck,truck,1-0-10,0447_eid_dnn_1-0-10_truck_10_n03417042_9668.png
swag_regnety_32gf_in1k,1,448,NaN,dog,bottle,8-0-10,0448_eid_dnn_8-0-10_bottle_10_n03983396_10330.png
swag_regnety_32gf_in1k,1,449,NaN,clock,elephant,128-0-10,0449_eid_dnn_128-0-10_elephant_10_n02504458_4395.png
swag_regnety_32gf_in1k,1,450,NaN,cat,boat,64-0-10,0450_eid_dnn_64-0-10_boat_10_n03344393_4562.png
swag_regnety_32gf_in1k,1,451,NaN,dog,oven,2-0-10,0451_eid_dnn_2-0-10_oven_10_n04111531_10011.png
swag_regnety_32gf_in1k,1,452,NaN,dog,oven,64-0-10,0452_eid_dnn_64-0-10_oven_10_n04111531_13797.png
swag_regnety_32gf_in1k,1,453,NaN,boat,boat,2-0-10,0453_eid_dnn_2-0-10_boat_10_n03662601_840.png
swag_regnety_32gf_in1k,1,454,NaN,cat,truck,16-0-10,0454_eid_dnn_16-0-10_truck_10_n03417042_17037.png
swag_regnety_32gf_in1k,1,455,NaN,dog,cat,64-0-10,0455_eid_dnn_64-0-10_cat_10_n02125311_2576.png
swag_regnety_32gf_in1k,1,456,NaN,bottle,keyboard,32-0-10,0456_eid_dnn_32-0-10_keyboard_10_n03085013_3264.png
swag_regnety_32gf_in1k,1,457,NaN,dog,dog,64-0-10,0457_eid_dnn_64-0-10_dog_10_n02097130_3519.png
swag_regnety_32gf_in1k,1,458,NaN,knife,airplane,16-0-10,0458_eid_dnn_16-0-10_airplane_10_n02690373_4486.png
swag_regnety_32gf_in1k,1,459,NaN,dog,bottle,16-0-10,0459_eid_dnn_16-0-10_bottle_10_n03983396_19635.png
swag_regnety_32gf_in1k,1,460,NaN,dog,airplane,16-0-10,0460_eid_dnn_16-0-10_airplane_10_n02690373_1426.png
swag_regnety_32gf_in1k,1,461,NaN,bear,oven,4-0-10,0461_eid_dnn_4-0-10_oven_10_n04111531_5279.png
swag_regnety_32gf_in1k,1,462,NaN,dog,bottle,64-0-10,0462_eid_dnn_64-0-10_bottle_10_n03983396_4024.png
swag_regnety_32gf_in1k,1,463,NaN,cat,bear,8-0-10,0463_eid_dnn_8-0-10_bear_10_n02133161_12751.png
swag_regnety_32gf_in1k,1,464,NaN,knife,car,8-0-10,0464_eid_dnn_8-0-10_car_10_n02814533_12271.png
swag_regnety_32gf_in1k,1,465,NaN,knife,bottle,16-0-10,0465_eid_dnn_16-0-10_bottle_10_n04560804_5068.png
swag_regnety_32gf_in1k,1,466,NaN,clock,bottle,128-0-10,0466_eid_dnn_128-0-10_bottle_10_n04579145_1168.png
swag_regnety_32gf_in1k,1,467,NaN,dog,knife,64-0-10,0467_eid_dnn_64-0-10_knife_10_n03041632_2973.png
swag_regnety_32gf_in1k,1,468,NaN,dog,airplane,16-0-10,0468_eid_dnn_16-0-10_airplane_10_n02690373_19329.png
swag_regnety_32gf_in1k,1,469,NaN,dog,bottle,32-0-10,0469_eid_dnn_32-0-10_bottle_10_n04560804_1356.png
swag_regnety_32gf_in1k,1,470,NaN,dog,bear,8-0-10,0470_eid_dnn_8-0-10_bear_10_n02134084_3960.png
swag_regnety_32gf_in1k,1,471,NaN,boat,boat,4-0-10,0471_eid_dnn_4-0-10_boat_10_n04612504_27504.png
swag_regnety_32gf_in1k,1,472,NaN,dog,dog,4-0-10,0472_eid_dnn_4-0-10_dog_10_n02099601_9973.png
swag_regnety_32gf_in1k,1,473,NaN,dog,truck,64-0-10,0473_eid_dnn_64-0-10_truck_10_n03417042_26843.png
swag_regnety_32gf_in1k,1,474,NaN,clock,knife,64-0-10,0474_eid_dnn_64-0-10_knife_10_n03041632_55711.png
swag_regnety_32gf_in1k,1,475,NaN,dog,elephant,8-0-10,0475_eid_dnn_8-0-10_elephant_10_n02504013_1986.png
swag_regnety_32gf_in1k,1,476,NaN,keyboard,keyboard,4-0-10,0476_eid_dnn_4-0-10_keyboard_10_n03085013_9475.png
swag_regnety_32gf_in1k,1,477,NaN,dog,elephant,32-0-10,0477_eid_dnn_32-0-10_elephant_10_n02504458_3381.png
swag_regnety_32gf_in1k,1,478,NaN,airplane,airplane,8-0-10,0478_eid_dnn_8-0-10_airplane_10_n02690373_1161.png
swag_regnety_32gf_in1k,1,479,NaN,dog,cat,64-0-10,0479_eid_dnn_64-0-10_cat_10_n02124075_7474.png
swag_regnety_32gf_in1k,1,480,NaN,cat,cat,4-0-10,0480_eid_dnn_4-0-10_cat_10_n02125311_9074.png
swag_regnety_32gf_in1k,1,481,NaN,dog,airplane,128-0-10,0481_eid_dnn_128-0-10_airplane_10_n02690373_2867.png
swag_regnety_32gf_in1k,1,482,NaN,elephant,elephant,2-0-10,0482_eid_dnn_2-0-10_elephant_10_n02504013_1692.png
swag_regnety_32gf_in1k,1,483,NaN,dog,bird,8-0-10,0483_eid_dnn_8-0-10_bird_10_n02009912_11813.png
swag_regnety_32gf_in1k,1,484,NaN,knife,bottle,16-0-10,0484_eid_dnn_16-0-10_bottle_10_n04557648_10302.png
swag_regnety_32gf_in1k,1,485,NaN,keyboard,keyboard,4-0-10,0485_eid_dnn_4-0-10_keyboard_10_n03085013_20302.png
swag_regnety_32gf_in1k,1,486,NaN,clock,elephant,128-0-10,0486_eid_dnn_128-0-10_elephant_10_n02504458_5827.png
swag_regnety_32gf_in1k,1,487,NaN,knife,knife,1-0-10,0487_eid_dnn_1-0-10_knife_10_n03041632_11327.png
swag_regnety_32gf_in1k,1,488,NaN,bird,bird,4-0-10,0488_eid_dnn_4-0-10_bird_10_n01795545_17770.png
swag_regnety_32gf_in1k,1,489,NaN,bicycle,bicycle,4-0-10,0489_eid_dnn_4-0-10_bicycle_10_n02835271_10932.png
swag_regnety_32gf_in1k,1,490,NaN,cat,cat,2-0-10,0490_eid_dnn_2-0-10_cat_10_n02123597_14233.png
swag_regnety_32gf_in1k,1,491,NaN,bird,bird,1-0-10,0491_eid_dnn_1-0-10_bird_10_n01614925_7662.png
swag_regnety_32gf_in1k,1,492,NaN,bear,truck,16-0-10,0492_eid_dnn_16-0-10_truck_10_n03417042_5875.png
swag_regnety_32gf_in1k,1,493,NaN,bear,bear,1-0-10,0493_eid_dnn_1-0-10_bear_10_n02134418_304.png
swag_regnety_32gf_in1k,1,494,NaN,bird,bird,1-0-10,0494_eid_dnn_1-0-10_bird_10_n01622779_5148.png
swag_regnety_32gf_in1k,1,495,NaN,knife,knife,1-0-10,0495_eid_dnn_1-0-10_knife_10_n03041632_44230.png
swag_regnety_32gf_in1k,1,496,NaN,knife,boat,32-0-10,0496_eid_dnn_32-0-10_boat_10_n03662601_8650.png
swag_regnety_32gf_in1k,1,497,NaN,dog,oven,16-0-10,0497_eid_dnn_16-0-10_oven_10_n04111531_4346.png
swag_regnety_32gf_in1k,1,498,NaN,clock,clock,2-0-10,0498_eid_dnn_2-0-10_clock_10_n03196217_2201.png
swag_regnety_32gf_in1k,1,499,NaN,bottle,bicycle,64-0-10,0499_eid_dnn_64-0-10_bicycle_10_n02835271_8757.png
swag_regnety_32gf_in1k,1,500,NaN,knife,keyboard,8-0-10,0500_eid_dnn_8-0-10_keyboard_10_n03085013_23563.png
swag_regnety_32gf_in1k,1,501,NaN,dog,boat,64-0-10,0501_eid_dnn_64-0-10_boat_10_n04273569_15879.png
swag_regnety_32gf_in1k,1,502,NaN,dog,truck,64-0-10,0502_eid_dnn_64-0-10_truck_10_n04467665_30588.png
swag_regnety_32gf_in1k,1,503,NaN,dog,truck,16-0-10,0503_eid_dnn_16-0-10_truck_10_n03417042_1875.png
swag_regnety_32gf_in1k,1,504,NaN,cat,cat,128-0-10,0504_eid_dnn_128-0-10_cat_10_n02123394_6014.png
swag_regnety_32gf_in1k,1,505,NaN,boat,boat,1-0-10,0505_eid_dnn_1-0-10_boat_10_n04273569_10847.png
swag_regnety_32gf_in1k,1,506,NaN,dog,elephant,64-0-10,0506_eid_dnn_64-0-10_elephant_10_n02504013_5495.png
swag_regnety_32gf_in1k,1,507,NaN,clock,bottle,128-0-10,0507_eid_dnn_128-0-10_bottle_10_n04560804_16276.png
swag_regnety_32gf_in1k,1,508,NaN,car,car,1-0-10,0508_eid_dnn_1-0-10_car_10_n04285008_1243.png
swag_regnety_32gf_in1k,1,509,NaN,dog,keyboard,32-0-10,0509_eid_dnn_32-0-10_keyboard_10_n03085013_22027.png
swag_regnety_32gf_in1k,1,510,NaN,dog,cat,32-0-10,0510_eid_dnn_32-0-10_cat_10_n02123045_12766.png
swag_regnety_32gf_in1k,1,511,NaN,dog,chair,64-0-10,0511_eid_dnn_64-0-10_chair_10_n04429376_29954.png
swag_regnety_32gf_in1k,1,512,NaN,dog,elephant,32-0-10,0512_eid_dnn_32-0-10_elephant_10_n02504013_5678.png
swag_regnety_32gf_in1k,1,513,NaN,chair,chair,4-0-10,0513_eid_dnn_4-0-10_chair_10_n03376595_6333.png
swag_regnety_32gf_in1k,1,514,NaN,keyboard,keyboard,2-0-10,0514_eid_dnn_2-0-10_keyboard_10_n03085013_22605.png
swag_regnety_32gf_in1k,1,515,NaN,knife,car,32-0-10,0515_eid_dnn_32-0-10_car_10_n04285008_16557.png
swag_regnety_32gf_in1k,1,516,NaN,dog,bottle,64-0-10,0516_eid_dnn_64-0-10_bottle_10_n02823428_1034.png
swag_regnety_32gf_in1k,1,517,NaN,dog,elephant,16-0-10,0517_eid_dnn_16-0-10_elephant_10_n02504013_7777.png
swag_regnety_32gf_in1k,1,518,NaN,knife,knife,4-0-10,0518_eid_dnn_4-0-10_knife_10_n03041632_14293.png
swag_regnety_32gf_in1k,1,519,NaN,oven,knife,8-0-10,0519_eid_dnn_8-0-10_knife_10_n03041632_50423.png
swag_regnety_32gf_in1k,1,520,NaN,chair,chair,2-0-10,0520_eid_dnn_2-0-10_chair_10_n03376595_3043.png
swag_regnety_32gf_in1k,1,521,NaN,dog,cat,8-0-10,0521_eid_dnn_8-0-10_cat_10_n02123394_2434.png
swag_regnety_32gf_in1k,1,522,NaN,truck,truck,1-0-10,0522_eid_dnn_1-0-10_truck_10_n04467665_54079.png
swag_regnety_32gf_in1k,1,523,NaN,bird,bird,2-0-10,0523_eid_dnn_2-0-10_bird_10_n01855672_1001.png
swag_regnety_32gf_in1k,1,524,NaN,bottle,bottle,1-0-10,0524_eid_dnn_1-0-10_bottle_10_n04560804_6112.png
swag_regnety_32gf_in1k,1,525,NaN,keyboard,keyboard,1-0-10,0525_eid_dnn_1-0-10_keyboard_10_n04505470_1744.png
swag_regnety_32gf_in1k,1,526,NaN,dog,boat,32-0-10,0526_eid_dnn_32-0-10_boat_10_n02951358_15087.png
swag_regnety_32gf_in1k,1,527,NaN,bottle,bottle,4-0-10,0527_eid_dnn_4-0-10_bottle_10_n04557648_10051.png
swag_regnety_32gf_in1k,1,528,NaN,dog,bear,64-0-10,0528_eid_dnn_64-0-10_bear_10_n02134084_5794.png
swag_regnety_32gf_in1k,1,529,NaN,keyboard,keyboard,4-0-10,0529_eid_dnn_4-0-10_keyboard_10_n04505470_751.png
swag_regnety_32gf_in1k,1,530,NaN,clock,boat,128-0-10,0530_eid_dnn_128-0-10_boat_10_n04273569_9306.png
swag_regnety_32gf_in1k,1,531,NaN,dog,chair,16-0-10,0531_eid_dnn_16-0-10_chair_10_n02791124_9162.png
swag_regnety_32gf_in1k,1,532,NaN,cat,bicycle,128-0-10,0532_eid_dnn_128-0-10_bicycle_10_n02835271_25033.png
swag_regnety_32gf_in1k,1,533,NaN,clock,keyboard,128-0-10,0533_eid_dnn_128-0-10_keyboard_10_n04505470_3905.png
swag_regnety_32gf_in1k,1,534,NaN,knife,knife,4-0-10,0534_eid_dnn_4-0-10_knife_10_n03041632_32054.png
swag_regnety_32gf_in1k,1,535,NaN,cat,clock,8-0-10,0535_eid_dnn_8-0-10_clock_10_n03196217_13380.png
swag_regnety_32gf_in1k,1,536,NaN,dog,chair,32-0-10,0536_eid_dnn_32-0-10_chair_10_n03376595_8083.png
swag_regnety_32gf_in1k,1,537,NaN,elephant,cat,8-0-10,0537_eid_dnn_8-0-10_cat_10_n02125311_47927.png
swag_regnety_32gf_in1k,1,538,NaN,dog,boat,64-0-10,0538_eid_dnn_64-0-10_boat_10_n04273569_1141.png
swag_regnety_32gf_in1k,1,539,NaN,dog,dog,64-0-10,0539_eid_dnn_64-0-10_dog_10_n02097130_5859.png
swag_regnety_32gf_in1k,1,540,NaN,cat,dog,16-0-10,0540_eid_dnn_16-0-10_dog_10_n02090721_835.png
swag_regnety_32gf_in1k,1,541,NaN,dog,bear,128-0-10,0541_eid_dnn_128-0-10_bear_10_n02132136_15806.png
swag_regnety_32gf_in1k,1,542,NaN,dog,cat,128-0-10,0542_eid_dnn_128-0-10_cat_10_n02124075_12069.png
swag_regnety_32gf_in1k,1,543,NaN,oven,oven,2-0-10,0543_eid_dnn_2-0-10_oven_10_n04111531_21382.png
swag_regnety_32gf_in1k,1,544,NaN,cat,cat,1-0-10,0544_eid_dnn_1-0-10_cat_10_n02123597_2009.png
swag_regnety_32gf_in1k,1,545,NaN,dog,oven,32-0-10,0545_eid_dnn_32-0-10_oven_10_n04111531_4392.png
swag_regnety_32gf_in1k,1,546,NaN,boat,boat,4-0-10,0546_eid_dnn_4-0-10_boat_10_n03344393_640.png
swag_regnety_32gf_in1k,1,547,NaN,car,car,4-0-10,0547_eid_dnn_4-0-10_car_10_n02814533_245.png
swag_regnety_32gf_in1k,1,548,NaN,bird,bird,1-0-10,0548_eid_dnn_1-0-10_bird_10_n01530575_3831.png
swag_regnety_32gf_in1k,1,549,NaN,truck,truck,2-0-10,0549_eid_dnn_2-0-10_truck_10_n04467665_32276.png
swag_regnety_32gf_in1k,1,550,NaN,dog,elephant,64-0-10,0550_eid_dnn_64-0-10_elephant_10_n02504458_5941.png
swag_regnety_32gf_in1k,1,551,NaN,elephant,elephant,4-0-10,0551_eid_dnn_4-0-10_elephant_10_n02504013_9796.png
swag_regnety_32gf_in1k,1,552,NaN,airplane,airplane,4-0-10,0552_eid_dnn_4-0-10_airplane_10_n02690373_8214.png
swag_regnety_32gf_in1k,1,553,NaN,airplane,airplane,1-0-10,0553_eid_dnn_1-0-10_airplane_10_n02690373_8967.png
swag_regnety_32gf_in1k,1,554,NaN,dog,elephant,64-0-10,0554_eid_dnn_64-0-10_elephant_10_n02504458_7642.png
swag_regnety_32gf_in1k,1,555,NaN,boat,boat,1-0-10,0555_eid_dnn_1-0-10_boat_10_n04273569_15455.png
swag_regnety_32gf_in1k,1,556,NaN,bear,knife,8-0-10,0556_eid_dnn_8-0-10_knife_10_n03041632_3063.png
swag_regnety_32gf_in1k,1,557,NaN,knife,bottle,4-0-10,0557_eid_dnn_4-0-10_bottle_10_n03937543_4912.png
swag_regnety_32gf_in1k,1,558,NaN,knife,oven,4-0-10,0558_eid_dnn_4-0-10_oven_10_n04111531_5776.png
swag_regnety_32gf_in1k,1,559,NaN,cat,bottle,128-0-10,0559_eid_dnn_128-0-10_bottle_10_n03983396_4540.png
swag_regnety_32gf_in1k,1,560,NaN,knife,knife,2-0-10,0560_eid_dnn_2-0-10_knife_10_n03041632_965.png
swag_regnety_32gf_in1k,1,561,NaN,knife,knife,32-0-10,0561_eid_dnn_32-0-10_knife_10_n03041632_12949.png
swag_regnety_32gf_in1k,1,562,NaN,dog,knife,16-0-10,0562_eid_dnn_16-0-10_knife_10_n03041632_18766.png
swag_regnety_32gf_in1k,1,563,NaN,keyboard,keyboard,8-0-10,0563_eid_dnn_8-0-10_keyboard_10_n04505470_2869.png
swag_regnety_32gf_in1k,1,564,NaN,bicycle,bicycle,4-0-10,0564_eid_dnn_4-0-10_bicycle_10_n02835271_18537.png
swag_regnety_32gf_in1k,1,565,NaN,dog,clock,32-0-10,0565_eid_dnn_32-0-10_clock_10_n04548280_1119.png
swag_regnety_32gf_in1k,1,566,NaN,oven,oven,1-0-10,0566_eid_dnn_1-0-10_oven_10_n04111531_687.png
swag_regnety_32gf_in1k,1,567,NaN,dog,chair,64-0-10,0567_eid_dnn_64-0-10_chair_10_n03376595_3038.png
swag_regnety_32gf_in1k,1,568,NaN,dog,bicycle,16-0-10,0568_eid_dnn_16-0-10_bicycle_10_n02835271_3989.png
swag_regnety_32gf_in1k,1,569,NaN,dog,dog,64-0-10,0569_eid_dnn_64-0-10_dog_10_n02096437_4563.png
swag_regnety_32gf_in1k,1,570,NaN,dog,clock,32-0-10,0570_eid_dnn_32-0-10_clock_10_n02708093_685.png
swag_regnety_32gf_in1k,1,571,NaN,dog,boat,32-0-10,0571_eid_dnn_32-0-10_boat_10_n03662601_8360.png
swag_regnety_32gf_in1k,1,572,NaN,knife,keyboard,8-0-10,0572_eid_dnn_8-0-10_keyboard_10_n03085013_17035.png
swag_regnety_32gf_in1k,1,573,NaN,dog,dog,64-0-10,0573_eid_dnn_64-0-10_dog_10_n02110063_12166.png
swag_regnety_32gf_in1k,1,574,NaN,dog,dog,2-0-10,0574_eid_dnn_2-0-10_dog_10_n02108422_6951.png
swag_regnety_32gf_in1k,1,575,NaN,dog,bear,64-0-10,0575_eid_dnn_64-0-10_bear_10_n02134418_912.png
swag_regnety_32gf_in1k,1,576,NaN,clock,clock,4-0-10,0576_eid_dnn_4-0-10_clock_10_n02708093_564.png
swag_regnety_32gf_in1k,1,577,NaN,dog,car,64-0-10,0577_eid_dnn_64-0-10_car_10_n04285008_11893.png
swag_regnety_32gf_in1k,1,578,NaN,bottle,knife,64-0-10,0578_eid_dnn_64-0-10_knife_10_n03041632_20504.png
swag_regnety_32gf_in1k,1,579,NaN,bottle,clock,4-0-10,0579_eid_dnn_4-0-10_clock_10_n04548280_4557.png
swag_regnety_32gf_in1k,1,580,NaN,dog,clock,32-0-10,0580_eid_dnn_32-0-10_clock_10_n02708093_3360.png
swag_regnety_32gf_in1k,1,581,NaN,knife,bear,16-0-10,0581_eid_dnn_16-0-10_bear_10_n02134084_617.png
swag_regnety_32gf_in1k,1,582,NaN,dog,dog,1-0-10,0582_eid_dnn_1-0-10_dog_10_n02093991_4081.png
swag_regnety_32gf_in1k,1,583,NaN,dog,elephant,16-0-10,0583_eid_dnn_16-0-10_elephant_10_n02504458_1727.png
swag_regnety_32gf_in1k,1,584,NaN,dog,clock,32-0-10,0584_eid_dnn_32-0-10_clock_10_n04548280_16295.png
swag_regnety_32gf_in1k,1,585,NaN,bear,boat,4-0-10,0585_eid_dnn_4-0-10_boat_10_n02951358_16217.png
swag_regnety_32gf_in1k,1,586,NaN,bear,airplane,8-0-10,0586_eid_dnn_8-0-10_airplane_10_n02690373_7536.png
swag_regnety_32gf_in1k,1,587,NaN,dog,cat,8-0-10,0587_eid_dnn_8-0-10_cat_10_n02123597_22140.png
swag_regnety_32gf_in1k,1,588,NaN,knife,bottle,128-0-10,0588_eid_dnn_128-0-10_bottle_10_n04591713_8914.png
swag_regnety_32gf_in1k,1,589,NaN,dog,car,128-0-10,0589_eid_dnn_128-0-10_car_10_n03100240_963.png
swag_regnety_32gf_in1k,1,590,NaN,dog,boat,32-0-10,0590_eid_dnn_32-0-10_boat_10_n02951358_18762.png
swag_regnety_32gf_in1k,1,591,NaN,dog,bear,32-0-10,0591_eid_dnn_32-0-10_bear_10_n02134418_2633.png
swag_regnety_32gf_in1k,1,592,NaN,dog,airplane,64-0-10,0592_eid_dnn_64-0-10_airplane_10_n02690373_1169.png
swag_regnety_32gf_in1k,1,593,NaN,bicycle,bicycle,2-0-10,0593_eid_dnn_2-0-10_bicycle_10_n03792782_12704.png
swag_regnety_32gf_in1k,1,594,NaN,dog,dog,64-0-10,0594_eid_dnn_64-0-10_dog_10_n02088238_2973.png
swag_regnety_32gf_in1k,1,595,NaN,dog,knife,32-0-10,0595_eid_dnn_32-0-10_knife_10_n03041632_41493.png
swag_regnety_32gf_in1k,1,596,NaN,clock,bottle,128-0-10,0596_eid_dnn_128-0-10_bottle_10_n03983396_2959.png
swag_regnety_32gf_in1k,1,597,NaN,clock,clock,1-0-10,0597_eid_dnn_1-0-10_clock_10_n02708093_2843.png
swag_regnety_32gf_in1k,1,598,NaN,dog,oven,8-0-10,0598_eid_dnn_8-0-10_oven_10_n04111531_12952.png
swag_regnety_32gf_in1k,1,599,NaN,cat,bear,16-0-10,0599_eid_dnn_16-0-10_bear_10_n02134418_2891.png
swag_regnety_32gf_in1k,1,600,NaN,knife,truck,32-0-10,0600_eid_dnn_32-0-10_truck_10_n03417042_3862.png
swag_regnety_32gf_in1k,1,601,NaN,dog,elephant,16-0-10,0601_eid_dnn_16-0-10_elephant_10_n02504458_2054.png
swag_regnety_32gf_in1k,1,602,NaN,airplane,airplane,1-0-10,0602_eid_dnn_1-0-10_airplane_10_n02690373_7355.png
swag_regnety_32gf_in1k,1,603,NaN,dog,knife,128-0-10,0603_eid_dnn_128-0-10_knife_10_n03041632_22738.png
swag_regnety_32gf_in1k,1,604,NaN,oven,oven,1-0-10,0604_eid_dnn_1-0-10_oven_10_n04111531_4250.png
swag_regnety_32gf_in1k,1,605,NaN,knife,clock,8-0-10,0605_eid_dnn_8-0-10_clock_10_n04548280_7826.png
swag_regnety_32gf_in1k,1,606,NaN,dog,clock,64-0-10,0606_eid_dnn_64-0-10_clock_10_n04548280_17198.png
swag_regnety_32gf_in1k,1,607,NaN,bear,bicycle,128-0-10,0607_eid_dnn_128-0-10_bicycle_10_n02835271_4726.png
swag_regnety_32gf_in1k,1,608,NaN,clock,chair,128-0-10,0608_eid_dnn_128-0-10_chair_10_n03376595_9079.png
swag_regnety_32gf_in1k,1,609,NaN,airplane,airplane,4-0-10,0609_eid_dnn_4-0-10_airplane_10_n02690373_2324.png
swag_regnety_32gf_in1k,1,610,NaN,knife,dog,64-0-10,0610_eid_dnn_64-0-10_dog_10_n02104029_5234.png
swag_regnety_32gf_in1k,1,611,NaN,bottle,bottle,2-0-10,0611_eid_dnn_2-0-10_bottle_10_n04591713_335.png
swag_regnety_32gf_in1k,1,612,NaN,airplane,airplane,2-0-10,0612_eid_dnn_2-0-10_airplane_10_n02690373_4148.png
swag_regnety_32gf_in1k,1,613,NaN,bear,bear,2-0-10,0613_eid_dnn_2-0-10_bear_10_n02134084_18800.png
swag_regnety_32gf_in1k,1,614,NaN,dog,boat,16-0-10,0614_eid_dnn_16-0-10_boat_10_n03662601_1191.png
swag_regnety_32gf_in1k,1,615,NaN,keyboard,keyboard,2-0-10,0615_eid_dnn_2-0-10_keyboard_10_n04505470_4505.png
swag_regnety_32gf_in1k,1,616,NaN,knife,knife,4-0-10,0616_eid_dnn_4-0-10_knife_10_n03041632_1607.png
swag_regnety_32gf_in1k,1,617,NaN,dog,car,32-0-10,0617_eid_dnn_32-0-10_car_10_n03100240_11224.png
swag_regnety_32gf_in1k,1,618,NaN,dog,airplane,128-0-10,0618_eid_dnn_128-0-10_airplane_10_n02690373_7142.png
swag_regnety_32gf_in1k,1,619,NaN,airplane,airplane,4-0-10,0619_eid_dnn_4-0-10_airplane_10_n02690373_18693.png
swag_regnety_32gf_in1k,1,620,NaN,dog,chair,8-0-10,0620_eid_dnn_8-0-10_chair_10_n03376595_3214.png
swag_regnety_32gf_in1k,1,621,NaN,bird,boat,16-0-10,0621_eid_dnn_16-0-10_boat_10_n03662601_17198.png
swag_regnety_32gf_in1k,1,622,NaN,cat,knife,32-0-10,0622_eid_dnn_32-0-10_knife_10_n03041632_27879.png
swag_regnety_32gf_in1k,1,623,NaN,chair,chair,1-0-10,0623_eid_dnn_1-0-10_chair_10_n02791124_3601.png
swag_regnety_32gf_in1k,1,624,NaN,knife,bicycle,16-0-10,0624_eid_dnn_16-0-10_bicycle_10_n03792782_10876.png
swag_regnety_32gf_in1k,1,625,NaN,clock,clock,4-0-10,0625_eid_dnn_4-0-10_clock_10_n03196217_5568.png
swag_regnety_32gf_in1k,1,626,NaN,dog,truck,16-0-10,0626_eid_dnn_16-0-10_truck_10_n04467665_2695.png
swag_regnety_32gf_in1k,1,627,NaN,elephant,elephant,8-0-10,0627_eid_dnn_8-0-10_elephant_10_n02504013_4005.png
swag_regnety_32gf_in1k,1,628,NaN,dog,elephant,128-0-10,0628_eid_dnn_128-0-10_elephant_10_n02504458_3094.png
swag_regnety_32gf_in1k,1,629,NaN,bear,bear,8-0-10,0629_eid_dnn_8-0-10_bear_10_n02134418_6133.png
swag_regnety_32gf_in1k,1,630,NaN,dog,truck,128-0-10,0630_eid_dnn_128-0-10_truck_10_n03796401_9953.png
swag_regnety_32gf_in1k,1,631,NaN,dog,cat,8-0-10,0631_eid_dnn_8-0-10_cat_10_n02123597_10199.png
swag_regnety_32gf_in1k,1,632,NaN,cat,cat,2-0-10,0632_eid_dnn_2-0-10_cat_10_n02124075_11153.png
swag_regnety_32gf_in1k,1,633,NaN,dog,bicycle,64-0-10,0633_eid_dnn_64-0-10_bicycle_10_n02835271_7900.png
swag_regnety_32gf_in1k,1,634,NaN,knife,knife,4-0-10,0634_eid_dnn_4-0-10_knife_10_n03041632_12748.png
swag_regnety_32gf_in1k,1,635,NaN,dog,bear,16-0-10,0635_eid_dnn_16-0-10_bear_10_n02134418_244.png
swag_regnety_32gf_in1k,1,636,NaN,bicycle,bicycle,4-0-10,0636_eid_dnn_4-0-10_bicycle_10_n03792782_22908.png
swag_regnety_32gf_in1k,1,637,NaN,bear,elephant,8-0-10,0637_eid_dnn_8-0-10_elephant_10_n02504458_3234.png
swag_regnety_32gf_in1k,1,638,NaN,clock,clock,1-0-10,0638_eid_dnn_1-0-10_clock_10_n03196217_3063.png
swag_regnety_32gf_in1k,1,639,NaN,knife,clock,4-0-10,0639_eid_dnn_4-0-10_clock_10_n03196217_5688.png
swag_regnety_32gf_in1k,1,640,NaN,bottle,bottle,2-0-10,0640_eid_dnn_2-0-10_bottle_10_n04591713_2123.png
swag_regnety_32gf_in1k,1,641,NaN,knife,knife,2-0-10,0641_eid_dnn_2-0-10_knife_10_n03041632_13424.png
swag_regnety_32gf_in1k,1,642,NaN,dog,chair,64-0-10,0642_eid_dnn_64-0-10_chair_10_n03376595_989.png
swag_regnety_32gf_in1k,1,643,NaN,cat,elephant,8-0-10,0643_eid_dnn_8-0-10_elephant_10_n02504458_3953.png
swag_regnety_32gf_in1k,1,644,NaN,cat,bird,4-0-10,0644_eid_dnn_4-0-10_bird_10_n01796340_4181.png
swag_regnety_32gf_in1k,1,645,NaN,bicycle,bicycle,1-0-10,0645_eid_dnn_1-0-10_bicycle_10_n02835271_17357.png
swag_regnety_32gf_in1k,1,646,NaN,bird,bird,1-0-10,0646_eid_dnn_1-0-10_bird_10_n02006656_9134.png
swag_regnety_32gf_in1k,1,647,NaN,dog,bear,64-0-10,0647_eid_dnn_64-0-10_bear_10_n02134418_1307.png
swag_regnety_32gf_in1k,1,648,NaN,dog,chair,64-0-10,0648_eid_dnn_64-0-10_chair_10_n02791124_4432.png
swag_regnety_32gf_in1k,1,649,NaN,dog,oven,32-0-10,0649_eid_dnn_32-0-10_oven_10_n04111531_21309.png
swag_regnety_32gf_in1k,1,650,NaN,dog,car,16-0-10,0650_eid_dnn_16-0-10_car_10_n04285008_6325.png
swag_regnety_32gf_in1k,1,651,NaN,boat,boat,32-0-10,0651_eid_dnn_32-0-10_boat_10_n03344393_5599.png
swag_regnety_32gf_in1k,1,652,NaN,dog,cat,32-0-10,0652_eid_dnn_32-0-10_cat_10_n02123159_7616.png
swag_regnety_32gf_in1k,1,653,NaN,car,car,4-0-10,0653_eid_dnn_4-0-10_car_10_n02814533_11273.png
swag_regnety_32gf_in1k,1,654,NaN,truck,oven,1-0-10,0654_eid_dnn_1-0-10_oven_10_n04111531_5357.png
swag_regnety_32gf_in1k,1,655,NaN,airplane,truck,4-0-10,0655_eid_dnn_4-0-10_truck_10_n04467665_68250.png
swag_regnety_32gf_in1k,1,656,NaN,dog,dog,2-0-10,0656_eid_dnn_2-0-10_dog_10_n02102177_3185.png
swag_regnety_32gf_in1k,1,657,NaN,elephant,truck,8-0-10,0657_eid_dnn_8-0-10_truck_10_n03417042_11439.png
swag_regnety_32gf_in1k,1,658,NaN,bottle,keyboard,8-0-10,0658_eid_dnn_8-0-10_keyboard_10_n04505470_4776.png
swag_regnety_32gf_in1k,1,659,NaN,bicycle,chair,1-0-10,0659_eid_dnn_1-0-10_chair_10_n04099969_4675.png
swag_regnety_32gf_in1k,1,660,NaN,dog,chair,16-0-10,0660_eid_dnn_16-0-10_chair_10_n02791124_14.png
swag_regnety_32gf_in1k,1,661,NaN,dog,dog,1-0-10,0661_eid_dnn_1-0-10_dog_10_n02086646_5896.png
swag_regnety_32gf_in1k,1,662,NaN,dog,truck,16-0-10,0662_eid_dnn_16-0-10_truck_10_n03796401_7421.png
swag_regnety_32gf_in1k,1,663,NaN,dog,keyboard,128-0-10,0663_eid_dnn_128-0-10_keyboard_10_n04505470_713.png
swag_regnety_32gf_in1k,1,664,NaN,dog,clock,64-0-10,0664_eid_dnn_64-0-10_clock_10_n04548280_1324.png
swag_regnety_32gf_in1k,1,665,NaN,knife,bottle,8-0-10,0665_eid_dnn_8-0-10_bottle_10_n04591713_4474.png
swag_regnety_32gf_in1k,1,666,NaN,bear,bird,16-0-10,0666_eid_dnn_16-0-10_bird_10_n01855672_4659.png
swag_regnety_32gf_in1k,1,667,NaN,keyboard,keyboard,1-0-10,0667_eid_dnn_1-0-10_keyboard_10_n03085013_8677.png
swag_regnety_32gf_in1k,1,668,NaN,bear,bear,2-0-10,0668_eid_dnn_2-0-10_bear_10_n02134418_3584.png
swag_regnety_32gf_in1k,1,669,NaN,airplane,airplane,4-0-10,0669_eid_dnn_4-0-10_airplane_10_n02690373_4061.png
swag_regnety_32gf_in1k,1,670,NaN,bear,bear,4-0-10,0670_eid_dnn_4-0-10_bear_10_n02133161_499.png
swag_regnety_32gf_in1k,1,671,NaN,chair,chair,2-0-10,0671_eid_dnn_2-0-10_chair_10_n03376595_3462.png
swag_regnety_32gf_in1k,1,672,NaN,boat,boat,4-0-10,0672_eid_dnn_4-0-10_boat_10_n04273569_16362.png
swag_regnety_32gf_in1k,1,673,NaN,airplane,airplane,1-0-10,0673_eid_dnn_1-0-10_airplane_10_n02690373_8592.png
swag_regnety_32gf_in1k,1,674,NaN,dog,chair,32-0-10,0674_eid_dnn_32-0-10_chair_10_n04099969_6217.png
swag_regnety_32gf_in1k,1,675,NaN,bottle,bottle,1-0-10,0675_eid_dnn_1-0-10_bottle_10_n03937543_299.png
swag_regnety_32gf_in1k,1,676,NaN,clock,clock,2-0-10,0676_eid_dnn_2-0-10_clock_10_n03196217_300.png
swag_regnety_32gf_in1k,1,677,NaN,dog,bear,32-0-10,0677_eid_dnn_32-0-10_bear_10_n02132136_8516.png
swag_regnety_32gf_in1k,1,678,NaN,bottle,bottle,4-0-10,0678_eid_dnn_4-0-10_bottle_10_n04557648_1938.png
swag_regnety_32gf_in1k,1,679,NaN,dog,airplane,16-0-10,0679_eid_dnn_16-0-10_airplane_10_n02690373_19118.png
swag_regnety_32gf_in1k,1,680,NaN,clock,oven,128-0-10,0680_eid_dnn_128-0-10_oven_10_n04111531_891.png
swag_regnety_32gf_in1k,1,681,NaN,elephant,elephant,2-0-10,0681_eid_dnn_2-0-10_elephant_10_n02504458_37.png
swag_regnety_32gf_in1k,1,682,NaN,chair,chair,2-0-10,0682_eid_dnn_2-0-10_chair_10_n04429376_24375.png
swag_regnety_32gf_in1k,1,683,NaN,dog,knife,64-0-10,0683_eid_dnn_64-0-10_knife_10_n03041632_46914.png
swag_regnety_32gf_in1k,1,684,NaN,truck,truck,2-0-10,0684_eid_dnn_2-0-10_truck_10_n04467665_78325.png
swag_regnety_32gf_in1k,1,685,NaN,dog,elephant,8-0-10,0685_eid_dnn_8-0-10_elephant_10_n02504013_2438.png
swag_regnety_32gf_in1k,1,686,NaN,boat,boat,4-0-10,0686_eid_dnn_4-0-10_boat_10_n02951358_13456.png
swag_regnety_32gf_in1k,1,687,NaN,dog,keyboard,32-0-10,0687_eid_dnn_32-0-10_keyboard_10_n04505470_4922.png
swag_regnety_32gf_in1k,1,688,NaN,boat,boat,2-0-10,0688_eid_dnn_2-0-10_boat_10_n02951358_4363.png
swag_regnety_32gf_in1k,1,689,NaN,keyboard,keyboard,2-0-10,0689_eid_dnn_2-0-10_keyboard_10_n03085013_28083.png
swag_regnety_32gf_in1k,1,690,NaN,chair,chair,2-0-10,0690_eid_dnn_2-0-10_chair_10_n02791124_17035.png
swag_regnety_32gf_in1k,1,691,NaN,bear,bird,4-0-10,0691_eid_dnn_4-0-10_bird_10_n02028035_32557.png
swag_regnety_32gf_in1k,1,692,NaN,clock,bicycle,128-0-10,0692_eid_dnn_128-0-10_bicycle_10_n02835271_3298.png
swag_regnety_32gf_in1k,1,693,NaN,dog,boat,8-0-10,0693_eid_dnn_8-0-10_boat_10_n02951358_15422.png
swag_regnety_32gf_in1k,1,694,NaN,cat,cat,1-0-10,0694_eid_dnn_1-0-10_cat_10_n02123597_3398.png
swag_regnety_32gf_in1k,1,695,NaN,boat,boat,4-0-10,0695_eid_dnn_4-0-10_boat_10_n02951358_2330.png
swag_regnety_32gf_in1k,1,696,NaN,cat,airplane,128-0-10,0696_eid_dnn_128-0-10_airplane_10_n02690373_6929.png
swag_regnety_32gf_in1k,1,697,NaN,dog,bottle,8-0-10,0697_eid_dnn_8-0-10_bottle_10_n04560804_16054.png
swag_regnety_32gf_in1k,1,698,NaN,cat,knife,128-0-10,0698_eid_dnn_128-0-10_knife_10_n03041632_2438.png
swag_regnety_32gf_in1k,1,699,NaN,bird,bird,2-0-10,0699_eid_dnn_2-0-10_bird_10_n02056570_9511.png
swag_regnety_32gf_in1k,1,700,NaN,clock,elephant,128-0-10,0700_eid_dnn_128-0-10_elephant_10_n02504013_9809.png
swag_regnety_32gf_in1k,1,701,NaN,dog,cat,32-0-10,0701_eid_dnn_32-0-10_cat_10_n02123394_4167.png
swag_regnety_32gf_in1k,1,702,NaN,cat,dog,128-0-10,0702_eid_dnn_128-0-10_dog_10_n02101556_1042.png
swag_regnety_32gf_in1k,1,703,NaN,dog,elephant,64-0-10,0703_eid_dnn_64-0-10_elephant_10_n02504013_10765.png
swag_regnety_32gf_in1k,1,704,NaN,airplane,airplane,1-0-10,0704_eid_dnn_1-0-10_airplane_10_n02690373_8653.png
swag_regnety_32gf_in1k,1,705,NaN,dog,elephant,16-0-10,0705_eid_dnn_16-0-10_elephant_10_n02504013_3172.png
swag_regnety_32gf_in1k,1,706,NaN,bird,truck,8-0-10,0706_eid_dnn_8-0-10_truck_10_n04467665_21900.png
swag_regnety_32gf_in1k,1,707,NaN,dog,knife,32-0-10,0707_eid_dnn_32-0-10_knife_10_n03041632_13225.png
swag_regnety_32gf_in1k,1,708,NaN,dog,cat,8-0-10,0708_eid_dnn_8-0-10_cat_10_n02123045_964.png
swag_regnety_32gf_in1k,1,709,NaN,dog,elephant,16-0-10,0709_eid_dnn_16-0-10_elephant_10_n02504458_151.png
swag_regnety_32gf_in1k,1,710,NaN,bicycle,bicycle,2-0-10,0710_eid_dnn_2-0-10_bicycle_10_n03792782_1933.png
swag_regnety_32gf_in1k,1,711,NaN,keyboard,keyboard,2-0-10,0711_eid_dnn_2-0-10_keyboard_10_n03085013_4636.png
swag_regnety_32gf_in1k,1,712,NaN,bottle,truck,32-0-10,0712_eid_dnn_32-0-10_truck_10_n04467665_62439.png
swag_regnety_32gf_in1k,1,713,NaN,knife,bear,128-0-10,0713_eid_dnn_128-0-10_bear_10_n02134084_2516.png
swag_regnety_32gf_in1k,1,714,NaN,dog,bottle,16-0-10,0714_eid_dnn_16-0-10_bottle_10_n04560804_30659.png
swag_regnety_32gf_in1k,1,715,NaN,dog,chair,16-0-10,0715_eid_dnn_16-0-10_chair_10_n03376595_3130.png
swag_regnety_32gf_in1k,1,716,NaN,dog,cat,32-0-10,0716_eid_dnn_32-0-10_cat_10_n02123045_7764.png
swag_regnety_32gf_in1k,1,717,NaN,keyboard,keyboard,2-0-10,0717_eid_dnn_2-0-10_keyboard_10_n04505470_568.png
swag_regnety_32gf_in1k,1,718,NaN,bear,bear,1-0-10,0718_eid_dnn_1-0-10_bear_10_n02134418_4177.png
swag_regnety_32gf_in1k,1,719,NaN,bottle,airplane,64-0-10,0719_eid_dnn_64-0-10_airplane_10_n02690373_3617.png
swag_regnety_32gf_in1k,1,720,NaN,cat,boat,8-0-10,0720_eid_dnn_8-0-10_boat_10_n03662601_33374.png
swag_regnety_32gf_in1k,1,721,NaN,dog,dog,1-0-10,0721_eid_dnn_1-0-10_dog_10_n02109047_26316.png
swag_regnety_32gf_in1k,1,722,NaN,airplane,boat,4-0-10,0722_eid_dnn_4-0-10_boat_10_n03344393_3824.png
swag_regnety_32gf_in1k,1,723,NaN,bicycle,bicycle,1-0-10,0723_eid_dnn_1-0-10_bicycle_10_n02835271_17184.png
swag_regnety_32gf_in1k,1,724,NaN,dog,chair,128-0-10,0724_eid_dnn_128-0-10_chair_10_n02791124_3671.png
swag_regnety_32gf_in1k,1,725,NaN,dog,clock,8-0-10,0725_eid_dnn_8-0-10_clock_10_n03196217_911.png
swag_regnety_32gf_in1k,1,726,NaN,knife,knife,1-0-10,0726_eid_dnn_1-0-10_knife_10_n03041632_26314.png
swag_regnety_32gf_in1k,1,727,NaN,knife,dog,32-0-10,0727_eid_dnn_32-0-10_dog_10_n02088238_4028.png
swag_regnety_32gf_in1k,1,728,NaN,cat,chair,64-0-10,0728_eid_dnn_64-0-10_chair_10_n03376595_3015.png
swag_regnety_32gf_in1k,1,729,NaN,boat,boat,4-0-10,0729_eid_dnn_4-0-10_boat_10_n04612504_21132.png
swag_regnety_32gf_in1k,1,730,NaN,bottle,bottle,2-0-10,0730_eid_dnn_2-0-10_bottle_10_n04591713_6351.png
swag_regnety_32gf_in1k,1,731,NaN,dog,keyboard,128-0-10,0731_eid_dnn_128-0-10_keyboard_10_n03085013_21645.png
swag_regnety_32gf_in1k,1,732,NaN,dog,bicycle,16-0-10,0732_eid_dnn_16-0-10_bicycle_10_n03792782_11995.png
swag_regnety_32gf_in1k,1,733,NaN,truck,truck,4-0-10,0733_eid_dnn_4-0-10_truck_10_n03417042_16238.png
swag_regnety_32gf_in1k,1,734,NaN,dog,airplane,32-0-10,0734_eid_dnn_32-0-10_airplane_10_n02690373_1611.png
swag_regnety_32gf_in1k,1,735,NaN,chair,chair,2-0-10,0735_eid_dnn_2-0-10_chair_10_n02791124_11523.png
swag_regnety_32gf_in1k,1,736,NaN,dog,oven,128-0-10,0736_eid_dnn_128-0-10_oven_10_n04111531_12129.png
swag_regnety_32gf_in1k,1,737,NaN,chair,chair,1-0-10,0737_eid_dnn_1-0-10_chair_10_n03376595_13578.png
swag_regnety_32gf_in1k,1,738,NaN,dog,oven,64-0-10,0738_eid_dnn_64-0-10_oven_10_n04111531_136.png
swag_regnety_32gf_in1k,1,739,NaN,dog,truck,64-0-10,0739_eid_dnn_64-0-10_truck_10_n03417042_26814.png
swag_regnety_32gf_in1k,1,740,NaN,dog,oven,128-0-10,0740_eid_dnn_128-0-10_oven_10_n04111531_4795.png
swag_regnety_32gf_in1k,1,741,NaN,dog,car,32-0-10,0741_eid_dnn_32-0-10_car_10_n04285008_5869.png
swag_regnety_32gf_in1k,1,742,NaN,knife,knife,64-0-10,0742_eid_dnn_64-0-10_knife_10_n03041632_21425.png
swag_regnety_32gf_in1k,1,743,NaN,boat,boat,1-0-10,0743_eid_dnn_1-0-10_boat_10_n03344393_2301.png
swag_regnety_32gf_in1k,1,744,NaN,oven,oven,2-0-10,0744_eid_dnn_2-0-10_oven_10_n04111531_10476.png
swag_regnety_32gf_in1k,1,745,NaN,chair,chair,1-0-10,0745_eid_dnn_1-0-10_chair_10_n03376595_10149.png
swag_regnety_32gf_in1k,1,746,NaN,cat,keyboard,64-0-10,0746_eid_dnn_64-0-10_keyboard_10_n03085013_1483.png
swag_regnety_32gf_in1k,1,747,NaN,bottle,bottle,128-0-10,0747_eid_dnn_128-0-10_bottle_10_n04591713_2555.png
swag_regnety_32gf_in1k,1,748,NaN,airplane,airplane,2-0-10,0748_eid_dnn_2-0-10_airplane_10_n02690373_4851.png
swag_regnety_32gf_in1k,1,749,NaN,dog,dog,32-0-10,0749_eid_dnn_32-0-10_dog_10_n02096051_2151.png
swag_regnety_32gf_in1k,1,750,NaN,elephant,elephant,2-0-10,0750_eid_dnn_2-0-10_elephant_10_n02504013_1708.png
swag_regnety_32gf_in1k,1,751,NaN,dog,elephant,32-0-10,0751_eid_dnn_32-0-10_elephant_10_n02504013_7732.png
swag_regnety_32gf_in1k,1,752,NaN,dog,truck,32-0-10,0752_eid_dnn_32-0-10_truck_10_n04467665_9833.png
swag_regnety_32gf_in1k,1,753,NaN,cat,oven,128-0-10,0753_eid_dnn_128-0-10_oven_10_n04111531_5328.png
swag_regnety_32gf_in1k,1,754,NaN,bottle,bottle,2-0-10,0754_eid_dnn_2-0-10_bottle_10_n04557648_954.png
swag_regnety_32gf_in1k,1,755,NaN,cat,elephant,16-0-10,0755_eid_dnn_16-0-10_elephant_10_n02504013_3857.png
swag_regnety_32gf_in1k,1,756,NaN,dog,dog,8-0-10,0756_eid_dnn_8-0-10_dog_10_n02101388_9815.png
swag_regnety_32gf_in1k,1,757,NaN,clock,airplane,128-0-10,0757_eid_dnn_128-0-10_airplane_10_n02690373_5141.png
swag_regnety_32gf_in1k,1,758,NaN,dog,cat,16-0-10,0758_eid_dnn_16-0-10_cat_10_n02123045_6514.png
swag_regnety_32gf_in1k,1,759,NaN,bicycle,bicycle,1-0-10,0759_eid_dnn_1-0-10_bicycle_10_n03792782_12074.png
swag_regnety_32gf_in1k,1,760,NaN,bird,bird,1-0-10,0760_eid_dnn_1-0-10_bird_10_n02027492_5222.png
swag_regnety_32gf_in1k,1,761,NaN,cat,bird,64-0-10,0761_eid_dnn_64-0-10_bird_10_n02013706_5454.png
swag_regnety_32gf_in1k,1,762,NaN,bear,bear,4-0-10,0762_eid_dnn_4-0-10_bear_10_n02133161_10700.png
swag_regnety_32gf_in1k,1,763,NaN,elephant,bottle,8-0-10,0763_eid_dnn_8-0-10_bottle_10_n04591713_807.png
swag_regnety_32gf_in1k,1,764,NaN,dog,bird,32-0-10,0764_eid_dnn_32-0-10_bird_10_n02028035_2219.png
swag_regnety_32gf_in1k,1,765,NaN,dog,cat,64-0-10,0765_eid_dnn_64-0-10_cat_10_n02123394_5071.png
swag_regnety_32gf_in1k,1,766,NaN,clock,clock,16-0-10,0766_eid_dnn_16-0-10_clock_10_n02708093_3173.png
swag_regnety_32gf_in1k,1,767,NaN,bear,bird,8-0-10,0767_eid_dnn_8-0-10_bird_10_n02013706_406.png
swag_regnety_32gf_in1k,1,768,NaN,dog,truck,64-0-10,0768_eid_dnn_64-0-10_truck_10_n04467665_23731.png
swag_regnety_32gf_in1k,1,769,NaN,bear,car,16-0-10,0769_eid_dnn_16-0-10_car_10_n03100240_16803.png
swag_regnety_32gf_in1k,1,770,NaN,dog,knife,128-0-10,0770_eid_dnn_128-0-10_knife_10_n03041632_10999.png
swag_regnety_32gf_in1k,1,771,NaN,cat,dog,16-0-10,0771_eid_dnn_16-0-10_dog_10_n02111129_5833.png
swag_regnety_32gf_in1k,1,772,NaN,knife,keyboard,16-0-10,0772_eid_dnn_16-0-10_keyboard_10_n04505470_3961.png
swag_regnety_32gf_in1k,1,773,NaN,dog,knife,128-0-10,0773_eid_dnn_128-0-10_knife_10_n03041632_33584.png
swag_regnety_32gf_in1k,1,774,NaN,dog,oven,16-0-10,0774_eid_dnn_16-0-10_oven_10_n04111531_5792.png
swag_regnety_32gf_in1k,1,775,NaN,bird,airplane,4-0-10,0775_eid_dnn_4-0-10_airplane_10_n02690373_6429.png
swag_regnety_32gf_in1k,1,776,NaN,airplane,airplane,1-0-10,0776_eid_dnn_1-0-10_airplane_10_n02690373_3728.png
swag_regnety_32gf_in1k,1,777,NaN,dog,car,64-0-10,0777_eid_dnn_64-0-10_car_10_n02814533_17956.png
swag_regnety_32gf_in1k,1,778,NaN,keyboard,keyboard,4-0-10,0778_eid_dnn_4-0-10_keyboard_10_n04505470_3306.png
swag_regnety_32gf_in1k,1,779,NaN,airplane,airplane,2-0-10,0779_eid_dnn_2-0-10_airplane_10_n02690373_1441.png
swag_regnety_32gf_in1k,1,780,NaN,knife,car,16-0-10,0780_eid_dnn_16-0-10_car_10_n03100240_7788.png
swag_regnety_32gf_in1k,1,781,NaN,elephant,elephant,1-0-10,0781_eid_dnn_1-0-10_elephant_10_n02504458_4248.png
swag_regnety_32gf_in1k,1,782,NaN,dog,car,128-0-10,0782_eid_dnn_128-0-10_car_10_n02814533_64988.png
swag_regnety_32gf_in1k,1,783,NaN,dog,bear,8-0-10,0783_eid_dnn_8-0-10_bear_10_n02134418_5131.png
swag_regnety_32gf_in1k,1,784,NaN,dog,bear,16-0-10,0784_eid_dnn_16-0-10_bear_10_n02132136_2900.png
swag_regnety_32gf_in1k,1,785,NaN,dog,bear,4-0-10,0785_eid_dnn_4-0-10_bear_10_n02134418_6030.png
swag_regnety_32gf_in1k,1,786,NaN,bear,bear,4-0-10,0786_eid_dnn_4-0-10_bear_10_n02133161_334.png
swag_regnety_32gf_in1k,1,787,NaN,dog,bear,16-0-10,0787_eid_dnn_16-0-10_bear_10_n02132136_2765.png
swag_regnety_32gf_in1k,1,788,NaN,dog,keyboard,128-0-10,0788_eid_dnn_128-0-10_keyboard_10_n03085013_23943.png
swag_regnety_32gf_in1k,1,789,NaN,dog,bird,128-0-10,0789_eid_dnn_128-0-10_bird_10_n02051845_2316.png
swag_regnety_32gf_in1k,1,790,NaN,bear,bear,1-0-10,0790_eid_dnn_1-0-10_bear_10_n02134418_2545.png
swag_regnety_32gf_in1k,1,791,NaN,dog,clock,32-0-10,0791_eid_dnn_32-0-10_clock_10_n02708093_3669.png
swag_regnety_32gf_in1k,1,792,NaN,dog,dog,2-0-10,0792_eid_dnn_2-0-10_dog_10_n02101006_1160.png
swag_regnety_32gf_in1k,1,793,NaN,dog,cat,16-0-10,0793_eid_dnn_16-0-10_cat_10_n02123394_5907.png
swag_regnety_32gf_in1k,1,794,NaN,truck,truck,1-0-10,0794_eid_dnn_1-0-10_truck_10_n04467665_49282.png
swag_regnety_32gf_in1k,1,795,NaN,knife,chair,8-0-10,0795_eid_dnn_8-0-10_chair_10_n04099969_9017.png
swag_regnety_32gf_in1k,1,796,NaN,dog,dog,4-0-10,0796_eid_dnn_4-0-10_dog_10_n02113624_1212.png
swag_regnety_32gf_in1k,1,797,NaN,cat,oven,64-0-10,0797_eid_dnn_64-0-10_oven_10_n04111531_769.png
swag_regnety_32gf_in1k,1,798,NaN,dog,dog,2-0-10,0798_eid_dnn_2-0-10_dog_10_n02090721_5234.png
swag_regnety_32gf_in1k,1,799,NaN,dog,airplane,64-0-10,0799_eid_dnn_64-0-10_airplane_10_n02690373_10012.png
swag_regnety_32gf_in1k,1,800,NaN,dog,oven,128-0-10,0800_eid_dnn_128-0-10_oven_10_n04111531_11221.png
swag_regnety_32gf_in1k,1,801,NaN,oven,oven,4-0-10,0801_eid_dnn_4-0-10_oven_10_n04111531_8046.png
swag_regnety_32gf_in1k,1,802,NaN,clock,clock,1-0-10,0802_eid_dnn_1-0-10_clock_10_n02708093_4267.png
swag_regnety_32gf_in1k,1,803,NaN,bear,airplane,8-0-10,0803_eid_dnn_8-0-10_airplane_10_n02690373_6836.png
swag_regnety_32gf_in1k,1,804,NaN,cat,cat,1-0-10,0804_eid_dnn_1-0-10_cat_10_n02123159_8039.png
swag_regnety_32gf_in1k,1,805,NaN,clock,bird,128-0-10,0805_eid_dnn_128-0-10_bird_10_n01855032_8576.png
swag_regnety_32gf_in1k,1,806,NaN,clock,clock,1-0-10,0806_eid_dnn_1-0-10_clock_10_n04548280_16233.png
swag_regnety_32gf_in1k,1,807,NaN,bottle,bottle,2-0-10,0807_eid_dnn_2-0-10_bottle_10_n04591713_5406.png
swag_regnety_32gf_in1k,1,808,NaN,clock,keyboard,128-0-10,0808_eid_dnn_128-0-10_keyboard_10_n03085013_23561.png
swag_regnety_32gf_in1k,1,809,NaN,keyboard,keyboard,8-0-10,0809_eid_dnn_8-0-10_keyboard_10_n03085013_5812.png
swag_regnety_32gf_in1k,1,810,NaN,dog,dog,4-0-10,0810_eid_dnn_4-0-10_dog_10_n02101556_9675.png
swag_regnety_32gf_in1k,1,811,NaN,dog,truck,32-0-10,0811_eid_dnn_32-0-10_truck_10_n03417042_2812.png
swag_regnety_32gf_in1k,1,812,NaN,boat,boat,2-0-10,0812_eid_dnn_2-0-10_boat_10_n02951358_16803.png
swag_regnety_32gf_in1k,1,813,NaN,cat,cat,128-0-10,0813_eid_dnn_128-0-10_cat_10_n02125311_35098.png
swag_regnety_32gf_in1k,1,814,NaN,dog,bottle,16-0-10,0814_eid_dnn_16-0-10_bottle_10_n03983396_11597.png
swag_regnety_32gf_in1k,1,815,NaN,dog,truck,8-0-10,0815_eid_dnn_8-0-10_truck_10_n03417042_16370.png
swag_regnety_32gf_in1k,1,816,NaN,bear,bear,1-0-10,0816_eid_dnn_1-0-10_bear_10_n02133161_4513.png
swag_regnety_32gf_in1k,1,817,NaN,elephant,truck,16-0-10,0817_eid_dnn_16-0-10_truck_10_n03417042_4157.png
swag_regnety_32gf_in1k,1,818,NaN,bottle,bird,32-0-10,0818_eid_dnn_32-0-10_bird_10_n01829413_8851.png
swag_regnety_32gf_in1k,1,819,NaN,airplane,airplane,4-0-10,0819_eid_dnn_4-0-10_airplane_10_n02690373_9802.png
swag_regnety_32gf_in1k,1,820,NaN,boat,boat,1-0-10,0820_eid_dnn_1-0-10_boat_10_n02951358_30458.png
swag_regnety_32gf_in1k,1,821,NaN,knife,clock,16-0-10,0821_eid_dnn_16-0-10_clock_10_n03196217_5888.png
swag_regnety_32gf_in1k,1,822,NaN,dog,bicycle,8-0-10,0822_eid_dnn_8-0-10_bicycle_10_n02835271_3642.png
swag_regnety_32gf_in1k,1,823,NaN,bottle,boat,8-0-10,0823_eid_dnn_8-0-10_boat_10_n04612504_30603.png
swag_regnety_32gf_in1k,1,824,NaN,dog,boat,32-0-10,0824_eid_dnn_32-0-10_boat_10_n03662601_4558.png
swag_regnety_32gf_in1k,1,825,NaN,clock,bird,128-0-10,0825_eid_dnn_128-0-10_bird_10_n02009229_5290.png
swag_regnety_32gf_in1k,1,826,NaN,dog,clock,32-0-10,0826_eid_dnn_32-0-10_clock_10_n02708093_6982.png
swag_regnety_32gf_in1k,1,827,NaN,truck,truck,1-0-10,0827_eid_dnn_1-0-10_truck_10_n04467665_2797.png
swag_regnety_32gf_in1k,1,828,NaN,bird,bird,1-0-10,0828_eid_dnn_1-0-10_bird_10_n01798484_4934.png
swag_regnety_32gf_in1k,1,829,NaN,dog,oven,16-0-10,0829_eid_dnn_16-0-10_oven_10_n04111531_3805.png
swag_regnety_32gf_in1k,1,830,NaN,knife,clock,16-0-10,0830_eid_dnn_16-0-10_clock_10_n03196217_5620.png
swag_regnety_32gf_in1k,1,831,NaN,knife,cat,4-0-10,0831_eid_dnn_4-0-10_cat_10_n02123597_2069.png
swag_regnety_32gf_in1k,1,832,NaN,keyboard,keyboard,4-0-10,0832_eid_dnn_4-0-10_keyboard_10_n04505470_64.png
swag_regnety_32gf_in1k,1,833,NaN,dog,elephant,128-0-10,0833_eid_dnn_128-0-10_elephant_10_n02504458_964.png
swag_regnety_32gf_in1k,1,834,NaN,dog,truck,64-0-10,0834_eid_dnn_64-0-10_truck_10_n03796401_25570.png
swag_regnety_32gf_in1k,1,835,NaN,cat,clock,128-0-10,0835_eid_dnn_128-0-10_clock_10_n04548280_4872.png
swag_regnety_32gf_in1k,1,836,NaN,dog,dog,2-0-10,0836_eid_dnn_2-0-10_dog_10_n02095570_1434.png
swag_regnety_32gf_in1k,1,837,NaN,bicycle,bicycle,1-0-10,0837_eid_dnn_1-0-10_bicycle_10_n03792782_4544.png
swag_regnety_32gf_in1k,1,838,NaN,knife,airplane,8-0-10,0838_eid_dnn_8-0-10_airplane_10_n02690373_6663.png
swag_regnety_32gf_in1k,1,839,NaN,cat,bottle,64-0-10,0839_eid_dnn_64-0-10_bottle_10_n03983396_14002.png
swag_regnety_32gf_in1k,1,840,NaN,dog,bicycle,128-0-10,0840_eid_dnn_128-0-10_bicycle_10_n02835271_9944.png
swag_regnety_32gf_in1k,1,841,NaN,knife,chair,8-0-10,0841_eid_dnn_8-0-10_chair_10_n03376595_6589.png
swag_regnety_32gf_in1k,1,842,NaN,dog,airplane,32-0-10,0842_eid_dnn_32-0-10_airplane_10_n02690373_2823.png
swag_regnety_32gf_in1k,1,843,NaN,keyboard,keyboard,1-0-10,0843_eid_dnn_1-0-10_keyboard_10_n03085013_9066.png
swag_regnety_32gf_in1k,1,844,NaN,cat,cat,1-0-10,0844_eid_dnn_1-0-10_cat_10_n02123394_8695.png
swag_regnety_32gf_in1k,1,845,NaN,dog,cat,32-0-10,0845_eid_dnn_32-0-10_cat_10_n02125311_14714.png
swag_regnety_32gf_in1k,1,846,NaN,dog,oven,64-0-10,0846_eid_dnn_64-0-10_oven_10_n04111531_17781.png
swag_regnety_32gf_in1k,1,847,NaN,dog,car,32-0-10,0847_eid_dnn_32-0-10_car_10_n02814533_6498.png
swag_regnety_32gf_in1k,1,848,NaN,dog,boat,8-0-10,0848_eid_dnn_8-0-10_boat_10_n03344393_5322.png
swag_regnety_32gf_in1k,1,849,NaN,knife,knife,2-0-10,0849_eid_dnn_2-0-10_knife_10_n03041632_54191.png
swag_regnety_32gf_in1k,1,850,NaN,dog,bottle,64-0-10,0850_eid_dnn_64-0-10_bottle_10_n03937543_2790.png
swag_regnety_32gf_in1k,1,851,NaN,clock,boat,64-0-10,0851_eid_dnn_64-0-10_boat_10_n04273569_5672.png
swag_regnety_32gf_in1k,1,852,NaN,bear,elephant,4-0-10,0852_eid_dnn_4-0-10_elephant_10_n02504458_6830.png
swag_regnety_32gf_in1k,1,853,NaN,bear,bird,1-0-10,0853_eid_dnn_1-0-10_bird_10_n01824575_10046.png
swag_regnety_32gf_in1k,1,854,NaN,knife,keyboard,16-0-10,0854_eid_dnn_16-0-10_keyboard_10_n03085013_6643.png
swag_regnety_32gf_in1k,1,855,NaN,dog,bicycle,64-0-10,0855_eid_dnn_64-0-10_bicycle_10_n03792782_59.png
swag_regnety_32gf_in1k,1,856,NaN,dog,chair,8-0-10,0856_eid_dnn_8-0-10_chair_10_n04099969_4816.png
swag_regnety_32gf_in1k,1,857,NaN,car,car,2-0-10,0857_eid_dnn_2-0-10_car_10_n02814533_20712.png
swag_regnety_32gf_in1k,1,858,NaN,knife,bottle,4-0-10,0858_eid_dnn_4-0-10_bottle_10_n04560804_15122.png
swag_regnety_32gf_in1k,1,859,NaN,knife,clock,4-0-10,0859_eid_dnn_4-0-10_clock_10_n04548280_11681.png
swag_regnety_32gf_in1k,1,860,NaN,elephant,elephant,1-0-10,0860_eid_dnn_1-0-10_elephant_10_n02504013_6287.png
swag_regnety_32gf_in1k,1,861,NaN,boat,boat,2-0-10,0861_eid_dnn_2-0-10_boat_10_n04273569_14363.png
swag_regnety_32gf_in1k,1,862,NaN,elephant,elephant,4-0-10,0862_eid_dnn_4-0-10_elephant_10_n02504013_2033.png
swag_regnety_32gf_in1k,1,863,NaN,elephant,elephant,4-0-10,0863_eid_dnn_4-0-10_elephant_10_n02504013_6897.png
swag_regnety_32gf_in1k,1,864,NaN,dog,knife,128-0-10,0864_eid_dnn_128-0-10_knife_10_n03041632_35260.png
swag_regnety_32gf_in1k,1,865,NaN,bottle,bottle,1-0-10,0865_eid_dnn_1-0-10_bottle_10_n03983396_12916.png
swag_regnety_32gf_in1k,1,866,NaN,bicycle,bicycle,1-0-10,0866_eid_dnn_1-0-10_bicycle_10_n02835271_1530.png
swag_regnety_32gf_in1k,1,867,NaN,car,car,2-0-10,0867_eid_dnn_2-0-10_car_10_n02814533_41478.png
swag_regnety_32gf_in1k,1,868,NaN,dog,keyboard,64-0-10,0868_eid_dnn_64-0-10_keyboard_10_n04505470_3929.png
swag_regnety_32gf_in1k,1,869,NaN,dog,chair,16-0-10,0869_eid_dnn_16-0-10_chair_10_n02791124_6505.png
swag_regnety_32gf_in1k,1,870,NaN,bear,clock,16-0-10,0870_eid_dnn_16-0-10_clock_10_n04548280_1438.png
swag_regnety_32gf_in1k,1,871,NaN,knife,knife,2-0-10,0871_eid_dnn_2-0-10_knife_10_n03041632_22480.png
swag_regnety_32gf_in1k,1,872,NaN,dog,truck,32-0-10,0872_eid_dnn_32-0-10_truck_10_n03417042_16000.png
swag_regnety_32gf_in1k,1,873,NaN,knife,chair,16-0-10,0873_eid_dnn_16-0-10_chair_10_n04099969_16270.png
swag_regnety_32gf_in1k,1,874,NaN,dog,knife,16-0-10,0874_eid_dnn_16-0-10_knife_10_n03041632_80829.png
swag_regnety_32gf_in1k,1,875,NaN,cat,oven,4-0-10,0875_eid_dnn_4-0-10_oven_10_n04111531_1128.png
swag_regnety_32gf_in1k,1,876,NaN,cat,cat,2-0-10,0876_eid_dnn_2-0-10_cat_10_n02123394_830.png
swag_regnety_32gf_in1k,1,877,NaN,boat,boat,1-0-10,0877_eid_dnn_1-0-10_boat_10_n03344393_1017.png
swag_regnety_32gf_in1k,1,878,NaN,bear,bear,8-0-10,0878_eid_dnn_8-0-10_bear_10_n02134418_5120.png
swag_regnety_32gf_in1k,1,879,NaN,truck,truck,1-0-10,0879_eid_dnn_1-0-10_truck_10_n04467665_9589.png
swag_regnety_32gf_in1k,1,880,NaN,dog,boat,32-0-10,0880_eid_dnn_32-0-10_boat_10_n04273569_9821.png
swag_regnety_32gf_in1k,1,881,NaN,bottle,clock,128-0-10,0881_eid_dnn_128-0-10_clock_10_n04548280_4346.png
swag_regnety_32gf_in1k,1,882,NaN,clock,bird,16-0-10,0882_eid_dnn_16-0-10_bird_10_n01855032_8095.png
swag_regnety_32gf_in1k,1,883,NaN,dog,knife,32-0-10,0883_eid_dnn_32-0-10_knife_10_n03041632_87380.png
swag_regnety_32gf_in1k,1,884,NaN,dog,bear,128-0-10,0884_eid_dnn_128-0-10_bear_10_n02134084_16227.png
swag_regnety_32gf_in1k,1,885,NaN,cat,cat,8-0-10,0885_eid_dnn_8-0-10_cat_10_n02123045_8751.png
swag_regnety_32gf_in1k,1,886,NaN,dog,chair,64-0-10,0886_eid_dnn_64-0-10_chair_10_n04429376_36848.png
swag_regnety_32gf_in1k,1,887,NaN,bottle,bottle,2-0-10,0887_eid_dnn_2-0-10_bottle_10_n04579145_2346.png
swag_regnety_32gf_in1k,1,888,NaN,truck,truck,4-0-10,0888_eid_dnn_4-0-10_truck_10_n03796401_1791.png
swag_regnety_32gf_in1k,1,889,NaN,bear,bear,4-0-10,0889_eid_dnn_4-0-10_bear_10_n02134084_7079.png
swag_regnety_32gf_in1k,1,890,NaN,dog,cat,128-0-10,0890_eid_dnn_128-0-10_cat_10_n02125311_2981.png
swag_regnety_32gf_in1k,1,891,NaN,bear,airplane,32-0-10,0891_eid_dnn_32-0-10_airplane_10_n02690373_18845.png
swag_regnety_32gf_in1k,1,892,NaN,cat,oven,128-0-10,0892_eid_dnn_128-0-10_oven_10_n04111531_17045.png
swag_regnety_32gf_in1k,1,893,NaN,knife,car,16-0-10,0893_eid_dnn_16-0-10_car_10_n04285008_8959.png
swag_regnety_32gf_in1k,1,894,NaN,keyboard,keyboard,1-0-10,0894_eid_dnn_1-0-10_keyboard_10_n03085013_24284.png
swag_regnety_32gf_in1k,1,895,NaN,airplane,airplane,2-0-10,0895_eid_dnn_2-0-10_airplane_10_n02690373_2316.png
swag_regnety_32gf_in1k,1,896,NaN,dog,oven,64-0-10,0896_eid_dnn_64-0-10_oven_10_n04111531_9210.png
swag_regnety_32gf_in1k,1,897,NaN,car,car,2-0-10,0897_eid_dnn_2-0-10_car_10_n03100240_23229.png
swag_regnety_32gf_in1k,1,898,NaN,keyboard,keyboard,1-0-10,0898_eid_dnn_1-0-10_keyboard_10_n04505470_3314.png
swag_regnety_32gf_in1k,1,899,NaN,dog,bottle,128-0-10,0899_eid_dnn_128-0-10_bottle_10_n02823428_7788.png
swag_regnety_32gf_in1k,1,900,NaN,bear,bear,2-0-10,0900_eid_dnn_2-0-10_bear_10_n02134418_18850.png
swag_regnety_32gf_in1k,1,901,NaN,dog,knife,16-0-10,0901_eid_dnn_16-0-10_knife_10_n03041632_992.png
swag_regnety_32gf_in1k,1,902,NaN,elephant,chair,8-0-10,0902_eid_dnn_8-0-10_chair_10_n04429376_17013.png
swag_regnety_32gf_in1k,1,903,NaN,dog,cat,32-0-10,0903_eid_dnn_32-0-10_cat_10_n02123394_1879.png
swag_regnety_32gf_in1k,1,904,NaN,bear,keyboard,8-0-10,0904_eid_dnn_8-0-10_keyboard_10_n03085013_24166.png
swag_regnety_32gf_in1k,1,905,NaN,dog,car,8-0-10,0905_eid_dnn_8-0-10_car_10_n03100240_1140.png
swag_regnety_32gf_in1k,1,906,NaN,dog,boat,32-0-10,0906_eid_dnn_32-0-10_boat_10_n04612504_125.png
swag_regnety_32gf_in1k,1,907,NaN,cat,boat,128-0-10,0907_eid_dnn_128-0-10_boat_10_n03344393_1573.png
swag_regnety_32gf_in1k,1,908,NaN,cat,chair,128-0-10,0908_eid_dnn_128-0-10_chair_10_n02791124_1482.png
swag_regnety_32gf_in1k,1,909,NaN,bird,bird,2-0-10,0909_eid_dnn_2-0-10_bird_10_n01592084_3147.png
swag_regnety_32gf_in1k,1,910,NaN,dog,bicycle,8-0-10,0910_eid_dnn_8-0-10_bicycle_10_n03792782_14293.png
swag_regnety_32gf_in1k,1,911,NaN,truck,truck,4-0-10,0911_eid_dnn_4-0-10_truck_10_n03417042_26102.png
swag_regnety_32gf_in1k,1,912,NaN,chair,chair,2-0-10,0912_eid_dnn_2-0-10_chair_10_n03376595_6973.png
swag_regnety_32gf_in1k,1,913,NaN,dog,cat,64-0-10,0913_eid_dnn_64-0-10_cat_10_n02123394_292.png
swag_regnety_32gf_in1k,1,914,NaN,airplane,airplane,1-0-10,0914_eid_dnn_1-0-10_airplane_10_n02690373_4136.png
swag_regnety_32gf_in1k,1,915,NaN,bird,bird,2-0-10,0915_eid_dnn_2-0-10_bird_10_n01795545_15255.png
swag_regnety_32gf_in1k,1,916,NaN,chair,chair,1-0-10,0916_eid_dnn_1-0-10_chair_10_n04099969_12537.png
swag_regnety_32gf_in1k,1,917,NaN,dog,bear,32-0-10,0917_eid_dnn_32-0-10_bear_10_n02132136_13078.png
swag_regnety_32gf_in1k,1,918,NaN,cat,bear,32-0-10,0918_eid_dnn_32-0-10_bear_10_n02132136_1738.png
swag_regnety_32gf_in1k,1,919,NaN,airplane,airplane,2-0-10,0919_eid_dnn_2-0-10_airplane_10_n02690373_1706.png
swag_regnety_32gf_in1k,1,920,NaN,dog,bicycle,64-0-10,0920_eid_dnn_64-0-10_bicycle_10_n02835271_7051.png
swag_regnety_32gf_in1k,1,921,NaN,dog,oven,8-0-10,0921_eid_dnn_8-0-10_oven_10_n04111531_1150.png
swag_regnety_32gf_in1k,1,922,NaN,dog,bear,64-0-10,0922_eid_dnn_64-0-10_bear_10_n02132136_14832.png
swag_regnety_32gf_in1k,1,923,NaN,cat,cat,2-0-10,0923_eid_dnn_2-0-10_cat_10_n02123159_2684.png
swag_regnety_32gf_in1k,1,924,NaN,knife,keyboard,8-0-10,0924_eid_dnn_8-0-10_keyboard_10_n03085013_24217.png
swag_regnety_32gf_in1k,1,925,NaN,airplane,airplane,1-0-10,0925_eid_dnn_1-0-10_airplane_10_n02690373_6739.png
swag_regnety_32gf_in1k,1,926,NaN,dog,oven,128-0-10,0926_eid_dnn_128-0-10_oven_10_n04111531_6622.png
swag_regnety_32gf_in1k,1,927,NaN,oven,bird,8-0-10,0927_eid_dnn_8-0-10_bird_10_n01514859_7974.png
swag_regnety_32gf_in1k,1,928,NaN,clock,clock,128-0-10,0928_eid_dnn_128-0-10_clock_10_n04548280_23690.png
swag_regnety_32gf_in1k,1,929,NaN,truck,truck,4-0-10,0929_eid_dnn_4-0-10_truck_10_n03417042_14574.png
swag_regnety_32gf_in1k,1,930,NaN,bird,bird,4-0-10,0930_eid_dnn_4-0-10_bird_10_n01592084_7870.png
swag_regnety_32gf_in1k,1,931,NaN,dog,bird,64-0-10,0931_eid_dnn_64-0-10_bird_10_n01843383_6887.png
swag_regnety_32gf_in1k,1,932,NaN,dog,airplane,64-0-10,0932_eid_dnn_64-0-10_airplane_10_n02690373_8543.png
swag_regnety_32gf_in1k,1,933,NaN,cat,chair,128-0-10,0933_eid_dnn_128-0-10_chair_10_n03376595_8409.png
swag_regnety_32gf_in1k,1,934,NaN,knife,car,8-0-10,0934_eid_dnn_8-0-10_car_10_n02814533_68668.png
swag_regnety_32gf_in1k,1,935,NaN,dog,bear,128-0-10,0935_eid_dnn_128-0-10_bear_10_n02134084_6286.png
swag_regnety_32gf_in1k,1,936,NaN,dog,bicycle,32-0-10,0936_eid_dnn_32-0-10_bicycle_10_n02835271_9482.png
swag_regnety_32gf_in1k,1,937,NaN,cat,keyboard,64-0-10,0937_eid_dnn_64-0-10_keyboard_10_n03085013_20322.png
swag_regnety_32gf_in1k,1,938,NaN,dog,bird,128-0-10,0938_eid_dnn_128-0-10_bird_10_n01843065_958.png
swag_regnety_32gf_in1k,1,939,NaN,dog,boat,128-0-10,0939_eid_dnn_128-0-10_boat_10_n04612504_1889.png
swag_regnety_32gf_in1k,1,940,NaN,bird,car,32-0-10,0940_eid_dnn_32-0-10_car_10_n04285008_10824.png
swag_regnety_32gf_in1k,1,941,NaN,dog,keyboard,32-0-10,0941_eid_dnn_32-0-10_keyboard_10_n04505470_10596.png
swag_regnety_32gf_in1k,1,942,NaN,dog,chair,64-0-10,0942_eid_dnn_64-0-10_chair_10_n04429376_17336.png
swag_regnety_32gf_in1k,1,943,NaN,cat,truck,128-0-10,0943_eid_dnn_128-0-10_truck_10_n03796401_4898.png
swag_regnety_32gf_in1k,1,944,NaN,bear,bear,1-0-10,0944_eid_dnn_1-0-10_bear_10_n02132136_13556.png
swag_regnety_32gf_in1k,1,945,NaN,dog,bird,32-0-10,0945_eid_dnn_32-0-10_bird_10_n02051845_34393.png
swag_regnety_32gf_in1k,1,946,NaN,dog,dog,1-0-10,0946_eid_dnn_1-0-10_dog_10_n02098286_4560.png
swag_regnety_32gf_in1k,1,947,NaN,dog,bird,16-0-10,0947_eid_dnn_16-0-10_bird_10_n02007558_15130.png
swag_regnety_32gf_in1k,1,948,NaN,dog,elephant,32-0-10,0948_eid_dnn_32-0-10_elephant_10_n02504458_10344.png
swag_regnety_32gf_in1k,1,949,NaN,dog,clock,128-0-10,0949_eid_dnn_128-0-10_clock_10_n03196217_2919.png
swag_regnety_32gf_in1k,1,950,NaN,dog,bear,32-0-10,0950_eid_dnn_32-0-10_bear_10_n02132136_4203.png
swag_regnety_32gf_in1k,1,951,NaN,knife,bird,32-0-10,0951_eid_dnn_32-0-10_bird_10_n01582220_10508.png
swag_regnety_32gf_in1k,1,952,NaN,bicycle,bicycle,1-0-10,0952_eid_dnn_1-0-10_bicycle_10_n03792782_9692.png
swag_regnety_32gf_in1k,1,953,NaN,knife,clock,8-0-10,0953_eid_dnn_8-0-10_clock_10_n03196217_5433.png
swag_regnety_32gf_in1k,1,954,NaN,knife,elephant,64-0-10,0954_eid_dnn_64-0-10_elephant_10_n02504013_6703.png
swag_regnety_32gf_in1k,1,955,NaN,dog,dog,1-0-10,0955_eid_dnn_1-0-10_dog_10_n02093991_8648.png
swag_regnety_32gf_in1k,1,956,NaN,bird,bird,4-0-10,0956_eid_dnn_4-0-10_bird_10_n02033041_7196.png
swag_regnety_32gf_in1k,1,957,NaN,truck,truck,2-0-10,0957_eid_dnn_2-0-10_truck_10_n03796401_26820.png
swag_regnety_32gf_in1k,1,958,NaN,oven,oven,2-0-10,0958_eid_dnn_2-0-10_oven_10_n04111531_12820.png
swag_regnety_32gf_in1k,1,959,NaN,truck,truck,1-0-10,0959_eid_dnn_1-0-10_truck_10_n03417042_3389.png
swag_regnety_32gf_in1k,1,960,NaN,dog,bicycle,4-0-10,0960_eid_dnn_4-0-10_bicycle_10_n03792782_10366.png
swag_regnety_32gf_in1k,1,961,NaN,dog,bear,8-0-10,0961_eid_dnn_8-0-10_bear_10_n02134084_2598.png
swag_regnety_32gf_in1k,1,962,NaN,keyboard,keyboard,1-0-10,0962_eid_dnn_1-0-10_keyboard_10_n04505470_10697.png
swag_regnety_32gf_in1k,1,963,NaN,bottle,truck,64-0-10,0963_eid_dnn_64-0-10_truck_10_n04467665_43222.png
swag_regnety_32gf_in1k,1,964,NaN,knife,car,8-0-10,0964_eid_dnn_8-0-10_car_10_n04285008_2232.png
swag_regnety_32gf_in1k,1,965,NaN,bicycle,bicycle,2-0-10,0965_eid_dnn_2-0-10_bicycle_10_n03792782_3388.png
swag_regnety_32gf_in1k,1,966,NaN,oven,clock,16-0-10,0966_eid_dnn_16-0-10_clock_10_n03196217_7816.png
swag_regnety_32gf_in1k,1,967,NaN,dog,bottle,128-0-10,0967_eid_dnn_128-0-10_bottle_10_n02823428_3.png
swag_regnety_32gf_in1k,1,968,NaN,cat,dog,128-0-10,0968_eid_dnn_128-0-10_dog_10_n02097130_3615.png
swag_regnety_32gf_in1k,1,969,NaN,dog,elephant,64-0-10,0969_eid_dnn_64-0-10_elephant_10_n02504013_6423.png
swag_regnety_32gf_in1k,1,970,NaN,knife,knife,16-0-10,0970_eid_dnn_16-0-10_knife_10_n03041632_38610.png
swag_regnety_32gf_in1k,1,971,NaN,dog,boat,16-0-10,0971_eid_dnn_16-0-10_boat_10_n03662601_17273.png
swag_regnety_32gf_in1k,1,972,NaN,dog,car,128-0-10,0972_eid_dnn_128-0-10_car_10_n04285008_13702.png
swag_regnety_32gf_in1k,1,973,NaN,clock,clock,1-0-10,0973_eid_dnn_1-0-10_clock_10_n04548280_4989.png
swag_regnety_32gf_in1k,1,974,NaN,bear,bicycle,8-0-10,0974_eid_dnn_8-0-10_bicycle_10_n03792782_46560.png
swag_regnety_32gf_in1k,1,975,NaN,dog,keyboard,16-0-10,0975_eid_dnn_16-0-10_keyboard_10_n04505470_1833.png
swag_regnety_32gf_in1k,1,976,NaN,dog,truck,16-0-10,0976_eid_dnn_16-0-10_truck_10_n03417042_12328.png
swag_regnety_32gf_in1k,1,977,NaN,dog,oven,128-0-10,0977_eid_dnn_128-0-10_oven_10_n04111531_12450.png
swag_regnety_32gf_in1k,1,978,NaN,dog,airplane,32-0-10,0978_eid_dnn_32-0-10_airplane_10_n02690373_18506.png
swag_regnety_32gf_in1k,1,979,NaN,dog,chair,16-0-10,0979_eid_dnn_16-0-10_chair_10_n03376595_262.png
swag_regnety_32gf_in1k,1,980,NaN,dog,cat,128-0-10,0980_eid_dnn_128-0-10_cat_10_n02123159_5716.png
