subj,session,trial,rt,object_response,category,condition,imagename
subject-02,1,1,0.6699538230896,boat,bicycle,0,0001_sty_s02_0_bicycle_00_bicycle-0033-ILSVRC2012-val-00031498.png
subject-02,1,2,0.882771015167236,bottle,bottle,0,0002_sty_s02_0_bottle_00_bottle-0003-ILSVRC2012-val-00003622.png
subject-02,1,3,0.998857021331787,boat,knife,0,0003_sty_s02_0_knife_00_knife-0033-ILSVRC2012-val-00028494.png
subject-02,1,4,1.34678316116333,boat,chair,0,0004_sty_s02_0_chair_00_chair-0116-ILSVRC2012-val-00017447.png
subject-02,1,5,0.752362966537476,bear,elephant,0,0005_sty_s02_0_elephant_00_elephant-0029-ILSVRC2012-val-00027259.png
subject-02,1,6,0.74207592010498,boat,chair,0,0006_sty_s02_0_chair_00_chair-0124-ILSVRC2012-val-00022208.png
subject-02,1,7,0.905914068222046,chair,chair,0,0007_sty_s02_0_chair_00_chair-0127-ILSVRC2012-val-00024620.png
subject-02,1,8,0.967644214630127,clock,bottle,0,0008_sty_s02_0_bottle_00_bottle-0214-ILSVRC2012-val-00012572.png
subject-02,1,9,1.09962797164917,bird,keyboard,0,0009_sty_s02_0_keyboard_00_keyboard-0005-ILSVRC2012-val-00001687.png
subject-02,1,10,1.12935304641724,car,bird,0,0010_sty_s02_0_bird_00_bird-0486-ILSVRC2012-val-00037420.png
subject-02,1,11,1.179123878479,knife,boat,0,0011_sty_s02_0_boat_00_boat-0225-ILSVRC2012-val-00022075.png
subject-02,1,12,1.09898710250854,oven,bicycle,0,0012_sty_s02_0_bicycle_00_bicycle-0064-ILSVRC2012-val-00017103.png
subject-02,1,13,0.753203868865967,cat,cat,0,0013_sty_s02_0_cat_00_cat-0247-ILSVRC2012-val-00044374.png
subject-02,1,14,1.02064895629883,elephant,chair,0,0014_sty_s02_0_chair_00_chair-0170-ILSVRC2012-val-00022051.png
subject-02,1,15,1.01691699028015,dog,dog,0,0015_sty_s02_0_dog_00_dog-1734-ILSVRC2012-val-00031377.png
subject-02,1,16,0.694452047348022,boat,boat,0,0016_sty_s02_0_boat_00_boat-0243-ILSVRC2012-val-00039131.png
subject-02,1,17,0.912500858306885,bear,chair,0,0017_sty_s02_0_chair_00_chair-0047-ILSVRC2012-val-00045407.png
subject-02,1,18,0.945769071578979,oven,knife,0,0018_sty_s02_0_knife_00_knife-0034-ILSVRC2012-val-00029248.png
subject-02,1,19,0.841678142547607,car,car,0,0019_sty_s02_0_car_00_car-0005-ILSVRC2012-val-00006220.png
subject-02,1,20,1.02745699882507,bear,chair,0,0020_sty_s02_0_chair_00_chair-0098-ILSVRC2012-val-00044181.png
subject-02,1,21,0.799660921096802,clock,clock,0,0021_sty_s02_0_clock_00_clock-0048-ILSVRC2012-val-00044752.png
subject-02,1,22,1.03111386299133,oven,truck,0,0022_sty_s02_0_truck_00_truck-0028-ILSVRC2012-val-00028536.png
subject-02,1,23,0.687018871307373,boat,elephant,0,0023_sty_s02_0_elephant_00_elephant-0081-ILSVRC2012-val-00032404.png
subject-02,1,24,0.888767957687378,oven,oven,0,0024_sty_s02_0_oven_00_oven-0018-ILSVRC2012-val-00017795.png
subject-02,1,25,0.716544151306152,keyboard,keyboard,0,0025_sty_s02_0_keyboard_00_keyboard-0074-ILSVRC2012-val-00020967.png
subject-02,1,26,1.07050204277039,car,clock,0,0026_sty_s02_0_clock_00_clock-0076-ILSVRC2012-val-00028203.png
subject-02,1,27,1.10799384117126,clock,knife,0,0027_sty_s02_0_knife_00_knife-0010-ILSVRC2012-val-00009160.png
subject-02,1,28,0.645861864089966,boat,boat,0,0028_sty_s02_0_boat_00_boat-0236-ILSVRC2012-val-00032584.png
subject-02,1,29,1.37190508842468,bottle,cat,0,0029_sty_s02_0_cat_00_cat-0260-ILSVRC2012-val-00006612.png
subject-02,1,30,0.783740043640137,cat,cat,0,0030_sty_s02_0_cat_00_cat-0274-ILSVRC2012-val-00019370.png
subject-02,1,31,0.711482048034668,oven,oven,0,0031_sty_s02_0_oven_00_oven-0031-ILSVRC2012-val-00029125.png
subject-02,1,32,0.925283908843994,airplane,airplane,0,0032_sty_s02_0_airplane_00_airplane-0022-ILSVRC2012-val-00023781.png
subject-02,1,33,1.23299503326416,bottle,chair,0,0033_sty_s02_0_chair_00_chair-0058-ILSVRC2012-val-00005926.png
subject-02,1,34,1.39684081077576,car,oven,0,0034_sty_s02_0_oven_00_oven-0029-ILSVRC2012-val-00028472.png
subject-02,1,35,0.716651916503906,bicycle,bicycle,0,0035_sty_s02_0_bicycle_00_bicycle-0018-ILSVRC2012-val-00018975.png
subject-02,1,36,1.41264200210571,knife,bottle,0,0036_sty_s02_0_bottle_00_bottle-0002-ILSVRC2012-val-00002968.png
subject-02,1,37,1.32428812980652,elephant,elephant,0,0037_sty_s02_0_elephant_00_elephant-0055-ILSVRC2012-val-00003538.png
subject-02,1,38,1.40063691139221,bird,clock,0,0038_sty_s02_0_clock_00_clock-0007-ILSVRC2012-val-00005490.png
subject-02,1,39,1.19574594497681,dog,truck,0,0039_sty_s02_0_truck_00_truck-0184-ILSVRC2012-val-00032494.png
subject-02,1,40,0.627651929855347,boat,chair,0,0040_sty_s02_0_chair_00_chair-0196-ILSVRC2012-val-00045844.png
subject-02,1,41,0.77352499961853,boat,airplane,0,0041_sty_s02_0_airplane_00_airplane-0026-ILSVRC2012-val-00026189.png
subject-02,1,42,0.695250988006592,keyboard,keyboard,0,0042_sty_s02_0_keyboard_00_keyboard-0038-ILSVRC2012-val-00038711.png
subject-02,1,43,0.89320707321167,clock,clock,0,0043_sty_s02_0_clock_00_clock-0106-ILSVRC2012-val-00009413.png
subject-02,1,44,1.11892199516296,bear,cat,0,0044_sty_s02_0_cat_00_cat-0160-ILSVRC2012-val-00011528.png
subject-02,1,45,1.36322784423828,bottle,knife,0,0045_sty_s02_0_knife_00_knife-0015-ILSVRC2012-val-00011081.png
subject-02,1,46,1.12071585655212,cat,oven,0,0046_sty_s02_0_oven_00_oven-0006-ILSVRC2012-val-00004891.png
subject-02,1,47,1.37637591362,bird,bird,0,0047_sty_s02_0_bird_00_bird-2405-ILSVRC2012-val-00007988.png
subject-02,1,48,1.37611103057861,clock,knife,0,0048_sty_s02_0_knife_00_knife-0030-ILSVRC2012-val-00027427.png
subject-02,1,49,0.968672037124634,boat,oven,0,0049_sty_s02_0_oven_00_oven-0005-ILSVRC2012-val-00004125.png
subject-02,1,50,0.674014091491699,bear,bear,0,0050_sty_s02_0_bear_00_bear-0069-ILSVRC2012-val-00018788.png
subject-02,1,51,1.22980403900146,truck,truck,0,0051_sty_s02_0_truck_00_truck-0079-ILSVRC2012-val-00028914.png
subject-02,1,52,0.889542818069458,car,car,0,0052_sty_s02_0_car_00_car-0110-ILSVRC2012-val-00006285.png
subject-02,1,53,0.739690780639648,clock,bottle,0,0053_sty_s02_0_bottle_00_bottle-0052-ILSVRC2012-val-00000252.png
subject-02,1,54,0.889062881469727,bird,bird,0,0054_sty_s02_0_bird_00_bird-1256-ILSVRC2012-val-00005779.png
subject-02,1,55,1.05885195732117,chair,chair,0,0055_sty_s02_0_chair_00_chair-0138-ILSVRC2012-val-00038750.png
subject-02,1,56,0.800768136978149,clock,bottle,0,0056_sty_s02_0_bottle_00_bottle-0283-ILSVRC2012-val-00036864.png
subject-02,1,57,0.590498924255371,cat,cat,0,0057_sty_s02_0_cat_00_cat-0032-ILSVRC2012-val-00033420.png
subject-02,1,58,0.944741010665894,bicycle,bicycle,0,0058_sty_s02_0_bicycle_00_bicycle-0048-ILSVRC2012-val-00045400.png
subject-02,1,59,1.408282995224,dog,dog,0,0059_sty_s02_0_dog_00_dog-2290-ILSVRC2012-val-00036919.png
subject-02,1,60,0.828011989593506,clock,clock,0,0060_sty_s02_0_clock_00_clock-0052-ILSVRC2012-val-00003721.png
subject-02,1,61,1.36586117744446,car,bicycle,0,0061_sty_s02_0_bicycle_00_bicycle-0077-ILSVRC2012-val-00030112.png
subject-02,1,62,0.951544046401978,car,car,0,0062_sty_s02_0_car_00_car-0041-ILSVRC2012-val-00040706.png
subject-02,1,63,0.774161815643311,clock,clock,0,0063_sty_s02_0_clock_00_clock-0039-ILSVRC2012-val-00033429.png
subject-02,1,64,0.881124019622803,oven,oven,0,0064_sty_s02_0_oven_00_oven-0039-ILSVRC2012-val-00038382.png
subject-02,1,65,NaN,na,airplane,0,0065_sty_s02_0_airplane_00_airplane-0016-ILSVRC2012-val-00018685.png
subject-02,1,66,1.20465397834778,car,truck,0,0066_sty_s02_0_truck_00_truck-0330-ILSVRC2012-val-00031256.png
subject-02,1,67,0.722602128982544,clock,bottle,0,0067_sty_s02_0_bottle_00_bottle-0222-ILSVRC2012-val-00018657.png
subject-02,1,68,0.580470085144043,cat,cat,0,0068_sty_s02_0_cat_00_cat-0185-ILSVRC2012-val-00038168.png
subject-02,1,69,0.542423963546753,clock,clock,0,0069_sty_s02_0_clock_00_clock-0029-ILSVRC2012-val-00022719.png
subject-02,1,70,0.870194911956787,bird,airplane,0,0070_sty_s02_0_airplane_00_airplane-0021-ILSVRC2012-val-00023316.png
subject-02,1,71,0.618298053741455,keyboard,keyboard,0,0071_sty_s02_0_keyboard_00_keyboard-0067-ILSVRC2012-val-00013266.png
subject-02,1,72,0.86980414390564,truck,truck,0,0072_sty_s02_0_truck_00_truck-0018-ILSVRC2012-val-00016650.png
subject-02,1,73,1.21948289871216,clock,clock,0,0073_sty_s02_0_clock_00_clock-0008-ILSVRC2012-val-00005558.png
subject-02,1,74,0.701321840286255,boat,car,0,0074_sty_s02_0_car_00_car-0139-ILSVRC2012-val-00037952.png
subject-02,1,75,1.46957898139954,cat,chair,0,0075_sty_s02_0_chair_00_chair-0160-ILSVRC2012-val-00012040.png
subject-02,1,76,0.819444894790649,elephant,elephant,0,0076_sty_s02_0_elephant_00_elephant-0043-ILSVRC2012-val-00040923.png
subject-02,1,77,0.86667799949646,car,oven,0,0077_sty_s02_0_oven_00_oven-0034-ILSVRC2012-val-00033304.png
subject-02,1,78,0.74455189704895,bicycle,bicycle,0,0078_sty_s02_0_bicycle_00_bicycle-0060-ILSVRC2012-val-00011330.png
subject-02,1,79,0.718194961547852,bear,knife,0,0079_sty_s02_0_knife_00_knife-0029-ILSVRC2012-val-00026505.png
subject-02,1,80,0.724089860916138,boat,truck,0,0080_sty_s02_0_truck_00_truck-0185-ILSVRC2012-val-00033804.png
subject-02,1,81,0.71995997428894,cat,truck,0,0081_sty_s02_0_truck_00_truck-0027-ILSVRC2012-val-00025838.png
subject-02,1,82,0.867890119552612,bottle,boat,0,0082_sty_s02_0_boat_00_boat-0061-ILSVRC2012-val-00011292.png
subject-02,1,83,1.00384283065796,bottle,bird,0,0083_sty_s02_0_bird_00_bird-2011-ILSVRC2012-val-00008842.png
subject-02,1,84,0.939368963241577,bottle,bottle,0,0084_sty_s02_0_bottle_00_bottle-0345-ILSVRC2012-val-00044614.png
subject-02,1,85,0.687373876571655,bear,cat,0,0085_sty_s02_0_cat_00_cat-0298-ILSVRC2012-val-00042529.png
subject-02,1,86,1.10518217086792,boat,boat,0,0086_sty_s02_0_boat_00_boat-0036-ILSVRC2012-val-00032433.png
subject-02,1,87,0.774801015853882,clock,keyboard,0,0087_sty_s02_0_keyboard_00_keyboard-0086-ILSVRC2012-val-00037986.png
subject-02,1,88,0.624687910079956,car,car,0,0088_sty_s02_0_car_00_car-0025-ILSVRC2012-val-00023474.png
subject-02,1,89,0.944384098052979,bird,bird,0,0089_sty_s02_0_bird_00_bird-2082-ILSVRC2012-val-00036457.png
subject-02,1,90,1.25825095176697,boat,keyboard,0,0090_sty_s02_0_keyboard_00_keyboard-0012-ILSVRC2012-val-00009502.png
subject-02,1,91,1.23194217681885,bear,dog,0,0091_sty_s02_0_dog_00_dog-4914-ILSVRC2012-val-00011316.png
subject-02,1,92,1.24196314811707,knife,chair,0,0092_sty_s02_0_chair_00_chair-0045-ILSVRC2012-val-00044898.png
subject-02,1,93,1.09168291091919,airplane,elephant,0,0093_sty_s02_0_elephant_00_elephant-0035-ILSVRC2012-val-00034035.png
subject-02,1,94,0.913434028625488,chair,bicycle,0,0094_sty_s02_0_bicycle_00_bicycle-0022-ILSVRC2012-val-00023266.png
subject-02,1,95,0.833906173706055,bottle,bird,0,0095_sty_s02_0_bird_00_bird-2178-ILSVRC2012-val-00026510.png
subject-02,1,96,0.715075016021729,cat,cat,0,0096_sty_s02_0_cat_00_cat-0092-ILSVRC2012-val-00039621.png
subject-02,1,97,0.894953966140747,boat,airplane,0,0097_sty_s02_0_airplane_00_airplane-0033-ILSVRC2012-val-00033161.png
subject-02,1,98,0.696871995925903,bicycle,bicycle,0,0098_sty_s02_0_bicycle_00_bicycle-0100-ILSVRC2012-val-00049750.png
subject-02,1,99,0.616724967956543,cat,cat,0,0099_sty_s02_0_cat_00_cat-0137-ILSVRC2012-val-00027906.png
subject-02,1,100,0.792407035827637,bird,bird,0,0100_sty_s02_0_bird_00_bird-0754-ILSVRC2012-val-00002846.png
subject-02,1,101,0.990339040756226,dog,dog,0,0101_sty_s02_0_dog_00_dog-3425-ILSVRC2012-val-00027086.png
subject-02,1,102,0.94203519821167,bear,bottle,0,0102_sty_s02_0_bottle_00_bottle-0039-ILSVRC2012-val-00038570.png
subject-02,1,103,0.689999103546143,car,car,0,0103_sty_s02_0_car_00_car-0058-ILSVRC2012-val-00010676.png
subject-02,1,104,0.913748979568481,chair,boat,0,0104_sty_s02_0_boat_00_boat-0064-ILSVRC2012-val-00013366.png
subject-02,1,105,1.16586399078369,boat,chair,0,0105_sty_s02_0_chair_00_chair-0087-ILSVRC2012-val-00037905.png
subject-02,1,106,0.789268016815186,cat,elephant,0,0106_sty_s02_0_elephant_00_elephant-0011-ILSVRC2012-val-00011247.png
subject-02,1,107,0.795008897781372,bottle,chair,0,0107_sty_s02_0_chair_00_chair-0092-ILSVRC2012-val-00041814.png
subject-02,1,108,0.835309982299805,bottle,knife,0,0108_sty_s02_0_knife_00_knife-0009-ILSVRC2012-val-00008526.png
subject-02,1,109,0.81311297416687,cat,oven,0,0109_sty_s02_0_oven_00_oven-0038-ILSVRC2012-val-00038011.png
subject-02,1,110,0.696403026580811,bird,bird,0,0110_sty_s02_0_bird_00_bird-0157-ILSVRC2012-val-00005336.png
subject-02,1,111,0.870357036590576,car,car,0,0111_sty_s02_0_car_00_car-0032-ILSVRC2012-val-00030834.png
subject-02,1,112,0.866190910339355,bicycle,bicycle,0,0112_sty_s02_0_bicycle_00_bicycle-0016-ILSVRC2012-val-00016532.png
subject-02,1,113,0.79589581489563,bird,bird,0,0113_sty_s02_0_bird_00_bird-1941-ILSVRC2012-val-00042829.png
subject-02,1,114,0.726133108139038,boat,airplane,0,0114_sty_s02_0_airplane_00_airplane-0025-ILSVRC2012-val-00024747.png
subject-02,1,115,0.917657852172852,bottle,bottle,0,0115_sty_s02_0_bottle_00_bottle-0127-ILSVRC2012-val-00023580.png
subject-02,1,116,0.993737936019897,clock,chair,0,0116_sty_s02_0_chair_00_chair-0169-ILSVRC2012-val-00019913.png
subject-02,1,117,0.563096046447754,boat,keyboard,0,0117_sty_s02_0_keyboard_00_keyboard-0065-ILSVRC2012-val-00012212.png
subject-02,1,118,1.03100609779358,elephant,knife,0,0118_sty_s02_0_knife_00_knife-0021-ILSVRC2012-val-00016901.png
subject-02,1,119,0.702708005905151,car,truck,0,0119_sty_s02_0_truck_00_truck-0335-ILSVRC2012-val-00039723.png
subject-02,1,120,0.916548013687134,truck,knife,0,0120_sty_s02_0_knife_00_knife-0003-ILSVRC2012-val-00001964.png
subject-02,1,121,0.724549055099487,cat,elephant,0,0121_sty_s02_0_elephant_00_elephant-0015-ILSVRC2012-val-00015520.png
subject-02,1,122,0.620174884796143,clock,clock,0,0122_sty_s02_0_clock_00_clock-0025-ILSVRC2012-val-00019663.png
subject-02,1,123,0.860040903091431,truck,truck,0,0123_sty_s02_0_truck_00_truck-0047-ILSVRC2012-val-00047588.png
subject-02,1,124,1.49012589454651,bottle,keyboard,0,0124_sty_s02_0_keyboard_00_keyboard-0081-ILSVRC2012-val-00028754.png
subject-02,1,125,1.14181089401245,car,airplane,0,0125_sty_s02_0_airplane_00_airplane-0044-ILSVRC2012-val-00043242.png
subject-02,1,126,0.805704832077026,car,car,0,0126_sty_s02_0_car_00_car-0091-ILSVRC2012-val-00036091.png
subject-02,1,127,0.683433055877686,keyboard,keyboard,0,0127_sty_s02_0_keyboard_00_keyboard-0029-ILSVRC2012-val-00027307.png
subject-02,1,128,0.663506031036377,boat,oven,0,0128_sty_s02_0_oven_00_oven-0037-ILSVRC2012-val-00037357.png
subject-02,1,129,0.751338958740234,bear,bear,0,0129_sty_s02_0_bear_00_bear-0052-ILSVRC2012-val-00000865.png
subject-02,1,130,0.928686857223511,bottle,knife,0,0130_sty_s02_0_knife_00_knife-0005-ILSVRC2012-val-00003462.png
subject-02,1,131,0.766443967819214,chair,elephant,0,0131_sty_s02_0_elephant_00_elephant-0095-ILSVRC2012-val-00042879.png
subject-02,1,132,0.720594882965088,clock,dog,0,0132_sty_s02_0_dog_00_dog-5267-ILSVRC2012-val-00013862.png
subject-02,1,133,0.656265020370483,boat,bird,0,0133_sty_s02_0_bird_00_bird-1861-ILSVRC2012-val-00007811.png
subject-02,1,134,0.920150995254517,bottle,airplane,0,0134_sty_s02_0_airplane_00_airplane-0045-ILSVRC2012-val-00044253.png
subject-02,1,135,0.885847091674805,cat,truck,0,0135_sty_s02_0_truck_00_truck-0225-ILSVRC2012-val-00026079.png
subject-02,1,136,0.647613048553467,bear,bear,0,0136_sty_s02_0_bear_00_bear-0058-ILSVRC2012-val-00011726.png
subject-02,1,137,0.857924938201904,elephant,truck,0,0137_sty_s02_0_truck_00_truck-0070-ILSVRC2012-val-00021253.png
subject-02,1,138,0.751385927200317,bird,bird,0,0138_sty_s02_0_bird_00_bird-0045-ILSVRC2012-val-00045547.png
subject-02,1,139,0.703325986862183,cat,cat,0,0139_sty_s02_0_cat_00_cat-0150-ILSVRC2012-val-00049996.png
subject-02,1,140,1.48299407958984,dog,oven,0,0140_sty_s02_0_oven_00_oven-0049-ILSVRC2012-val-00048848.png
subject-02,1,141,0.684587955474854,cat,bear,0,0141_sty_s02_0_bear_00_bear-0003-ILSVRC2012-val-00003044.png
subject-02,1,142,0.838515043258667,keyboard,keyboard,0,0142_sty_s02_0_keyboard_00_keyboard-0060-ILSVRC2012-val-00008319.png
subject-02,1,143,0.654242992401123,cat,bear,0,0143_sty_s02_0_bear_00_bear-0113-ILSVRC2012-val-00016459.png
subject-02,1,144,0.890115022659302,truck,truck,0,0144_sty_s02_0_truck_00_truck-0315-ILSVRC2012-val-00021882.png
subject-02,1,145,0.83998703956604,bear,dog,0,0145_sty_s02_0_dog_00_dog-0303-ILSVRC2012-val-00002521.png
subject-02,1,146,0.877847194671631,bicycle,bicycle,0,0146_sty_s02_0_bicycle_00_bicycle-0011-ILSVRC2012-val-00011821.png
subject-02,1,147,0.891621828079224,truck,clock,0,0147_sty_s02_0_clock_00_clock-0100-ILSVRC2012-val-00049759.png
subject-02,1,148,0.943573951721191,car,truck,0,0148_sty_s02_0_truck_00_truck-0107-ILSVRC2012-val-00007374.png
subject-02,1,149,0.77522087097168,boat,bottle,0,0149_sty_s02_0_bottle_00_bottle-0180-ILSVRC2012-val-00027613.png
subject-02,1,150,0.62906813621521,cat,oven,0,0150_sty_s02_0_oven_00_oven-0009-ILSVRC2012-val-00007132.png
subject-02,1,151,0.898684978485107,car,boat,0,0151_sty_s02_0_boat_00_boat-0179-ILSVRC2012-val-00026763.png
subject-02,1,152,0.936710834503174,dog,car,0,0152_sty_s02_0_car_00_car-0096-ILSVRC2012-val-00043824.png
subject-02,1,153,0.802536964416504,bottle,oven,0,0153_sty_s02_0_oven_00_oven-0008-ILSVRC2012-val-00007052.png
subject-02,1,154,0.874183893203735,airplane,airplane,0,0154_sty_s02_0_airplane_00_airplane-0005-ILSVRC2012-val-00003960.png
subject-02,1,155,0.892003059387207,chair,bicycle,0,0155_sty_s02_0_bicycle_00_bicycle-0046-ILSVRC2012-val-00042496.png
subject-02,1,156,0.84192419052124,dog,dog,0,0156_sty_s02_0_dog_00_dog-1398-ILSVRC2012-val-00046547.png
subject-02,1,157,0.758080959320068,car,car,0,0157_sty_s02_0_car_00_car-0028-ILSVRC2012-val-00027049.png
subject-02,1,158,0.997464895248413,oven,elephant,0,0158_sty_s02_0_elephant_00_elephant-0099-ILSVRC2012-val-00048108.png
subject-02,1,159,0.795484066009521,car,car,0,0159_sty_s02_0_car_00_car-0079-ILSVRC2012-val-00025028.png
subject-02,1,160,1.23119711875916,dog,dog,0,0160_sty_s02_0_dog_00_dog-2889-ILSVRC2012-val-00043272.png
subject-02,1,161,0.99918007850647,bicycle,bicycle,0,0161_sty_s02_0_bicycle_00_bicycle-0050-ILSVRC2012-val-00049382.png
subject-02,1,162,0.760381937026978,bird,bird,0,0162_sty_s02_0_bird_00_bird-2410-ILSVRC2012-val-00010355.png
subject-02,1,163,0.752241849899292,boat,boat,0,0163_sty_s02_0_boat_00_boat-0076-ILSVRC2012-val-00020486.png
subject-02,1,164,0.768189907073975,clock,chair,0,0164_sty_s02_0_chair_00_chair-0018-ILSVRC2012-val-00013838.png
subject-02,1,165,0.834048986434937,bear,elephant,0,0165_sty_s02_0_elephant_00_elephant-0013-ILSVRC2012-val-00014219.png
subject-02,1,166,0.87391996383667,bottle,bottle,0,0166_sty_s02_0_bottle_00_bottle-0126-ILSVRC2012-val-00022079.png
subject-02,1,167,0.753551959991455,boat,keyboard,0,0167_sty_s02_0_keyboard_00_keyboard-0004-ILSVRC2012-val-00001089.png
subject-02,1,168,0.579530954360962,cat,cat,0,0168_sty_s02_0_cat_00_cat-0133-ILSVRC2012-val-00023898.png
subject-02,1,169,0.641700983047485,car,car,0,0169_sty_s02_0_car_00_car-0059-ILSVRC2012-val-00014010.png
subject-02,1,170,0.687126159667969,bear,dog,0,0170_sty_s02_0_dog_00_dog-0779-ILSVRC2012-val-00033666.png
subject-02,1,171,0.736809015274048,car,car,0,0171_sty_s02_0_car_00_car-0086-ILSVRC2012-val-00029454.png
subject-02,1,172,0.988715171813965,elephant,elephant,0,0172_sty_s02_0_elephant_00_elephant-0083-ILSVRC2012-val-00033235.png
subject-02,1,173,0.838510036468506,car,dog,0,0173_sty_s02_0_dog_00_dog-0386-ILSVRC2012-val-00034616.png
subject-02,1,174,0.858211994171143,bird,bottle,0,0174_sty_s02_0_bottle_00_bottle-0032-ILSVRC2012-val-00034979.png
subject-02,1,175,0.588072061538696,oven,oven,0,0175_sty_s02_0_oven_00_oven-0007-ILSVRC2012-val-00005817.png
subject-02,1,176,0.729884147644043,bottle,bear,0,0176_sty_s02_0_bear_00_bear-0166-ILSVRC2012-val-00022111.png
subject-02,1,177,1.04584383964539,bottle,bottle,0,0177_sty_s02_0_bottle_00_bottle-0224-ILSVRC2012-val-00020102.png
subject-02,1,178,0.789741039276123,car,truck,0,0178_sty_s02_0_truck_00_truck-0301-ILSVRC2012-val-00000671.png
subject-02,1,179,0.677468061447144,oven,oven,0,0179_sty_s02_0_oven_00_oven-0019-ILSVRC2012-val-00017971.png
subject-02,1,180,1.18909597396851,boat,airplane,0,0180_sty_s02_0_airplane_00_airplane-0002-ILSVRC2012-val-00001390.png
subject-02,1,181,0.681344985961914,chair,chair,0,0181_sty_s02_0_chair_00_chair-0085-ILSVRC2012-val-00036175.png
subject-02,1,182,0.67289400100708,car,car,0,0182_sty_s02_0_car_00_car-0082-ILSVRC2012-val-00027293.png
subject-02,1,183,0.712682008743286,cat,bicycle,0,0183_sty_s02_0_bicycle_00_bicycle-0081-ILSVRC2012-val-00032967.png
subject-02,1,184,0.806619167327881,bird,bird,0,0184_sty_s02_0_bird_00_bird-2222-ILSVRC2012-val-00015392.png
subject-02,1,185,0.670176029205322,car,car,0,0185_sty_s02_0_car_00_car-0045-ILSVRC2012-val-00042416.png
subject-02,1,186,0.88816499710083,cat,keyboard,0,0186_sty_s02_0_keyboard_00_keyboard-0076-ILSVRC2012-val-00022077.png
subject-02,1,187,0.693737030029297,boat,chair,0,0187_sty_s02_0_chair_00_chair-0192-ILSVRC2012-val-00043870.png
subject-02,1,188,0.607744932174683,bird,bird,0,0188_sty_s02_0_bird_00_bird-1551-ILSVRC2012-val-00000690.png
subject-02,1,189,0.501601934432983,clock,clock,0,0189_sty_s02_0_clock_00_clock-0144-ILSVRC2012-val-00041715.png
subject-02,1,190,0.845733880996704,car,elephant,0,0190_sty_s02_0_elephant_00_elephant-0069-ILSVRC2012-val-00017097.png
subject-02,1,191,0.640961170196533,boat,oven,0,0191_sty_s02_0_oven_00_oven-0047-ILSVRC2012-val-00047123.png
subject-02,1,192,0.641342163085938,car,car,0,0192_sty_s02_0_car_00_car-0103-ILSVRC2012-val-00003478.png
subject-02,1,193,0.732796907424927,bird,bird,0,0193_sty_s02_0_bird_00_bird-0822-ILSVRC2012-val-00025200.png
subject-02,1,194,1.37236499786377,oven,oven,0,0194_sty_s02_0_oven_00_oven-0001-ILSVRC2012-val-00001625.png
subject-02,1,195,1.08018708229065,dog,cat,0,0195_sty_s02_0_cat_00_cat-0031-ILSVRC2012-val-00030706.png
subject-02,1,196,0.784151077270508,bird,bird,0,0196_sty_s02_0_bird_00_bird-2144-ILSVRC2012-val-00044377.png
subject-02,1,197,0.814324140548706,bottle,bottle,0,0197_sty_s02_0_bottle_00_bottle-0331-ILSVRC2012-val-00033990.png
subject-02,1,198,0.567853927612305,boat,boat,0,0198_sty_s02_0_boat_00_boat-0160-ILSVRC2012-val-00008630.png
subject-02,1,199,0.579958200454712,oven,truck,0,0199_sty_s02_0_truck_00_truck-0368-ILSVRC2012-val-00016410.png
subject-02,1,200,1.13326382637024,elephant,cat,0,0200_sty_s02_0_cat_00_cat-0258-ILSVRC2012-val-00006112.png
subject-02,1,201,0.957029819488525,dog,dog,0,0201_sty_s02_0_dog_00_dog-0099-ILSVRC2012-val-00048280.png
subject-02,1,202,0.759145975112915,car,chair,0,0202_sty_s02_0_chair_00_chair-0072-ILSVRC2012-val-00015559.png
subject-02,1,203,0.760915040969849,cat,keyboard,0,0203_sty_s02_0_keyboard_00_keyboard-0009-ILSVRC2012-val-00006513.png
subject-02,1,204,0.962759971618652,dog,bird,0,0204_sty_s02_0_bird_00_bird-1452-ILSVRC2012-val-00002997.png
subject-02,1,205,0.778543949127197,bottle,bicycle,0,0205_sty_s02_0_bicycle_00_bicycle-0056-ILSVRC2012-val-00005330.png
subject-02,1,206,0.840232133865356,bird,bird,0,0206_sty_s02_0_bird_00_bird-0009-ILSVRC2012-val-00007530.png
subject-02,1,207,0.873908042907715,oven,boat,0,0207_sty_s02_0_boat_00_boat-0142-ILSVRC2012-val-00040889.png
subject-02,1,208,0.859951019287109,car,airplane,0,0208_sty_s02_0_airplane_00_airplane-0032-ILSVRC2012-val-00032804.png
subject-02,1,209,0.960086107254028,bear,boat,0,0209_sty_s02_0_boat_00_boat-0098-ILSVRC2012-val-00047961.png
subject-02,1,210,0.903725862503052,dog,dog,0,0210_sty_s02_0_dog_00_dog-2094-ILSVRC2012-val-00044284.png
subject-02,1,211,0.935800790786743,chair,elephant,0,0211_sty_s02_0_elephant_00_elephant-0028-ILSVRC2012-val-00025237.png
subject-02,1,212,1.05899882316589,chair,oven,0,0212_sty_s02_0_oven_00_oven-0042-ILSVRC2012-val-00039873.png
subject-02,1,213,0.97097110748291,oven,clock,0,0213_sty_s02_0_clock_00_clock-0032-ILSVRC2012-val-00024425.png
subject-02,1,214,0.776643991470337,dog,dog,0,0214_sty_s02_0_dog_00_dog-1178-ILSVRC2012-val-00022137.png
subject-02,1,215,1.15059518814087,dog,elephant,0,0215_sty_s02_0_elephant_00_elephant-0041-ILSVRC2012-val-00038720.png
subject-02,1,216,0.694414138793945,cat,bottle,0,0216_sty_s02_0_bottle_00_bottle-0216-ILSVRC2012-val-00013262.png
subject-02,1,217,0.942543029785156,airplane,boat,0,0217_sty_s02_0_boat_00_boat-0082-ILSVRC2012-val-00027612.png
subject-02,1,218,1.29598712921143,knife,bird,0,0218_sty_s02_0_bird_00_bird-0426-ILSVRC2012-val-00030017.png
subject-02,1,219,0.817917823791504,clock,clock,0,0219_sty_s02_0_clock_00_clock-0107-ILSVRC2012-val-00010270.png
subject-02,1,220,1.03205013275146,airplane,bear,0,0220_sty_s02_0_bear_00_bear-0116-ILSVRC2012-val-00020332.png
subject-02,1,221,0.865454196929932,boat,oven,0,0221_sty_s02_0_oven_00_oven-0040-ILSVRC2012-val-00038775.png
subject-02,1,222,0.965264081954956,car,knife,0,0222_sty_s02_0_knife_00_knife-0035-ILSVRC2012-val-00029833.png
subject-02,1,223,0.690929174423218,cat,airplane,0,0223_sty_s02_0_airplane_00_airplane-0043-ILSVRC2012-val-00041518.png
subject-02,1,224,0.672759056091309,oven,cat,0,0224_sty_s02_0_cat_00_cat-0291-ILSVRC2012-val-00035821.png
subject-02,1,225,0.753201007843018,boat,keyboard,0,0225_sty_s02_0_keyboard_00_keyboard-0045-ILSVRC2012-val-00045039.png
subject-02,1,226,0.882832050323486,dog,dog,0,0226_sty_s02_0_dog_00_dog-2129-ILSVRC2012-val-00025424.png
subject-02,1,227,1.1664252281189,dog,elephant,0,0227_sty_s02_0_elephant_00_elephant-0009-ILSVRC2012-val-00010713.png
subject-02,1,228,1.13203191757202,elephant,elephant,0,0228_sty_s02_0_elephant_00_elephant-0026-ILSVRC2012-val-00023589.png
subject-02,1,229,0.924381971359253,car,chair,0,0229_sty_s02_0_chair_00_chair-0122-ILSVRC2012-val-00019867.png
subject-02,1,230,1.25380611419678,elephant,elephant,0,0230_sty_s02_0_elephant_00_elephant-0087-ILSVRC2012-val-00034562.png
subject-02,1,231,0.907559156417847,bicycle,bicycle,0,0231_sty_s02_0_bicycle_00_bicycle-0013-ILSVRC2012-val-00012667.png
subject-02,1,232,0.849843978881836,cat,chair,0,0232_sty_s02_0_chair_00_chair-0189-ILSVRC2012-val-00041883.png
subject-02,1,233,0.987174987792969,airplane,bird,0,0233_sty_s02_0_bird_00_bird-1971-ILSVRC2012-val-00023024.png
subject-02,1,234,0.805431127548218,oven,knife,0,0234_sty_s02_0_knife_00_knife-0043-ILSVRC2012-val-00039826.png
subject-02,1,235,0.892730951309204,knife,truck,0,0235_sty_s02_0_truck_00_truck-0051-ILSVRC2012-val-00001144.png
subject-02,1,236,0.808763027191162,knife,chair,0,0236_sty_s02_0_chair_00_chair-0119-ILSVRC2012-val-00018206.png
subject-02,1,237,0.758464097976685,cat,keyboard,0,0237_sty_s02_0_keyboard_00_keyboard-0007-ILSVRC2012-val-00002755.png
subject-02,1,238,1.12059187889099,car,bicycle,0,0238_sty_s02_0_bicycle_00_bicycle-0008-ILSVRC2012-val-00008007.png
subject-02,1,239,0.72022819519043,cat,cat,0,0239_sty_s02_0_cat_00_cat-0270-ILSVRC2012-val-00017189.png
subject-02,1,240,0.984198808670044,car,car,0,0240_sty_s02_0_car_00_car-0065-ILSVRC2012-val-00016613.png
subject-02,1,241,0.769751071929932,clock,clock,0,0241_sty_s02_0_clock_00_clock-0108-ILSVRC2012-val-00011957.png
subject-02,1,242,0.765388011932373,chair,chair,0,0242_sty_s02_0_chair_00_chair-0081-ILSVRC2012-val-00033069.png
subject-02,1,243,0.755438089370728,boat,keyboard,0,0243_sty_s02_0_keyboard_00_keyboard-0073-ILSVRC2012-val-00019503.png
subject-02,1,244,0.66700291633606,oven,bird,0,0244_sty_s02_0_bird_00_bird-2433-ILSVRC2012-val-00028670.png
subject-02,1,245,0.938911914825439,airplane,boat,0,0245_sty_s02_0_boat_00_boat-0111-ILSVRC2012-val-00009680.png
subject-02,1,246,0.974640130996704,bicycle,bicycle,0,0246_sty_s02_0_bicycle_00_bicycle-0030-ILSVRC2012-val-00027620.png
subject-02,1,247,1.16465091705322,dog,bear,0,0247_sty_s02_0_bear_00_bear-0141-ILSVRC2012-val-00042320.png
subject-02,1,248,1.11645102500916,cat,airplane,0,0248_sty_s02_0_airplane_00_airplane-0034-ILSVRC2012-val-00033441.png
subject-02,1,249,0.800117969512939,elephant,bear,0,0249_sty_s02_0_bear_00_bear-0056-ILSVRC2012-val-00007093.png
subject-02,1,250,0.694411993026733,boat,airplane,0,0250_sty_s02_0_airplane_00_airplane-0047-ILSVRC2012-val-00046971.png
subject-02,1,251,1.10025906562805,airplane,airplane,0,0251_sty_s02_0_airplane_00_airplane-0019-ILSVRC2012-val-00022532.png
subject-02,1,252,0.847648859024048,dog,dog,0,0252_sty_s02_0_dog_00_dog-0247-ILSVRC2012-val-00045683.png
subject-02,1,253,0.979671955108643,oven,airplane,0,0253_sty_s02_0_airplane_00_airplane-0029-ILSVRC2012-val-00030319.png
subject-02,1,254,0.955648183822632,elephant,oven,0,0254_sty_s02_0_oven_00_oven-0015-ILSVRC2012-val-00013982.png
subject-02,1,255,0.944981098175049,elephant,elephant,0,0255_sty_s02_0_elephant_00_elephant-0065-ILSVRC2012-val-00010619.png
subject-02,1,256,0.954801797866821,keyboard,dog,0,0256_sty_s02_0_dog_00_dog-2321-ILSVRC2012-val-00015164.png
subject-02,1,257,0.820680856704712,cat,knife,0,0257_sty_s02_0_knife_00_knife-0024-ILSVRC2012-val-00021297.png
subject-02,1,258,0.910354852676392,bottle,bird,0,0258_sty_s02_0_bird_00_bird-0896-ILSVRC2012-val-00046621.png
subject-02,1,259,1.09027099609375,chair,bottle,0,0259_sty_s02_0_bottle_00_bottle-0204-ILSVRC2012-val-00002597.png
subject-02,1,260,0.904253005981445,airplane,clock,0,0260_sty_s02_0_clock_00_clock-0098-ILSVRC2012-val-00048682.png
subject-02,1,261,0.780062198638916,clock,clock,0,0261_sty_s02_0_clock_00_clock-0043-ILSVRC2012-val-00041613.png
subject-02,1,262,1.18787908554077,boat,knife,0,0262_sty_s02_0_knife_00_knife-0042-ILSVRC2012-val-00039665.png
subject-02,1,263,1.08561992645264,oven,chair,0,0263_sty_s02_0_chair_00_chair-0181-ILSVRC2012-val-00033160.png
subject-02,1,264,0.855342149734497,knife,bicycle,0,0264_sty_s02_0_bicycle_00_bicycle-0032-ILSVRC2012-val-00030070.png
subject-02,1,265,0.695115804672241,bicycle,bicycle,0,0265_sty_s02_0_bicycle_00_bicycle-0080-ILSVRC2012-val-00032009.png
subject-02,1,266,0.795124053955078,bear,bear,0,0266_sty_s02_0_bear_00_bear-0168-ILSVRC2012-val-00022698.png
subject-02,1,267,1.10282683372498,bottle,dog,0,0267_sty_s02_0_dog_00_dog-2876-ILSVRC2012-val-00027038.png
subject-02,1,268,0.790515184402466,bottle,bottle,0,0268_sty_s02_0_bottle_00_bottle-0233-ILSVRC2012-val-00031504.png
subject-02,1,269,0.804312944412231,bicycle,bird,0,0269_sty_s02_0_bird_00_bird-0532-ILSVRC2012-val-00028181.png
subject-02,1,270,0.936672925949097,chair,bear,0,0270_sty_s02_0_bear_00_bear-0114-ILSVRC2012-val-00017605.png
subject-02,1,271,0.832041025161743,bicycle,bicycle,0,0271_sty_s02_0_bicycle_00_bicycle-0073-ILSVRC2012-val-00027449.png
subject-02,1,272,0.689847946166992,bottle,clock,0,0272_sty_s02_0_clock_00_clock-0110-ILSVRC2012-val-00014035.png
subject-02,1,273,0.767627000808716,bottle,bottle,0,0273_sty_s02_0_bottle_00_bottle-0172-ILSVRC2012-val-00021707.png
subject-02,1,274,1.02186799049377,dog,boat,0,0274_sty_s02_0_boat_00_boat-0083-ILSVRC2012-val-00034455.png
subject-02,1,275,1.01931691169739,clock,chair,0,0275_sty_s02_0_chair_00_chair-0030-ILSVRC2012-val-00026896.png
subject-02,1,276,0.917263984680176,elephant,cat,0,0276_sty_s02_0_cat_00_cat-0123-ILSVRC2012-val-00014813.png
subject-02,1,277,0.680909156799316,cat,bear,0,0277_sty_s02_0_bear_00_bear-0049-ILSVRC2012-val-00049822.png
subject-02,1,278,0.640826940536499,airplane,airplane,0,0278_sty_s02_0_airplane_00_airplane-0007-ILSVRC2012-val-00009537.png
subject-02,1,279,0.814608097076416,clock,clock,0,0279_sty_s02_0_clock_00_clock-0073-ILSVRC2012-val-00026298.png
subject-02,1,280,1.12839913368225,elephant,elephant,0,0280_sty_s02_0_elephant_00_elephant-0022-ILSVRC2012-val-00022028.png
subject-02,1,281,1.50014591217041,car,truck,0,0281_sty_s02_0_truck_00_truck-0358-ILSVRC2012-val-00010556.png
subject-02,1,282,1.2418999671936,knife,chair,0,0282_sty_s02_0_chair_00_chair-0159-ILSVRC2012-val-00011028.png
subject-02,1,283,1.00603795051575,bird,bird,0,0283_sty_s02_0_bird_00_bird-1198-ILSVRC2012-val-00048142.png
subject-02,1,284,0.77344012260437,elephant,elephant,0,0284_sty_s02_0_elephant_00_elephant-0085-ILSVRC2012-val-00033861.png
subject-02,1,285,0.755390882492065,car,car,0,0285_sty_s02_0_car_00_car-0018-ILSVRC2012-val-00018138.png
subject-02,1,286,0.821145057678223,boat,bird,0,0286_sty_s02_0_bird_00_bird-1052-ILSVRC2012-val-00003884.png
subject-02,1,287,0.678881883621216,elephant,elephant,0,0287_sty_s02_0_elephant_00_elephant-0024-ILSVRC2012-val-00022921.png
subject-02,1,288,1.17885494232178,elephant,elephant,0,0288_sty_s02_0_elephant_00_elephant-0002-ILSVRC2012-val-00001850.png
subject-02,1,289,1.01849389076233,oven,truck,0,0289_sty_s02_0_truck_00_truck-0310-ILSVRC2012-val-00016077.png
subject-02,1,290,0.884329080581665,knife,bicycle,0,0290_sty_s02_0_bicycle_00_bicycle-0005-ILSVRC2012-val-00005274.png
subject-02,1,291,0.866232872009277,airplane,cat,0,0291_sty_s02_0_cat_00_cat-0082-ILSVRC2012-val-00025723.png
subject-02,1,292,1.28215909004211,bird,oven,0,0292_sty_s02_0_oven_00_oven-0045-ILSVRC2012-val-00045813.png
subject-02,1,293,0.683767080307007,oven,oven,0,0293_sty_s02_0_oven_00_oven-0044-ILSVRC2012-val-00041974.png
subject-02,1,294,1.06221199035645,bear,clock,0,0294_sty_s02_0_clock_00_clock-0092-ILSVRC2012-val-00044168.png
subject-02,1,295,1.00353693962097,boat,chair,0,0295_sty_s02_0_chair_00_chair-0022-ILSVRC2012-val-00016403.png
subject-02,1,296,0.719265937805176,bird,bird,0,0296_sty_s02_0_bird_00_bird-0119-ILSVRC2012-val-00016252.png
subject-02,1,297,0.937641859054565,car,car,0,0297_sty_s02_0_car_00_car-0010-ILSVRC2012-val-00012600.png
subject-02,1,298,1.0808470249176,dog,airplane,0,0298_sty_s02_0_airplane_00_airplane-0024-ILSVRC2012-val-00024108.png
subject-02,1,299,1.06267404556274,chair,knife,0,0299_sty_s02_0_knife_00_knife-0018-ILSVRC2012-val-00014608.png
subject-02,1,300,0.696655988693237,clock,clock,0,0300_sty_s02_0_clock_00_clock-0045-ILSVRC2012-val-00043497.png
subject-02,1,301,0.720340013504028,oven,bottle,0,0301_sty_s02_0_bottle_00_bottle-0325-ILSVRC2012-val-00027316.png
subject-02,1,302,1.04456901550293,bottle,oven,0,0302_sty_s02_0_oven_00_oven-0026-ILSVRC2012-val-00022397.png
subject-02,1,303,0.953908920288086,bottle,oven,0,0303_sty_s02_0_oven_00_oven-0027-ILSVRC2012-val-00024603.png
subject-02,1,304,1.10369491577148,knife,bottle,0,0304_sty_s02_0_bottle_00_bottle-0153-ILSVRC2012-val-00003318.png
subject-02,1,305,0.992063045501709,oven,truck,0,0305_sty_s02_0_truck_00_truck-0103-ILSVRC2012-val-00004552.png
subject-02,1,306,0.727921009063721,oven,keyboard,0,0306_sty_s02_0_keyboard_00_keyboard-0063-ILSVRC2012-val-00009383.png
subject-02,1,307,0.565659999847412,cat,cat,0,0307_sty_s02_0_cat_00_cat-0045-ILSVRC2012-val-00041570.png
subject-02,1,308,0.640998125076294,cat,cat,0,0308_sty_s02_0_cat_00_cat-0042-ILSVRC2012-val-00040238.png
subject-02,1,309,0.960865020751953,elephant,truck,0,0309_sty_s02_0_truck_00_truck-0054-ILSVRC2012-val-00004119.png
subject-02,1,310,0.748924970626831,elephant,elephant,0,0310_sty_s02_0_elephant_00_elephant-0003-ILSVRC2012-val-00003280.png
subject-02,1,311,0.66053295135498,car,car,0,0311_sty_s02_0_car_00_car-0118-ILSVRC2012-val-00012327.png
subject-02,1,312,0.92440390586853,keyboard,keyboard,0,0312_sty_s02_0_keyboard_00_keyboard-0070-ILSVRC2012-val-00015929.png
subject-02,1,313,1.0007758140564,knife,chair,0,0313_sty_s02_0_chair_00_chair-0172-ILSVRC2012-val-00023378.png
subject-02,1,314,0.879966020584106,bird,boat,0,0314_sty_s02_0_boat_00_boat-0011-ILSVRC2012-val-00011563.png
subject-02,1,315,0.94002103805542,airplane,bird,0,0315_sty_s02_0_bird_00_bird-1646-ILSVRC2012-val-00039398.png
subject-02,1,316,0.747905015945435,clock,clock,0,0316_sty_s02_0_clock_00_clock-0091-ILSVRC2012-val-00044029.png
subject-02,1,317,0.66582202911377,oven,bicycle,0,0317_sty_s02_0_bicycle_00_bicycle-0039-ILSVRC2012-val-00037292.png
subject-02,1,318,0.83543586730957,cat,bird,0,0318_sty_s02_0_bird_00_bird-1865-ILSVRC2012-val-00009672.png
subject-02,1,319,1.10921597480774,dog,dog,0,0319_sty_s02_0_dog_00_dog-0158-ILSVRC2012-val-00004081.png
subject-02,1,320,0.851112127304077,boat,airplane,0,0320_sty_s02_0_airplane_00_airplane-0017-ILSVRC2012-val-00019179.png
subject-02,1,321,0.920382976531982,car,bottle,0,0321_sty_s02_0_bottle_00_bottle-0086-ILSVRC2012-val-00036795.png
subject-02,1,322,1.07018613815308,bird,bicycle,0,0322_sty_s02_0_bicycle_00_bicycle-0067-ILSVRC2012-val-00018304.png
subject-02,1,323,1.01789307594299,bear,bear,0,0323_sty_s02_0_bear_00_bear-0094-ILSVRC2012-val-00043648.png
subject-02,1,324,1.02176594734192,bear,bear,0,0324_sty_s02_0_bear_00_bear-0074-ILSVRC2012-val-00026962.png
subject-02,1,325,1.24569511413574,bird,bird,0,0325_sty_s02_0_bird_00_bird-0995-ILSVRC2012-val-00046534.png
subject-02,1,326,0.87741494178772,cat,truck,0,0326_sty_s02_0_truck_00_truck-0112-ILSVRC2012-val-00013466.png
subject-02,1,327,0.879204034805298,airplane,airplane,0,0327_sty_s02_0_airplane_00_airplane-0039-ILSVRC2012-val-00037801.png
subject-02,1,328,0.871122121810913,oven,keyboard,0,0328_sty_s02_0_keyboard_00_keyboard-0030-ILSVRC2012-val-00029239.png
subject-02,1,329,0.98485803604126,cat,boat,0,0329_sty_s02_0_boat_00_boat-0223-ILSVRC2012-val-00020544.png
subject-02,1,330,0.97326397895813,bear,cat,0,0330_sty_s02_0_cat_00_cat-0050-ILSVRC2012-val-00047911.png
subject-02,1,331,1.44868993759155,car,truck,0,0331_sty_s02_0_truck_00_truck-0194-ILSVRC2012-val-00042924.png
subject-02,1,332,1.13659405708313,boat,bicycle,0,0332_sty_s02_0_bicycle_00_bicycle-0010-ILSVRC2012-val-00010544.png
subject-02,1,333,1.06461882591248,airplane,bird,0,0333_sty_s02_0_bird_00_bird-2248-ILSVRC2012-val-00044992.png
subject-02,1,334,0.736128091812134,car,truck,0,0334_sty_s02_0_truck_00_truck-0274-ILSVRC2012-val-00021717.png
subject-02,1,335,1.2557520866394,bear,elephant,0,0335_sty_s02_0_elephant_00_elephant-0096-ILSVRC2012-val-00046061.png
subject-02,1,336,1.01951813697815,clock,elephant,0,0336_sty_s02_0_elephant_00_elephant-0057-ILSVRC2012-val-00004013.png
subject-02,1,337,0.941810131072998,cat,cat,0,0337_sty_s02_0_cat_00_cat-0284-ILSVRC2012-val-00027069.png
subject-02,1,338,0.853192090988159,bicycle,bicycle,0,0338_sty_s02_0_bicycle_00_bicycle-0092-ILSVRC2012-val-00043207.png
subject-02,1,339,0.701100826263428,boat,cat,0,0339_sty_s02_0_cat_00_cat-0062-ILSVRC2012-val-00013788.png
subject-02,1,340,1.50000500679016,bird,knife,0,0340_sty_s02_0_knife_00_knife-0046-ILSVRC2012-val-00045197.png
subject-02,1,341,1.26064896583557,bear,boat,0,0341_sty_s02_0_boat_00_boat-0170-ILSVRC2012-val-00020353.png
subject-02,1,342,1.40036201477051,boat,chair,0,0342_sty_s02_0_chair_00_chair-0154-ILSVRC2012-val-00004705.png
subject-02,1,343,0.976871967315674,oven,boat,0,0343_sty_s02_0_boat_00_boat-0100-ILSVRC2012-val-00048371.png
subject-02,1,344,0.836250066757202,bicycle,bicycle,0,0344_sty_s02_0_bicycle_00_bicycle-0094-ILSVRC2012-val-00044080.png
subject-02,1,345,1.25008392333984,elephant,elephant,0,0345_sty_s02_0_elephant_00_elephant-0036-ILSVRC2012-val-00034664.png
subject-02,1,346,0.805797100067139,truck,truck,0,0346_sty_s02_0_truck_00_truck-0096-ILSVRC2012-val-00044888.png
subject-02,1,347,0.87949800491333,cat,bicycle,0,0347_sty_s02_0_bicycle_00_bicycle-0096-ILSVRC2012-val-00045152.png
subject-02,1,348,1.04140591621399,bear,bear,0,0348_sty_s02_0_bear_00_bear-0064-ILSVRC2012-val-00016050.png
subject-02,1,349,0.971112012863159,car,car,0,0349_sty_s02_0_car_00_car-0030-ILSVRC2012-val-00029057.png
subject-02,1,350,1.3229649066925,airplane,chair,0,0350_sty_s02_0_chair_00_chair-0097-ILSVRC2012-val-00043453.png
subject-02,1,351,0.857178926467896,cat,boat,0,0351_sty_s02_0_boat_00_boat-0129-ILSVRC2012-val-00027504.png
subject-02,1,352,1.15262603759766,bird,bottle,0,0352_sty_s02_0_bottle_00_bottle-0334-ILSVRC2012-val-00036776.png
subject-02,1,353,1.05643510818481,chair,bicycle,0,0353_sty_s02_0_bicycle_00_bicycle-0089-ILSVRC2012-val-00042393.png
subject-02,1,354,0.774680137634277,car,truck,0,0354_sty_s02_0_truck_00_truck-0284-ILSVRC2012-val-00030765.png
subject-02,1,355,0.710028886795044,boat,boat,0,0355_sty_s02_0_boat_00_boat-0217-ILSVRC2012-val-00015089.png
subject-02,1,356,0.749971151351929,elephant,bear,0,0356_sty_s02_0_bear_00_bear-0005-ILSVRC2012-val-00006703.png
subject-02,1,357,1.07803010940552,bottle,keyboard,0,0357_sty_s02_0_keyboard_00_keyboard-0006-ILSVRC2012-val-00002499.png
subject-02,1,358,0.857438087463379,chair,knife,0,0358_sty_s02_0_knife_00_knife-0049-ILSVRC2012-val-00048820.png
subject-02,1,359,1.2494158744812,chair,chair,0,0359_sty_s02_0_chair_00_chair-0053-ILSVRC2012-val-00001855.png
subject-02,1,360,1.09940981864929,bear,bear,0,0360_sty_s02_0_bear_00_bear-0078-ILSVRC2012-val-00030951.png
subject-02,1,361,0.81489896774292,keyboard,keyboard,0,0361_sty_s02_0_keyboard_00_keyboard-0055-ILSVRC2012-val-00001330.png
subject-02,1,362,0.694849967956543,car,car,0,0362_sty_s02_0_car_00_car-0067-ILSVRC2012-val-00018569.png
subject-02,1,363,0.998610973358154,bicycle,bicycle,0,0363_sty_s02_0_bicycle_00_bicycle-0074-ILSVRC2012-val-00028824.png
subject-02,1,364,0.900395154953003,keyboard,boat,0,0364_sty_s02_0_boat_00_boat-0235-ILSVRC2012-val-00032371.png
subject-02,1,365,0.838213205337524,dog,dog,0,0365_sty_s02_0_dog_00_dog-2629-ILSVRC2012-val-00030579.png
subject-02,1,366,0.711851119995117,oven,clock,0,0366_sty_s02_0_clock_00_clock-0118-ILSVRC2012-val-00018443.png
subject-02,1,367,0.969819784164429,keyboard,bird,0,0367_sty_s02_0_bird_00_bird-2118-ILSVRC2012-val-00021926.png
subject-02,1,368,1.00951814651489,cat,knife,0,0368_sty_s02_0_knife_00_knife-0008-ILSVRC2012-val-00006102.png
subject-02,1,369,0.915534019470215,truck,truck,0,0369_sty_s02_0_truck_00_truck-0060-ILSVRC2012-val-00007519.png
subject-02,1,370,0.765078067779541,airplane,bear,0,0370_sty_s02_0_bear_00_bear-0066-ILSVRC2012-val-00016621.png
subject-02,1,371,1.11705994606018,bear,oven,0,0371_sty_s02_0_oven_00_oven-0041-ILSVRC2012-val-00039789.png
subject-02,1,372,1.02870583534241,car,airplane,0,0372_sty_s02_0_airplane_00_airplane-0037-ILSVRC2012-val-00035783.png
subject-02,1,373,1.09851217269897,clock,clock,0,0373_sty_s02_0_clock_00_clock-0013-ILSVRC2012-val-00013244.png
subject-02,1,374,0.724344968795776,car,car,0,0374_sty_s02_0_car_00_car-0095-ILSVRC2012-val-00041430.png
subject-02,1,375,1.29670786857605,knife,bottle,0,0375_sty_s02_0_bottle_00_bottle-0057-ILSVRC2012-val-00005967.png
subject-02,1,376,0.662101984024048,clock,clock,0,0376_sty_s02_0_clock_00_clock-0028-ILSVRC2012-val-00021179.png
subject-02,1,377,0.840425968170166,bird,bicycle,0,0377_sty_s02_0_bicycle_00_bicycle-0070-ILSVRC2012-val-00020631.png
subject-02,1,378,0.730136156082153,clock,clock,0,0378_sty_s02_0_clock_00_clock-0129-ILSVRC2012-val-00031861.png
subject-02,1,379,0.894001960754395,chair,bicycle,0,0379_sty_s02_0_bicycle_00_bicycle-0038-ILSVRC2012-val-00036903.png
subject-02,1,380,0.723234891891479,cat,cat,0,0380_sty_s02_0_cat_00_cat-0234-ILSVRC2012-val-00028970.png
subject-02,1,381,0.699213981628418,bear,bear,0,0381_sty_s02_0_bear_00_bear-0131-ILSVRC2012-val-00031877.png
subject-02,1,382,0.82302188873291,keyboard,bird,0,0382_sty_s02_0_bird_00_bird-0175-ILSVRC2012-val-00018699.png
subject-02,1,383,0.824765205383301,boat,dog,0,0383_sty_s02_0_dog_00_dog-4443-ILSVRC2012-val-00045160.png
subject-02,1,384,0.778456926345825,oven,airplane,0,0384_sty_s02_0_airplane_00_airplane-0014-ILSVRC2012-val-00016995.png
subject-02,1,385,0.860323905944824,car,boat,0,0385_sty_s02_0_boat_00_boat-0137-ILSVRC2012-val-00035374.png
subject-02,1,386,0.870630979537964,bird,knife,0,0386_sty_s02_0_knife_00_knife-0028-ILSVRC2012-val-00026439.png
subject-02,1,387,0.687933921813965,cat,cat,0,0387_sty_s02_0_cat_00_cat-0118-ILSVRC2012-val-00010218.png
subject-02,1,388,1.06589102745056,bottle,bottle,0,0388_sty_s02_0_bottle_00_bottle-0243-ILSVRC2012-val-00040157.png
subject-02,1,389,0.977518081665039,bear,bear,0,0389_sty_s02_0_bear_00_bear-0067-ILSVRC2012-val-00017273.png
subject-02,1,390,0.803344964981079,car,truck,0,0390_sty_s02_0_truck_00_truck-0329-ILSVRC2012-val-00029413.png
subject-02,1,391,0.869684934616089,bottle,knife,0,0391_sty_s02_0_knife_00_knife-0050-ILSVRC2012-val-00048891.png
subject-02,1,392,0.848926067352295,bicycle,bicycle,0,0392_sty_s02_0_bicycle_00_bicycle-0079-ILSVRC2012-val-00031485.png
subject-02,1,393,1.06701397895813,bear,clock,0,0393_sty_s02_0_clock_00_clock-0145-ILSVRC2012-val-00044685.png
subject-02,1,394,0.916543960571289,knife,keyboard,0,0394_sty_s02_0_keyboard_00_keyboard-0056-ILSVRC2012-val-00003296.png
subject-02,1,395,0.910597085952759,airplane,airplane,0,0395_sty_s02_0_airplane_00_airplane-0008-ILSVRC2012-val-00010597.png
subject-02,1,396,0.730291128158569,boat,boat,0,0396_sty_s02_0_boat_00_boat-0181-ILSVRC2012-val-00031072.png
subject-02,1,397,0.846017122268677,chair,oven,0,0397_sty_s02_0_oven_00_oven-0004-ILSVRC2012-val-00003075.png
subject-02,1,398,0.75389289855957,boat,boat,0,0398_sty_s02_0_boat_00_boat-0195-ILSVRC2012-val-00042203.png
subject-02,1,399,0.698141098022461,bottle,bear,0,0399_sty_s02_0_bear_00_bear-0125-ILSVRC2012-val-00028222.png
subject-02,1,400,0.829675912857056,car,car,0,0400_sty_s02_0_car_00_car-0121-ILSVRC2012-val-00016638.png
subject-02,1,401,0.791479110717773,airplane,boat,0,0401_sty_s02_0_boat_00_boat-0169-ILSVRC2012-val-00019970.png
subject-02,1,402,0.867358922958374,bottle,cat,0,0402_sty_s02_0_cat_00_cat-0202-ILSVRC2012-val-00001496.png
subject-02,1,403,0.839057207107544,cat,dog,0,0403_sty_s02_0_dog_00_dog-4070-ILSVRC2012-val-00021155.png
subject-02,1,404,1.25316119194031,dog,dog,0,0404_sty_s02_0_dog_00_dog-2535-ILSVRC2012-val-00038253.png
subject-02,1,405,0.96251916885376,keyboard,keyboard,0,0405_sty_s02_0_keyboard_00_keyboard-0058-ILSVRC2012-val-00007790.png
subject-02,1,406,1.0344181060791,knife,bottle,0,0406_sty_s02_0_bottle_00_bottle-0031-ILSVRC2012-val-00033822.png
subject-02,1,407,0.822335004806519,bottle,airplane,0,0407_sty_s02_0_airplane_00_airplane-0013-ILSVRC2012-val-00015636.png
subject-02,1,408,0.96788501739502,chair,boat,0,0408_sty_s02_0_boat_00_boat-0196-ILSVRC2012-val-00042675.png
subject-02,1,409,0.667868852615356,boat,cat,0,0409_sty_s02_0_cat_00_cat-0072-ILSVRC2012-val-00019303.png
subject-02,1,410,0.861520051956177,elephant,elephant,0,0410_sty_s02_0_elephant_00_elephant-0033-ILSVRC2012-val-00033715.png
subject-02,1,411,0.641443014144897,bottle,truck,0,0411_sty_s02_0_truck_00_truck-0373-ILSVRC2012-val-00019053.png
subject-02,1,412,0.69518780708313,cat,dog,0,0412_sty_s02_0_dog_00_dog-1613-ILSVRC2012-val-00015923.png
subject-02,1,413,0.889096021652222,chair,chair,0,0413_sty_s02_0_chair_00_chair-0136-ILSVRC2012-val-00037994.png
subject-02,1,414,0.789029836654663,dog,dog,0,0414_sty_s02_0_dog_00_dog-3802-ILSVRC2012-val-00003862.png
subject-02,1,415,0.638948917388916,oven,clock,0,0415_sty_s02_0_clock_00_clock-0084-ILSVRC2012-val-00034426.png
subject-02,1,416,0.784509897232056,bear,knife,0,0416_sty_s02_0_knife_00_knife-0038-ILSVRC2012-val-00037845.png
subject-02,1,417,1.38640999794006,oven,elephant,0,0417_sty_s02_0_elephant_00_elephant-0078-ILSVRC2012-val-00027908.png
subject-02,1,418,0.806337833404541,knife,boat,0,0418_sty_s02_0_boat_00_boat-0222-ILSVRC2012-val-00019246.png
subject-02,1,419,0.800041198730469,oven,knife,0,0419_sty_s02_0_knife_00_knife-0025-ILSVRC2012-val-00022700.png
subject-02,1,420,NaN,na,chair,0,0420_sty_s02_0_chair_00_chair-0193-ILSVRC2012-val-00044295.png
subject-02,1,421,0.757701873779297,car,car,0,0421_sty_s02_0_car_00_car-0013-ILSVRC2012-val-00014541.png
subject-02,1,422,0.613546133041382,clock,car,0,0422_sty_s02_0_car_00_car-0012-ILSVRC2012-val-00014447.png
subject-02,1,423,1.02911877632141,knife,boat,0,0423_sty_s02_0_boat_00_boat-0048-ILSVRC2012-val-00046387.png
subject-02,1,424,0.91943097114563,bicycle,bicycle,0,0424_sty_s02_0_bicycle_00_bicycle-0078-ILSVRC2012-val-00030892.png
subject-02,1,425,0.750792026519775,car,car,0,0425_sty_s02_0_car_00_car-0060-ILSVRC2012-val-00014208.png
subject-02,1,426,1.01259303092957,keyboard,knife,0,0426_sty_s02_0_knife_00_knife-0001-ILSVRC2012-val-00000564.png
subject-02,1,427,0.768435001373291,clock,clock,0,0427_sty_s02_0_clock_00_clock-0046-ILSVRC2012-val-00044049.png
subject-02,1,428,0.852115869522095,bicycle,bicycle,0,0428_sty_s02_0_bicycle_00_bicycle-0026-ILSVRC2012-val-00026292.png
subject-02,1,429,0.578001976013184,boat,boat,0,0429_sty_s02_0_boat_00_boat-0044-ILSVRC2012-val-00041227.png
subject-02,1,430,0.536276817321777,clock,clock,0,0430_sty_s02_0_clock_00_clock-0128-ILSVRC2012-val-00030987.png
subject-02,1,431,1.06770205497742,airplane,car,0,0431_sty_s02_0_car_00_car-0054-ILSVRC2012-val-00005500.png
subject-02,1,432,0.725409984588623,oven,boat,0,0432_sty_s02_0_boat_00_boat-0039-ILSVRC2012-val-00033883.png
subject-02,1,433,0.921741962432861,oven,truck,0,0433_sty_s02_0_truck_00_truck-0048-ILSVRC2012-val-00047888.png
subject-02,1,434,0.935276985168457,bicycle,elephant,0,0434_sty_s02_0_elephant_00_elephant-0073-ILSVRC2012-val-00021807.png
subject-02,1,435,0.855392932891846,car,truck,0,0435_sty_s02_0_truck_00_truck-0265-ILSVRC2012-val-00010166.png
subject-02,1,436,1.35885000228882,bottle,bottle,0,0436_sty_s02_0_bottle_00_bottle-0107-ILSVRC2012-val-00008313.png
subject-02,1,437,1.21269607543945,bird,bird,0,0437_sty_s02_0_bird_00_bird-0752-ILSVRC2012-val-00001596.png
subject-02,1,438,1.0543258190155,knife,chair,0,0438_sty_s02_0_chair_00_chair-0059-ILSVRC2012-val-00006022.png
subject-02,1,439,0.80620002746582,bird,bottle,0,0439_sty_s02_0_bottle_00_bottle-0138-ILSVRC2012-val-00032559.png
subject-02,1,440,0.900552988052368,car,car,0,0440_sty_s02_0_car_00_car-0146-ILSVRC2012-val-00043297.png
subject-02,1,441,0.733864068984985,chair,cat,0,0441_sty_s02_0_cat_00_cat-0243-ILSVRC2012-val-00040600.png
subject-02,1,442,0.651798009872437,car,car,0,0442_sty_s02_0_car_00_car-0066-ILSVRC2012-val-00018249.png
subject-02,1,443,0.697418928146362,boat,boat,0,0443_sty_s02_0_boat_00_boat-0121-ILSVRC2012-val-00016970.png
subject-02,1,444,1.16518902778625,bicycle,bicycle,0,0444_sty_s02_0_bicycle_00_bicycle-0037-ILSVRC2012-val-00036009.png
subject-02,1,445,0.865051984786987,bear,elephant,0,0445_sty_s02_0_elephant_00_elephant-0080-ILSVRC2012-val-00030840.png
subject-02,1,446,0.99880313873291,bear,dog,0,0446_sty_s02_0_dog_00_dog-1735-ILSVRC2012-val-00031764.png
subject-02,1,447,1.16714906692505,bottle,oven,0,0447_sty_s02_0_oven_00_oven-0021-ILSVRC2012-val-00019775.png
subject-02,1,448,0.702558040618896,bottle,knife,0,0448_sty_s02_0_knife_00_knife-0041-ILSVRC2012-val-00038966.png
subject-02,1,449,0.922240972518921,knife,keyboard,0,0449_sty_s02_0_keyboard_00_keyboard-0020-ILSVRC2012-val-00020212.png
subject-02,1,450,0.998219013214111,keyboard,keyboard,0,0450_sty_s02_0_keyboard_00_keyboard-0057-ILSVRC2012-val-00005863.png
subject-02,1,451,0.701924085617065,bottle,bicycle,0,0451_sty_s02_0_bicycle_00_bicycle-0061-ILSVRC2012-val-00012096.png
subject-02,1,452,0.85185980796814,bottle,bird,0,0452_sty_s02_0_bird_00_bird-1913-ILSVRC2012-val-00012475.png
subject-02,1,453,0.967661142349243,airplane,boat,0,0453_sty_s02_0_boat_00_boat-0073-ILSVRC2012-val-00018158.png
subject-02,1,454,0.769753932952881,bear,bear,0,0454_sty_s02_0_bear_00_bear-0132-ILSVRC2012-val-00036763.png
subject-02,1,455,0.82333517074585,bear,bear,0,0455_sty_s02_0_bear_00_bear-0195-ILSVRC2012-val-00045672.png
subject-02,1,456,0.747000932693481,car,truck,0,0456_sty_s02_0_truck_00_truck-0196-ILSVRC2012-val-00044805.png
subject-02,1,457,1.13697290420532,dog,bird,0,0457_sty_s02_0_bird_00_bird-2184-ILSVRC2012-val-00034910.png
subject-02,1,458,1.16701698303223,oven,cat,0,0458_sty_s02_0_cat_00_cat-0162-ILSVRC2012-val-00012173.png
subject-02,1,459,1.074786901474,bird,bicycle,0,0459_sty_s02_0_bicycle_00_bicycle-0024-ILSVRC2012-val-00025915.png
subject-02,1,460,0.876219034194946,clock,oven,0,0460_sty_s02_0_oven_00_oven-0024-ILSVRC2012-val-00021187.png
subject-02,1,461,0.768225908279419,airplane,airplane,0,0461_sty_s02_0_airplane_00_airplane-0011-ILSVRC2012-val-00014425.png
subject-02,1,462,0.699801921844482,boat,boat,0,0462_sty_s02_0_boat_00_boat-0033-ILSVRC2012-val-00030824.png
subject-02,1,463,0.717629909515381,car,truck,0,0463_sty_s02_0_truck_00_truck-0116-ILSVRC2012-val-00016053.png
subject-02,1,464,0.925512075424194,chair,oven,0,0464_sty_s02_0_oven_00_oven-0010-ILSVRC2012-val-00010367.png
subject-02,1,465,0.737454891204834,bear,bear,0,0465_sty_s02_0_bear_00_bear-0021-ILSVRC2012-val-00031253.png
subject-02,1,466,0.767011880874634,bottle,car,0,0466_sty_s02_0_car_00_car-0053-ILSVRC2012-val-00004685.png
subject-02,1,467,0.878883838653564,bird,bird,0,0467_sty_s02_0_bird_00_bird-2322-ILSVRC2012-val-00023492.png
subject-02,1,468,0.815126895904541,chair,bottle,0,0468_sty_s02_0_bottle_00_bottle-0022-ILSVRC2012-val-00022396.png
subject-02,1,469,1.30066204071045,boat,boat,0,0469_sty_s02_0_boat_00_boat-0244-ILSVRC2012-val-00040974.png
subject-02,1,470,0.868479013442993,oven,chair,0,0470_sty_s02_0_chair_00_chair-0195-ILSVRC2012-val-00045464.png
subject-02,1,471,0.674039840698242,bear,elephant,0,0471_sty_s02_0_elephant_00_elephant-0046-ILSVRC2012-val-00045103.png
subject-02,1,472,0.666176080703735,clock,bottle,0,0472_sty_s02_0_bottle_00_bottle-0055-ILSVRC2012-val-00003066.png
subject-02,1,473,0.733789920806885,bear,bear,0,0473_sty_s02_0_bear_00_bear-0160-ILSVRC2012-val-00013052.png
subject-02,1,474,0.723568201065063,car,truck,0,0474_sty_s02_0_truck_00_truck-0121-ILSVRC2012-val-00018768.png
subject-02,1,475,1.15732789039612,boat,car,0,0475_sty_s02_0_car_00_car-0050-ILSVRC2012-val-00048556.png
subject-02,1,476,1.17725419998169,bottle,elephant,0,0476_sty_s02_0_elephant_00_elephant-0032-ILSVRC2012-val-00030248.png
subject-02,1,477,0.891060829162598,dog,dog,0,0477_sty_s02_0_dog_00_dog-1538-ILSVRC2012-val-00038167.png
subject-02,1,478,0.896772861480713,car,truck,0,0478_sty_s02_0_truck_00_truck-0307-ILSVRC2012-val-00012703.png
subject-02,1,479,0.726841926574707,bird,bird,0,0479_sty_s02_0_bird_00_bird-0701-ILSVRC2012-val-00000075.png
subject-02,1,480,0.800574064254761,keyboard,keyboard,0,0480_sty_s02_0_keyboard_00_keyboard-0054-ILSVRC2012-val-00001100.png
subject-02,1,481,0.962685823440552,knife,cat,0,0481_sty_s02_0_cat_00_cat-0054-ILSVRC2012-val-00003295.png
subject-02,1,482,0.910485982894897,boat,chair,0,0482_sty_s02_0_chair_00_chair-0051-ILSVRC2012-val-00001616.png
subject-02,1,483,0.692262172698975,bicycle,bicycle,0,0483_sty_s02_0_bicycle_00_bicycle-0035-ILSVRC2012-val-00033559.png
subject-02,1,484,0.968071937561035,knife,oven,0,0484_sty_s02_0_oven_00_oven-0014-ILSVRC2012-val-00012082.png
subject-02,1,485,0.915881156921387,boat,knife,0,0485_sty_s02_0_knife_00_knife-0014-ILSVRC2012-val-00010886.png
subject-02,1,486,0.90792989730835,cat,cat,0,0486_sty_s02_0_cat_00_cat-0294-ILSVRC2012-val-00037633.png
subject-02,1,487,0.657515048980713,cat,cat,0,0487_sty_s02_0_cat_00_cat-0034-ILSVRC2012-val-00033837.png
subject-02,1,488,1.15549087524414,clock,oven,0,0488_sty_s02_0_oven_00_oven-0050-ILSVRC2012-val-00049391.png
subject-02,1,489,1.40751886367798,bear,oven,0,0489_sty_s02_0_oven_00_oven-0012-ILSVRC2012-val-00010756.png
subject-02,1,490,0.984878063201904,knife,chair,0,0490_sty_s02_0_chair_00_chair-0040-ILSVRC2012-val-00042512.png
subject-02,1,491,0.790773868560791,bottle,bottle,0,0491_sty_s02_0_bottle_00_bottle-0030-ILSVRC2012-val-00032921.png
subject-02,1,492,0.760589838027954,bottle,bird,0,0492_sty_s02_0_bird_00_bird-1172-ILSVRC2012-val-00022442.png
subject-02,1,493,0.806340932846069,boat,knife,0,0493_sty_s02_0_knife_00_knife-0020-ILSVRC2012-val-00015679.png
subject-02,1,494,0.636152982711792,cat,cat,0,0494_sty_s02_0_cat_00_cat-0108-ILSVRC2012-val-00002967.png
subject-02,1,495,0.630015134811401,car,car,0,0495_sty_s02_0_car_00_car-0029-ILSVRC2012-val-00027081.png
subject-02,1,496,1.17582607269287,clock,truck,0,0496_sty_s02_0_truck_00_truck-0134-ILSVRC2012-val-00035864.png
subject-02,1,497,0.927734136581421,keyboard,keyboard,0,0497_sty_s02_0_keyboard_00_keyboard-0025-ILSVRC2012-val-00026405.png
subject-02,1,498,0.8714599609375,cat,elephant,0,0498_sty_s02_0_elephant_00_elephant-0084-ILSVRC2012-val-00033832.png
subject-02,1,499,0.887487888336182,clock,oven,0,0499_sty_s02_0_oven_00_oven-0025-ILSVRC2012-val-00022348.png
subject-02,1,500,0.951693058013916,bicycle,bicycle,0,0500_sty_s02_0_bicycle_00_bicycle-0043-ILSVRC2012-val-00038415.png
subject-02,1,501,1.24691104888916,knife,boat,0,0501_sty_s02_0_boat_00_boat-0070-ILSVRC2012-val-00017026.png
subject-02,1,502,0.858760118484497,cat,knife,0,0502_sty_s02_0_knife_00_knife-0011-ILSVRC2012-val-00009367.png
subject-02,1,503,0.720610857009888,knife,knife,0,0503_sty_s02_0_knife_00_knife-0002-ILSVRC2012-val-00000582.png
subject-02,1,504,1.05841207504272,airplane,bear,0,0504_sty_s02_0_bear_00_bear-0139-ILSVRC2012-val-00041156.png
subject-02,1,505,0.820071935653687,boat,bottle,0,0505_sty_s02_0_bottle_00_bottle-0296-ILSVRC2012-val-00044906.png
subject-02,1,506,0.769932985305786,cat,cat,0,0506_sty_s02_0_cat_00_cat-0005-ILSVRC2012-val-00005358.png
subject-02,1,507,0.725705146789551,car,car,0,0507_sty_s02_0_car_00_car-0064-ILSVRC2012-val-00016337.png
subject-02,1,508,0.719578981399536,bear,bear,0,0508_sty_s02_0_bear_00_bear-0165-ILSVRC2012-val-00019901.png
subject-02,1,509,0.88144588470459,boat,oven,0,0509_sty_s02_0_oven_00_oven-0017-ILSVRC2012-val-00015514.png
subject-02,1,510,0.799262046813965,boat,boat,0,0510_sty_s02_0_boat_00_boat-0077-ILSVRC2012-val-00021948.png
subject-02,1,511,0.777024030685425,oven,oven,0,0511_sty_s02_0_oven_00_oven-0002-ILSVRC2012-val-00002517.png
subject-02,1,512,0.707208871841431,bottle,bottle,0,0512_sty_s02_0_bottle_00_bottle-0011-ILSVRC2012-val-00009225.png
subject-02,1,513,1.04878401756287,bottle,chair,0,0513_sty_s02_0_chair_00_chair-0024-ILSVRC2012-val-00021099.png
subject-02,1,514,1.14065003395081,dog,dog,0,0514_sty_s02_0_dog_00_dog-4009-ILSVRC2012-val-00007922.png
subject-02,1,515,0.68868613243103,clock,clock,0,0515_sty_s02_0_clock_00_clock-0119-ILSVRC2012-val-00018797.png
subject-02,1,516,0.755976915359497,chair,chair,0,0516_sty_s02_0_chair_00_chair-0033-ILSVRC2012-val-00031805.png
subject-02,1,517,0.683825969696045,boat,oven,0,0517_sty_s02_0_oven_00_oven-0046-ILSVRC2012-val-00046020.png
subject-02,1,518,1.20593500137329,oven,elephant,0,0518_sty_s02_0_elephant_00_elephant-0010-ILSVRC2012-val-00011002.png
subject-02,1,519,0.907474040985107,elephant,elephant,0,0519_sty_s02_0_elephant_00_elephant-0051-ILSVRC2012-val-00001177.png
subject-02,1,520,0.945372104644775,elephant,airplane,0,0520_sty_s02_0_airplane_00_airplane-0015-ILSVRC2012-val-00018616.png
subject-02,1,521,1.00910496711731,clock,knife,0,0521_sty_s02_0_knife_00_knife-0040-ILSVRC2012-val-00038348.png
subject-02,1,522,0.779200077056885,boat,chair,0,0522_sty_s02_0_chair_00_chair-0150-ILSVRC2012-val-00048622.png
subject-02,1,523,0.932805061340332,bicycle,bicycle,0,0523_sty_s02_0_bicycle_00_bicycle-0054-ILSVRC2012-val-00004147.png
subject-02,1,524,0.758798837661743,clock,clock,0,0524_sty_s02_0_clock_00_clock-0142-ILSVRC2012-val-00041461.png
subject-02,1,525,0.790759086608887,bicycle,bicycle,0,0525_sty_s02_0_bicycle_00_bicycle-0040-ILSVRC2012-val-00037433.png
subject-02,1,526,0.690594911575317,clock,clock,0,0526_sty_s02_0_clock_00_clock-0023-ILSVRC2012-val-00017973.png
subject-02,1,527,0.864129781723022,knife,knife,0,0527_sty_s02_0_knife_00_knife-0004-ILSVRC2012-val-00002212.png
subject-02,1,528,0.987765073776245,keyboard,keyboard,0,0528_sty_s02_0_keyboard_00_keyboard-0014-ILSVRC2012-val-00012432.png
subject-02,1,529,1.1315610408783,bottle,oven,0,0529_sty_s02_0_oven_00_oven-0003-ILSVRC2012-val-00002864.png
subject-02,1,530,0.78338098526001,boat,airplane,0,0530_sty_s02_0_airplane_00_airplane-0003-ILSVRC2012-val-00001506.png
subject-02,1,531,0.683280944824219,keyboard,keyboard,0,0531_sty_s02_0_keyboard_00_keyboard-0083-ILSVRC2012-val-00036727.png
subject-02,1,532,0.677490949630737,boat,bear,0,0532_sty_s02_0_bear_00_bear-0071-ILSVRC2012-val-00020050.png
subject-02,1,533,1.04100489616394,knife,knife,0,0533_sty_s02_0_knife_00_knife-0016-ILSVRC2012-val-00012885.png
subject-02,1,534,0.901071071624756,bottle,cat,0,0534_sty_s02_0_cat_00_cat-0096-ILSVRC2012-val-00045420.png
subject-02,1,535,0.952450037002563,chair,cat,0,0535_sty_s02_0_cat_00_cat-0165-ILSVRC2012-val-00017325.png
subject-02,1,536,0.800301074981689,car,truck,0,0536_sty_s02_0_truck_00_truck-0142-ILSVRC2012-val-00043939.png
subject-02,1,537,0.706132888793945,bear,elephant,0,0537_sty_s02_0_elephant_00_elephant-0091-ILSVRC2012-val-00038578.png
subject-02,1,538,0.836005926132202,airplane,knife,0,0538_sty_s02_0_knife_00_knife-0044-ILSVRC2012-val-00040170.png
subject-02,1,539,0.931900024414062,car,car,0,0539_sty_s02_0_car_00_car-0087-ILSVRC2012-val-00031558.png
subject-02,1,540,0.851567983627319,cat,bear,0,0540_sty_s02_0_bear_00_bear-0010-ILSVRC2012-val-00013390.png
subject-02,1,541,0.899245977401733,bear,bear,0,0541_sty_s02_0_bear_00_bear-0149-ILSVRC2012-val-00048105.png
subject-02,1,542,0.775280952453613,dog,dog,0,0542_sty_s02_0_dog_00_dog-3841-ILSVRC2012-val-00038789.png
subject-02,1,543,0.929373025894165,clock,oven,0,0543_sty_s02_0_oven_00_oven-0011-ILSVRC2012-val-00010717.png
subject-02,1,544,1.38891291618347,knife,elephant,0,0544_sty_s02_0_elephant_00_elephant-0004-ILSVRC2012-val-00004882.png
subject-02,1,545,0.964581966400146,chair,bottle,0,0545_sty_s02_0_bottle_00_bottle-0189-ILSVRC2012-val-00040070.png
subject-02,1,546,0.706315994262695,car,car,0,0546_sty_s02_0_car_00_car-0149-ILSVRC2012-val-00049427.png
subject-02,1,547,1.32635498046875,bear,truck,0,0547_sty_s02_0_truck_00_truck-0200-ILSVRC2012-val-00048418.png
subject-02,1,548,0.665995121002197,bear,bear,0,0548_sty_s02_0_bear_00_bear-0112-ILSVRC2012-val-00016340.png
subject-02,1,549,0.731924057006836,clock,clock,0,0549_sty_s02_0_clock_00_clock-0082-ILSVRC2012-val-00033627.png
subject-02,1,550,0.79171085357666,clock,bottle,0,0550_sty_s02_0_bottle_00_bottle-0059-ILSVRC2012-val-00008984.png
subject-02,1,551,1.2216169834137,elephant,knife,0,0551_sty_s02_0_knife_00_knife-0048-ILSVRC2012-val-00048029.png
subject-02,1,552,NaN,na,airplane,0,0552_sty_s02_0_airplane_00_airplane-0041-ILSVRC2012-val-00040136.png
subject-02,1,553,0.651417016983032,clock,clock,0,0553_sty_s02_0_clock_00_clock-0089-ILSVRC2012-val-00042911.png
subject-02,1,554,0.878824949264526,cat,bicycle,0,0554_sty_s02_0_bicycle_00_bicycle-0047-ILSVRC2012-val-00043435.png
subject-02,1,555,0.83086895942688,bottle,bottle,0,0555_sty_s02_0_bottle_00_bottle-0066-ILSVRC2012-val-00016336.png
subject-02,1,556,0.71869421005249,oven,bear,0,0556_sty_s02_0_bear_00_bear-0035-ILSVRC2012-val-00042274.png
subject-02,1,557,0.816498041152954,bottle,keyboard,0,0557_sty_s02_0_keyboard_00_keyboard-0088-ILSVRC2012-val-00041420.png
subject-02,1,558,0.704313039779663,bear,oven,0,0558_sty_s02_0_oven_00_oven-0013-ILSVRC2012-val-00011779.png
subject-02,1,559,0.678548097610474,bicycle,bicycle,0,0559_sty_s02_0_bicycle_00_bicycle-0015-ILSVRC2012-val-00015618.png
subject-02,1,560,0.918219089508057,boat,boat,0,0560_sty_s02_0_boat_00_boat-0042-ILSVRC2012-val-00039945.png
subject-02,1,561,0.953573942184448,truck,truck,0,0561_sty_s02_0_truck_00_truck-0120-ILSVRC2012-val-00018360.png
subject-02,1,562,0.967433214187622,knife,bird,0,0562_sty_s02_0_bird_00_bird-1093-ILSVRC2012-val-00044082.png
subject-02,1,563,0.833255052566528,bottle,keyboard,0,0563_sty_s02_0_keyboard_00_keyboard-0024-ILSVRC2012-val-00025409.png
subject-02,1,564,0.941153049468994,bear,dog,0,0564_sty_s02_0_dog_00_dog-2253-ILSVRC2012-val-00003731.png
subject-02,1,565,0.998842000961304,elephant,elephant,0,0565_sty_s02_0_elephant_00_elephant-0021-ILSVRC2012-val-00021618.png
subject-02,1,566,0.932888031005859,bottle,knife,0,0566_sty_s02_0_knife_00_knife-0023-ILSVRC2012-val-00020998.png
subject-02,1,567,0.820595026016235,truck,truck,0,0567_sty_s02_0_truck_00_truck-0192-ILSVRC2012-val-00042157.png
subject-02,1,568,0.792287826538086,bottle,keyboard,0,0568_sty_s02_0_keyboard_00_keyboard-0015-ILSVRC2012-val-00012808.png
subject-02,1,569,1.21240901947021,bottle,bottle,0,0569_sty_s02_0_bottle_00_bottle-0006-ILSVRC2012-val-00004888.png
subject-02,1,570,0.701908826828003,car,oven,0,0570_sty_s02_0_oven_00_oven-0020-ILSVRC2012-val-00019568.png
subject-02,1,571,0.635756015777588,cat,cat,0,0571_sty_s02_0_cat_00_cat-0238-ILSVRC2012-val-00033582.png
subject-02,1,572,0.805690050125122,bear,truck,0,0572_sty_s02_0_truck_00_truck-0019-ILSVRC2012-val-00019954.png
subject-02,1,573,0.779426097869873,bear,bear,0,0573_sty_s02_0_bear_00_bear-0143-ILSVRC2012-val-00044126.png
subject-02,1,574,0.895150899887085,bear,bear,0,0574_sty_s02_0_bear_00_bear-0163-ILSVRC2012-val-00016513.png
subject-02,1,575,0.735009908676147,boat,bottle,0,0575_sty_s02_0_bottle_00_bottle-0170-ILSVRC2012-val-00020948.png
subject-02,1,576,0.772938966751099,bicycle,bicycle,0,0576_sty_s02_0_bicycle_00_bicycle-0007-ILSVRC2012-val-00006395.png
subject-02,1,577,0.572579860687256,clock,clock,0,0577_sty_s02_0_clock_00_clock-0040-ILSVRC2012-val-00035392.png
subject-02,1,578,0.780287027359009,oven,airplane,0,0578_sty_s02_0_airplane_00_airplane-0040-ILSVRC2012-val-00039213.png
subject-02,1,579,0.912190914154053,bottle,keyboard,0,0579_sty_s02_0_keyboard_00_keyboard-0010-ILSVRC2012-val-00007754.png
subject-02,1,580,0.785945177078247,cat,elephant,0,0580_sty_s02_0_elephant_00_elephant-0045-ILSVRC2012-val-00043193.png
subject-02,1,581,0.759721994400024,keyboard,keyboard,0,0581_sty_s02_0_keyboard_00_keyboard-0085-ILSVRC2012-val-00037048.png
subject-02,1,582,0.757589101791382,chair,bird,0,0582_sty_s02_0_bird_00_bird-0228-ILSVRC2012-val-00017712.png
subject-02,1,583,0.911646842956543,knife,bear,0,0583_sty_s02_0_bear_00_bear-0184-ILSVRC2012-val-00038961.png
subject-02,1,584,1.16726517677307,bottle,dog,0,0584_sty_s02_0_dog_00_dog-3864-ILSVRC2012-val-00011457.png
subject-02,1,585,1.02348113059998,bear,cat,0,0585_sty_s02_0_cat_00_cat-0056-ILSVRC2012-val-00007676.png
subject-02,1,586,0.705363035202026,cat,cat,0,0586_sty_s02_0_cat_00_cat-0064-ILSVRC2012-val-00014860.png
subject-02,1,587,1.14310193061829,bird,clock,0,0587_sty_s02_0_clock_00_clock-0080-ILSVRC2012-val-00032946.png
subject-02,1,588,0.898477077484131,chair,keyboard,0,0588_sty_s02_0_keyboard_00_keyboard-0068-ILSVRC2012-val-00013404.png
subject-02,1,589,0.798463821411133,chair,bear,0,0589_sty_s02_0_bear_00_bear-0043-ILSVRC2012-val-00046763.png
subject-02,1,590,0.778131008148193,bear,elephant,0,0590_sty_s02_0_elephant_00_elephant-0074-ILSVRC2012-val-00022907.png
subject-02,1,591,1.11597490310669,bird,chair,0,0591_sty_s02_0_chair_00_chair-0123-ILSVRC2012-val-00020924.png
subject-02,1,592,0.871747970581055,bird,keyboard,0,0592_sty_s02_0_keyboard_00_keyboard-0080-ILSVRC2012-val-00028169.png
subject-02,1,593,0.94166088104248,keyboard,keyboard,0,0593_sty_s02_0_keyboard_00_keyboard-0090-ILSVRC2012-val-00044306.png
subject-02,1,594,0.783483982086182,bear,keyboard,0,0594_sty_s02_0_keyboard_00_keyboard-0092-ILSVRC2012-val-00044775.png
subject-02,1,595,1.12721419334412,bottle,airplane,0,0595_sty_s02_0_airplane_00_airplane-0028-ILSVRC2012-val-00028019.png
subject-02,1,596,0.867254018783569,bird,dog,0,0596_sty_s02_0_dog_00_dog-0397-ILSVRC2012-val-00044140.png
subject-02,1,597,0.670812845230103,bottle,bottle,0,0597_sty_s02_0_bottle_00_bottle-0205-ILSVRC2012-val-00003263.png
subject-02,1,598,1.09870386123657,chair,chair,0,0598_sty_s02_0_chair_00_chair-0118-ILSVRC2012-val-00018123.png
subject-02,1,599,0.75246000289917,bird,cat,0,0599_sty_s02_0_cat_00_cat-0169-ILSVRC2012-val-00020688.png
subject-02,1,600,0.61611795425415,car,car,0,0600_sty_s02_0_car_00_car-0069-ILSVRC2012-val-00019647.png
subject-02,1,601,1.03001809120178,bicycle,oven,0,0601_sty_s02_0_oven_00_oven-0048-ILSVRC2012-val-00048271.png
subject-02,1,602,0.877863883972168,bottle,bottle,0,0602_sty_s02_0_bottle_00_bottle-0347-ILSVRC2012-val-00048539.png
subject-02,1,603,0.887624025344849,car,knife,0,0603_sty_s02_0_knife_00_knife-0045-ILSVRC2012-val-00041660.png
subject-02,1,604,0.78394603729248,bird,bird,0,0604_sty_s02_0_bird_00_bird-1394-ILSVRC2012-val-00040051.png
subject-02,1,605,0.825740098953247,oven,airplane,0,0605_sty_s02_0_airplane_00_airplane-0010-ILSVRC2012-val-00012263.png
subject-02,1,606,0.831604957580566,oven,bottle,0,0606_sty_s02_0_bottle_00_bottle-0154-ILSVRC2012-val-00003340.png
subject-02,1,607,0.668913841247559,bottle,keyboard,0,0607_sty_s02_0_keyboard_00_keyboard-0059-ILSVRC2012-val-00007856.png
subject-02,1,608,0.835158824920654,bird,bird,0,0608_sty_s02_0_bird_00_bird-1188-ILSVRC2012-val-00040014.png
subject-02,1,609,1.07053685188293,bird,airplane,0,0609_sty_s02_0_airplane_00_airplane-0018-ILSVRC2012-val-00019677.png
subject-02,1,610,0.626278877258301,cat,cat,0,0610_sty_s02_0_cat_00_cat-0242-ILSVRC2012-val-00040192.png
subject-02,1,611,0.710142135620117,bird,cat,0,0611_sty_s02_0_cat_00_cat-0236-ILSVRC2012-val-00031185.png
subject-02,1,612,0.831889152526855,bear,bear,0,0612_sty_s02_0_bear_00_bear-0031-ILSVRC2012-val-00039777.png
subject-02,1,613,0.668386936187744,cat,cat,0,0613_sty_s02_0_cat_00_cat-0069-ILSVRC2012-val-00016399.png
subject-02,1,614,0.830054044723511,bear,elephant,0,0614_sty_s02_0_elephant_00_elephant-0068-ILSVRC2012-val-00016215.png
subject-02,1,615,0.765486001968384,boat,boat,0,0615_sty_s02_0_boat_00_boat-0153-ILSVRC2012-val-00002696.png
subject-02,1,616,0.821353197097778,boat,boat,0,0616_sty_s02_0_boat_00_boat-0165-ILSVRC2012-val-00014242.png
subject-02,1,617,1.06517291069031,knife,clock,0,0617_sty_s02_0_clock_00_clock-0112-ILSVRC2012-val-00014635.png
subject-02,1,618,0.724977970123291,boat,boat,0,0618_sty_s02_0_boat_00_boat-0005-ILSVRC2012-val-00004909.png
subject-02,1,619,0.820557117462158,truck,truck,0,0619_sty_s02_0_truck_00_truck-0065-ILSVRC2012-val-00013925.png
subject-02,1,620,1.18848705291748,bird,chair,0,0620_sty_s02_0_chair_00_chair-0006-ILSVRC2012-val-00004679.png
subject-02,1,621,0.658226013183594,boat,clock,0,0621_sty_s02_0_clock_00_clock-0054-ILSVRC2012-val-00008751.png
subject-02,1,622,0.690032958984375,car,car,0,0622_sty_s02_0_car_00_car-0093-ILSVRC2012-val-00038956.png
subject-02,1,623,1.00185608863831,bear,dog,0,0623_sty_s02_0_dog_00_dog-4999-ILSVRC2012-val-00049046.png
subject-02,1,624,1.1378870010376,keyboard,knife,0,0624_sty_s02_0_knife_00_knife-0026-ILSVRC2012-val-00024520.png
subject-02,1,625,0.817474126815796,bottle,truck,0,0625_sty_s02_0_truck_00_truck-0177-ILSVRC2012-val-00027892.png
subject-02,1,626,0.823724031448364,airplane,airplane,0,0626_sty_s02_0_airplane_00_airplane-0004-ILSVRC2012-val-00001952.png
subject-02,1,627,0.781116008758545,chair,airplane,0,0627_sty_s02_0_airplane_00_airplane-0042-ILSVRC2012-val-00040547.png
subject-02,1,628,0.663071155548096,clock,clock,0,0628_sty_s02_0_clock_00_clock-0018-ILSVRC2012-val-00015871.png
subject-02,1,629,0.935238122940063,bird,knife,0,0629_sty_s02_0_knife_00_knife-0006-ILSVRC2012-val-00004379.png
subject-02,1,630,0.696505069732666,bear,dog,0,0630_sty_s02_0_dog_00_dog-4954-ILSVRC2012-val-00002882.png
subject-02,1,631,0.788488864898682,bicycle,bicycle,0,0631_sty_s02_0_bicycle_00_bicycle-0059-ILSVRC2012-val-00011329.png
subject-02,1,632,0.766470193862915,bicycle,bicycle,0,0632_sty_s02_0_bicycle_00_bicycle-0085-ILSVRC2012-val-00037438.png
subject-02,1,633,0.702140092849731,cat,cat,0,0633_sty_s02_0_cat_00_cat-0264-ILSVRC2012-val-00010823.png
subject-02,1,634,0.873963117599487,airplane,airplane,0,0634_sty_s02_0_airplane_00_airplane-0023-ILSVRC2012-val-00023863.png
subject-02,1,635,0.809701919555664,bird,bird,0,0635_sty_s02_0_bird_00_bird-0122-ILSVRC2012-val-00019236.png
subject-02,1,636,0.899389982223511,chair,boat,0,0636_sty_s02_0_boat_00_boat-0079-ILSVRC2012-val-00025681.png
subject-02,1,637,0.975283145904541,cat,keyboard,0,0637_sty_s02_0_keyboard_00_keyboard-0047-ILSVRC2012-val-00046306.png
subject-02,1,638,1.16502594947815,dog,airplane,0,0638_sty_s02_0_airplane_00_airplane-0036-ILSVRC2012-val-00034342.png
subject-02,1,639,0.746831893920898,bottle,bird,0,0639_sty_s02_0_bird_00_bird-2221-ILSVRC2012-val-00014977.png
subject-02,1,640,0.642734050750732,bicycle,bicycle,0,0640_sty_s02_0_bicycle_00_bicycle-0020-ILSVRC2012-val-00022027.png
subject-02,1,641,0.622145891189575,boat,oven,0,0641_sty_s02_0_oven_00_oven-0035-ILSVRC2012-val-00034788.png
subject-02,1,642,1.10403800010681,bird,dog,0,0642_sty_s02_0_dog_00_dog-2391-ILSVRC2012-val-00039144.png
subject-02,1,643,1.11178493499756,bottle,bird,0,0643_sty_s02_0_bird_00_bird-0522-ILSVRC2012-val-00020730.png
subject-02,1,644,0.897789001464844,bottle,knife,0,0644_sty_s02_0_knife_00_knife-0013-ILSVRC2012-val-00010577.png
subject-02,1,645,0.591466903686523,clock,knife,0,0645_sty_s02_0_knife_00_knife-0027-ILSVRC2012-val-00025279.png
subject-02,1,646,0.721282005310059,car,car,0,0646_sty_s02_0_car_00_car-0004-ILSVRC2012-val-00006084.png
subject-02,1,647,0.821091890335083,cat,airplane,0,0647_sty_s02_0_airplane_00_airplane-0027-ILSVRC2012-val-00026859.png
subject-02,1,648,0.925117015838623,airplane,airplane,0,0648_sty_s02_0_airplane_00_airplane-0006-ILSVRC2012-val-00008292.png
subject-02,1,649,0.894838094711304,boat,bear,0,0649_sty_s02_0_bear_00_bear-0129-ILSVRC2012-val-00030485.png
subject-02,1,650,0.692662000656128,bear,dog,0,0650_sty_s02_0_dog_00_dog-1881-ILSVRC2012-val-00028322.png
subject-02,1,651,0.614315032958984,oven,dog,0,0651_sty_s02_0_dog_00_dog-2211-ILSVRC2012-val-00010402.png
subject-02,1,652,0.884055852890015,bottle,boat,0,0652_sty_s02_0_boat_00_boat-0172-ILSVRC2012-val-00020894.png
subject-02,1,653,0.772035121917725,airplane,car,0,0653_sty_s02_0_car_00_car-0052-ILSVRC2012-val-00004387.png
subject-02,1,654,0.857862949371338,chair,elephant,0,0654_sty_s02_0_elephant_00_elephant-0098-ILSVRC2012-val-00047540.png
subject-02,1,655,0.935629844665527,boat,clock,0,0655_sty_s02_0_clock_00_clock-0062-ILSVRC2012-val-00014987.png
subject-02,1,656,0.815484046936035,boat,dog,0,0656_sty_s02_0_dog_00_dog-3771-ILSVRC2012-val-00020678.png
subject-02,1,657,0.85317587852478,oven,bottle,0,0657_sty_s02_0_bottle_00_bottle-0047-ILSVRC2012-val-00044787.png
subject-02,1,658,1.25714612007141,car,car,0,0658_sty_s02_0_car_00_car-0024-ILSVRC2012-val-00023221.png
subject-02,1,659,0.964948177337646,dog,clock,0,0659_sty_s02_0_clock_00_clock-0127-ILSVRC2012-val-00030330.png
subject-02,1,660,1.50009107589722,bottle,bottle,0,0660_sty_s02_0_bottle_00_bottle-0294-ILSVRC2012-val-00044222.png
subject-02,1,661,1.15257215499878,car,bicycle,0,0661_sty_s02_0_bicycle_00_bicycle-0044-ILSVRC2012-val-00040027.png
subject-02,1,662,0.77889609336853,airplane,airplane,0,0662_sty_s02_0_airplane_00_airplane-0049-ILSVRC2012-val-00048111.png
subject-02,1,663,0.760203838348389,airplane,airplane,0,0663_sty_s02_0_airplane_00_airplane-0038-ILSVRC2012-val-00036394.png
subject-02,1,664,1.14806914329529,bottle,oven,0,0664_sty_s02_0_oven_00_oven-0016-ILSVRC2012-val-00014839.png
subject-02,1,665,0.949622869491577,bird,bird,0,0665_sty_s02_0_bird_00_bird-0238-ILSVRC2012-val-00030657.png
subject-02,1,666,1.27943396568298,knife,airplane,0,0666_sty_s02_0_airplane_00_airplane-0035-ILSVRC2012-val-00033920.png
subject-02,1,667,0.697459936141968,car,car,0,0667_sty_s02_0_car_00_car-0021-ILSVRC2012-val-00019695.png
subject-02,1,668,0.911017894744873,dog,dog,0,0668_sty_s02_0_dog_00_dog-0220-ILSVRC2012-val-00017568.png
subject-02,1,669,0.947020053863525,bottle,bottle,0,0669_sty_s02_0_bottle_00_bottle-0108-ILSVRC2012-val-00008437.png
subject-02,1,670,0.592846155166626,clock,clock,0,0670_sty_s02_0_clock_00_clock-0034-ILSVRC2012-val-00026380.png
subject-02,1,671,0.792624950408936,bottle,keyboard,0,0671_sty_s02_0_keyboard_00_keyboard-0061-ILSVRC2012-val-00008530.png
subject-02,1,672,0.766416788101196,cat,bird,0,0672_sty_s02_0_bird_00_bird-0513-ILSVRC2012-val-00013223.png
subject-02,1,673,0.736239194869995,bicycle,bicycle,0,0673_sty_s02_0_bicycle_00_bicycle-0014-ILSVRC2012-val-00015483.png
subject-02,1,674,0.767969846725464,bicycle,airplane,0,0674_sty_s02_0_airplane_00_airplane-0046-ILSVRC2012-val-00046862.png
subject-02,1,675,1.17975997924805,knife,bear,0,0675_sty_s02_0_bear_00_bear-0106-ILSVRC2012-val-00007578.png
subject-02,1,676,1.00954699516296,oven,bottle,0,0676_sty_s02_0_bottle_00_bottle-0005-ILSVRC2012-val-00004521.png
subject-02,1,677,1.1233868598938,chair,dog,0,0677_sty_s02_0_dog_00_dog-2195-ILSVRC2012-val-00046002.png
subject-02,1,678,0.697693824768066,clock,clock,0,0678_sty_s02_0_clock_00_clock-0001-ILSVRC2012-val-00001011.png
subject-02,1,679,1.0611879825592,cat,bear,0,0679_sty_s02_0_bear_00_bear-0085-ILSVRC2012-val-00035292.png
subject-02,1,680,0.956912040710449,bottle,cat,0,0680_sty_s02_0_cat_00_cat-0113-ILSVRC2012-val-00007808.png
subject-02,1,681,1.23285102844238,knife,chair,0,0681_sty_s02_0_chair_00_chair-0050-ILSVRC2012-val-00049050.png
subject-02,1,682,0.800628185272217,car,car,0,0682_sty_s02_0_car_00_car-0134-ILSVRC2012-val-00032944.png
subject-02,1,683,0.706459045410156,clock,clock,0,0683_sty_s02_0_clock_00_clock-0130-ILSVRC2012-val-00032136.png
subject-02,1,684,0.75214409828186,car,car,0,0684_sty_s02_0_car_00_car-0019-ILSVRC2012-val-00018335.png
subject-02,1,685,1.09797120094299,dog,boat,0,0685_sty_s02_0_boat_00_boat-0026-ILSVRC2012-val-00026341.png
subject-02,1,686,0.683689117431641,boat,knife,0,0686_sty_s02_0_knife_00_knife-0036-ILSVRC2012-val-00034599.png
subject-02,1,687,0.935570001602173,elephant,oven,0,0687_sty_s02_0_oven_00_oven-0022-ILSVRC2012-val-00020361.png
subject-02,1,688,1.04359817504883,keyboard,chair,0,0688_sty_s02_0_chair_00_chair-0183-ILSVRC2012-val-00035142.png
subject-02,1,689,0.715378046035767,oven,oven,0,0689_sty_s02_0_oven_00_oven-0023-ILSVRC2012-val-00020809.png
subject-02,1,690,0.823133945465088,cat,dog,0,0690_sty_s02_0_dog_00_dog-1191-ILSVRC2012-val-00037989.png
subject-02,1,691,0.72280216217041,bird,car,0,0691_sty_s02_0_car_00_car-0111-ILSVRC2012-val-00007125.png
subject-02,1,692,0.734700202941895,car,car,0,0692_sty_s02_0_car_00_car-0145-ILSVRC2012-val-00041626.png
subject-02,1,693,0.782521963119507,boat,keyboard,0,0693_sty_s02_0_keyboard_00_keyboard-0013-ILSVRC2012-val-00012334.png
subject-02,1,694,0.680481910705566,clock,boat,0,0694_sty_s02_0_boat_00_boat-0053-ILSVRC2012-val-00005918.png
subject-02,1,695,0.82010293006897,keyboard,keyboard,0,0695_sty_s02_0_keyboard_00_keyboard-0087-ILSVRC2012-val-00039947.png
subject-02,1,696,1.03601002693176,keyboard,knife,0,0696_sty_s02_0_knife_00_knife-0017-ILSVRC2012-val-00014528.png
subject-02,1,697,0.717741966247559,clock,knife,0,0697_sty_s02_0_knife_00_knife-0019-ILSVRC2012-val-00014960.png
subject-02,1,698,0.87739896774292,cat,oven,0,0698_sty_s02_0_oven_00_oven-0036-ILSVRC2012-val-00035817.png
subject-02,1,699,0.623304128646851,car,truck,0,0699_sty_s02_0_truck_00_truck-0136-ILSVRC2012-val-00037829.png
subject-02,1,700,0.839089155197144,bear,bear,0,0700_sty_s02_0_bear_00_bear-0180-ILSVRC2012-val-00034637.png
subject-02,1,701,0.933295011520386,dog,knife,0,0701_sty_s02_0_knife_00_knife-0007-ILSVRC2012-val-00004815.png
subject-02,1,702,1.05298781394958,dog,dog,0,0702_sty_s02_0_dog_00_dog-4933-ILSVRC2012-val-00033357.png
subject-02,1,703,1.01471781730652,elephant,keyboard,0,0703_sty_s02_0_keyboard_00_keyboard-0022-ILSVRC2012-val-00021913.png
subject-02,1,704,0.99078106880188,chair,bottle,0,0704_sty_s02_0_bottle_00_bottle-0085-ILSVRC2012-val-00036422.png
subject-02,1,705,0.954124927520752,bottle,keyboard,0,0705_sty_s02_0_keyboard_00_keyboard-0084-ILSVRC2012-val-00036957.png
subject-02,1,706,1.12985706329346,truck,keyboard,0,0706_sty_s02_0_keyboard_00_keyboard-0016-ILSVRC2012-val-00014436.png
subject-02,1,707,0.99175500869751,dog,dog,0,0707_sty_s02_0_dog_00_dog-4865-ILSVRC2012-val-00013670.png
subject-02,1,708,1.04352998733521,dog,dog,0,0708_sty_s02_0_dog_00_dog-5044-ILSVRC2012-val-00043270.png
subject-02,1,709,0.959887981414795,chair,truck,0,0709_sty_s02_0_truck_00_truck-0034-ILSVRC2012-val-00034340.png
subject-02,1,710,0.785213947296143,car,bottle,0,0710_sty_s02_0_bottle_00_bottle-0037-ILSVRC2012-val-00036359.png
subject-02,1,711,1.50000095367432,bicycle,dog,0,0711_sty_s02_0_dog_00_dog-2121-ILSVRC2012-val-00015705.png
subject-02,1,712,0.852763891220093,clock,chair,0,0712_sty_s02_0_chair_00_chair-0039-ILSVRC2012-val-00041772.png
subject-02,1,713,0.904657125473022,knife,bicycle,0,0713_sty_s02_0_bicycle_00_bicycle-0062-ILSVRC2012-val-00015867.png
subject-02,1,714,0.738431930541992,car,airplane,0,0714_sty_s02_0_airplane_00_airplane-0048-ILSVRC2012-val-00047829.png
subject-02,1,715,0.958363056182861,truck,cat,0,0715_sty_s02_0_cat_00_cat-0012-ILSVRC2012-val-00012377.png
subject-02,1,716,1.15655183792114,bear,clock,0,0716_sty_s02_0_clock_00_clock-0143-ILSVRC2012-val-00041547.png
subject-02,1,717,0.667877912521362,dog,dog,0,0717_sty_s02_0_dog_00_dog-2368-ILSVRC2012-val-00011895.png
subject-02,1,718,1.46362090110779,bottle,oven,0,0718_sty_s02_0_oven_00_oven-0033-ILSVRC2012-val-00031595.png
subject-02,1,719,0.875519037246704,oven,boat,0,0719_sty_s02_0_boat_00_boat-0218-ILSVRC2012-val-00015121.png
subject-02,1,720,0.791648864746094,bear,bear,0,0720_sty_s02_0_bear_00_bear-0062-ILSVRC2012-val-00014029.png
subject-02,1,721,1.17711615562439,boat,boat,0,0721_sty_s02_0_boat_00_boat-0103-ILSVRC2012-val-00002308.png
subject-02,1,722,0.729094982147217,cat,dog,0,0722_sty_s02_0_dog_00_dog-4689-ILSVRC2012-val-00034291.png
subject-02,1,723,1.23489999771118,chair,elephant,0,0723_sty_s02_0_elephant_00_elephant-0062-ILSVRC2012-val-00010078.png
subject-02,1,724,0.770552158355713,car,car,0,0724_sty_s02_0_car_00_car-0117-ILSVRC2012-val-00010983.png
subject-02,1,725,0.886265993118286,bird,cat,0,0725_sty_s02_0_cat_00_cat-0110-ILSVRC2012-val-00004411.png
subject-02,1,726,0.75213098526001,bottle,knife,0,0726_sty_s02_0_knife_00_knife-0047-ILSVRC2012-val-00046361.png
subject-02,1,727,0.686429023742676,cat,cat,0,0727_sty_s02_0_cat_00_cat-0147-ILSVRC2012-val-00041347.png
subject-02,1,728,0.648256063461304,cat,bottle,0,0728_sty_s02_0_bottle_00_bottle-0254-ILSVRC2012-val-00005933.png
subject-02,1,729,0.907654047012329,elephant,elephant,0,0729_sty_s02_0_elephant_00_elephant-0047-ILSVRC2012-val-00048547.png
subject-02,1,730,0.90178394317627,knife,knife,0,0730_sty_s02_0_knife_00_knife-0022-ILSVRC2012-val-00019358.png
subject-02,1,731,0.791325092315674,elephant,elephant,0,0731_sty_s02_0_elephant_00_elephant-0088-ILSVRC2012-val-00036121.png
subject-02,1,732,0.947165966033936,elephant,knife,0,0732_sty_s02_0_knife_00_knife-0037-ILSVRC2012-val-00034765.png
subject-02,1,733,0.658943891525269,cat,oven,0,0733_sty_s02_0_oven_00_oven-0032-ILSVRC2012-val-00029341.png
subject-02,1,734,0.866575002670288,oven,keyboard,0,0734_sty_s02_0_keyboard_00_keyboard-0041-ILSVRC2012-val-00041349.png
subject-02,1,735,0.86061692237854,boat,bottle,0,0735_sty_s02_0_bottle_00_bottle-0220-ILSVRC2012-val-00014146.png
subject-02,1,736,0.554891109466553,clock,dog,0,0736_sty_s02_0_dog_00_dog-3412-ILSVRC2012-val-00014775.png
subject-02,1,737,0.558198213577271,cat,cat,0,0737_sty_s02_0_cat_00_cat-0186-ILSVRC2012-val-00039580.png
subject-02,1,738,0.805991888046265,bicycle,elephant,0,0738_sty_s02_0_elephant_00_elephant-0090-ILSVRC2012-val-00037659.png
subject-02,1,739,0.959756851196289,bird,bear,0,0739_sty_s02_0_bear_00_bear-0164-ILSVRC2012-val-00018303.png
subject-02,1,740,0.725733995437622,bottle,boat,0,0740_sty_s02_0_boat_00_boat-0215-ILSVRC2012-val-00013403.png
subject-02,1,741,0.543406009674072,boat,airplane,0,0741_sty_s02_0_airplane_00_airplane-0031-ILSVRC2012-val-00030531.png
subject-02,1,742,1.27509903907776,bear,bear,0,0742_sty_s02_0_bear_00_bear-0167-ILSVRC2012-val-00022112.png
subject-02,1,743,0.778908967971802,bottle,dog,0,0743_sty_s02_0_dog_00_dog-2539-ILSVRC2012-val-00041157.png
subject-02,1,744,0.628757953643799,airplane,airplane,0,0744_sty_s02_0_airplane_00_airplane-0050-ILSVRC2012-val-00049097.png
subject-02,1,745,1.02863717079163,dog,oven,0,0745_sty_s02_0_oven_00_oven-0030-ILSVRC2012-val-00028507.png
subject-02,1,746,0.902328968048096,dog,chair,0,0746_sty_s02_0_chair_00_chair-0188-ILSVRC2012-val-00041720.png
subject-02,1,747,0.666343927383423,chair,chair,0,0747_sty_s02_0_chair_00_chair-0133-ILSVRC2012-val-00033406.png
subject-02,1,748,0.931946992874146,car,clock,0,0748_sty_s02_0_clock_00_clock-0086-ILSVRC2012-val-00041483.png
subject-02,1,749,0.707939863204956,car,airplane,0,0749_sty_s02_0_airplane_00_airplane-0001-ILSVRC2012-val-00000631.png
subject-02,1,750,0.731874942779541,boat,boat,0,0750_sty_s02_0_boat_00_boat-0107-ILSVRC2012-val-00004492.png
subject-02,1,751,0.67561411857605,keyboard,knife,0,0751_sty_s02_0_knife_00_knife-0039-ILSVRC2012-val-00038320.png
subject-02,1,752,0.92336106300354,clock,knife,0,0752_sty_s02_0_knife_00_knife-0031-ILSVRC2012-val-00027474.png
subject-02,1,753,0.783139944076538,elephant,elephant,0,0753_sty_s02_0_elephant_00_elephant-0006-ILSVRC2012-val-00005704.png
subject-02,1,754,0.891260147094727,dog,dog,0,0754_sty_s02_0_dog_00_dog-3044-ILSVRC2012-val-00034485.png
subject-02,1,755,0.684854984283447,cat,clock,0,0755_sty_s02_0_clock_00_clock-0063-ILSVRC2012-val-00015628.png
subject-02,1,756,0.688595056533813,boat,clock,0,0756_sty_s02_0_clock_00_clock-0038-ILSVRC2012-val-00032489.png
subject-02,1,757,0.592246770858765,oven,truck,0,0757_sty_s02_0_truck_00_truck-0022-ILSVRC2012-val-00023423.png
subject-02,1,758,0.554553031921387,cat,cat,0,0758_sty_s02_0_cat_00_cat-0073-ILSVRC2012-val-00020140.png
subject-02,1,759,0.919993162155151,dog,truck,0,0759_sty_s02_0_truck_00_truck-0215-ILSVRC2012-val-00017360.png
subject-02,1,760,0.721923828125,boat,chair,0,0760_sty_s02_0_chair_00_chair-0141-ILSVRC2012-val-00040076.png
subject-02,1,761,0.587709903717041,cat,cat,0,0761_sty_s02_0_cat_00_cat-0189-ILSVRC2012-val-00040854.png
subject-02,1,762,0.961364030838013,chair,car,0,0762_sty_s02_0_car_00_car-0083-ILSVRC2012-val-00027508.png
subject-02,1,763,0.605182886123657,cat,knife,0,0763_sty_s02_0_knife_00_knife-0012-ILSVRC2012-val-00009369.png
subject-02,1,764,1.12314891815186,elephant,oven,0,0764_sty_s02_0_oven_00_oven-0028-ILSVRC2012-val-00025917.png
subject-02,1,765,0.885212898254395,dog,dog,0,0765_sty_s02_0_dog_00_dog-3917-ILSVRC2012-val-00016908.png
subject-02,1,766,1.50002288818359,knife,keyboard,0,0766_sty_s02_0_keyboard_00_keyboard-0062-ILSVRC2012-val-00008632.png
subject-02,1,767,0.618936061859131,bird,bird,0,0767_sty_s02_0_bird_00_bird-1326-ILSVRC2012-val-00025658.png
subject-02,1,768,0.692286968231201,cat,keyboard,0,0768_sty_s02_0_keyboard_00_keyboard-0077-ILSVRC2012-val-00025109.png
subject-02,1,769,0.73022198677063,truck,truck,0,0769_sty_s02_0_truck_00_truck-0094-ILSVRC2012-val-00042802.png
subject-02,1,770,0.893852949142456,bear,bottle,0,0770_sty_s02_0_bottle_00_bottle-0218-ILSVRC2012-val-00013667.png
subject-02,1,771,0.621757030487061,clock,clock,0,0771_sty_s02_0_clock_00_clock-0020-ILSVRC2012-val-00016889.png
subject-02,1,772,0.803572177886963,elephant,elephant,0,0772_sty_s02_0_elephant_00_elephant-0030-ILSVRC2012-val-00028996.png
subject-02,1,773,1.06553602218628,elephant,bear,0,0773_sty_s02_0_bear_00_bear-0073-ILSVRC2012-val-00024289.png
subject-02,1,774,0.875209093093872,oven,boat,0,0774_sty_s02_0_boat_00_boat-0066-ILSVRC2012-val-00013961.png
subject-02,1,775,0.668961048126221,chair,airplane,0,0775_sty_s02_0_airplane_00_airplane-0009-ILSVRC2012-val-00011168.png
subject-02,1,776,0.770738124847412,oven,knife,0,0776_sty_s02_0_knife_00_knife-0032-ILSVRC2012-val-00027812.png
subject-02,1,777,0.924735069274902,bottle,airplane,0,0777_sty_s02_0_airplane_00_airplane-0030-ILSVRC2012-val-00030411.png
subject-02,1,778,0.538634061813354,clock,clock,0,0778_sty_s02_0_clock_00_clock-0010-ILSVRC2012-val-00006858.png
subject-02,1,779,0.672167062759399,oven,airplane,0,0779_sty_s02_0_airplane_00_airplane-0012-ILSVRC2012-val-00015498.png
subject-02,1,780,0.872164964675903,elephant,bear,0,0780_sty_s02_0_bear_00_bear-0188-ILSVRC2012-val-00043016.png
subject-02,1,781,0.925743103027344,truck,car,0,0781_sty_s02_0_car_00_car-0001-ILSVRC2012-val-00000175.png
subject-02,1,782,0.829715967178345,car,truck,0,0782_sty_s02_0_truck_00_truck-0219-ILSVRC2012-val-00021802.png
subject-02,1,783,0.74153208732605,bottle,oven,0,0783_sty_s02_0_oven_00_oven-0043-ILSVRC2012-val-00041628.png
subject-02,1,784,0.7413489818573,boat,boat,0,0784_sty_s02_0_boat_00_boat-0086-ILSVRC2012-val-00039559.png
subject-02,1,785,0.905058860778809,cat,bird,0,0785_sty_s02_0_bird_00_bird-1274-ILSVRC2012-val-00025449.png
subject-02,1,786,0.94096302986145,elephant,elephant,0,0786_sty_s02_0_elephant_00_elephant-0059-ILSVRC2012-val-00005109.png
subject-02,1,787,0.986749172210693,knife,bottle,0,0787_sty_s02_0_bottle_00_bottle-0195-ILSVRC2012-val-00045644.png
subject-02,1,788,0.9686598777771,cat,bear,0,0788_sty_s02_0_bear_00_bear-0191-ILSVRC2012-val-00044349.png
subject-02,1,789,0.676445960998535,keyboard,keyboard,0,0789_sty_s02_0_keyboard_00_keyboard-0023-ILSVRC2012-val-00023014.png
subject-02,1,790,0.864216804504395,elephant,elephant,0,0790_sty_s02_0_elephant_00_elephant-0058-ILSVRC2012-val-00004990.png
subject-02,1,791,1.21399998664856,dog,bear,0,0791_sty_s02_0_bear_00_bear-0091-ILSVRC2012-val-00041813.png
subject-02,1,792,0.922060966491699,boat,bird,0,0792_sty_s02_0_bird_00_bird-0624-ILSVRC2012-val-00024514.png
subject-02,1,793,0.771552801132202,elephant,bear,0,0793_sty_s02_0_bear_00_bear-0009-ILSVRC2012-val-00011967.png
subject-02,1,794,0.921889066696167,elephant,bear,0,0794_sty_s02_0_bear_00_bear-0154-ILSVRC2012-val-00003499.png
subject-02,1,795,0.653196096420288,cat,chair,0,0795_sty_s02_0_chair_00_chair-0199-ILSVRC2012-val-00048901.png
subject-02,1,796,0.789498090744019,bear,chair,0,0796_sty_s02_0_chair_00_chair-0155-ILSVRC2012-val-00005160.png
subject-02,1,797,0.914921998977661,car,car,0,0797_sty_s02_0_car_00_car-0106-ILSVRC2012-val-00004868.png
subject-02,1,798,0.700640916824341,car,truck,0,0798_sty_s02_0_truck_00_truck-0213-ILSVRC2012-val-00016098.png
subject-02,1,799,1.50010800361633,bird,truck,0,0799_sty_s02_0_truck_00_truck-0084-ILSVRC2012-val-00034001.png
subject-02,1,800,0.728327989578247,cat,airplane,0,0800_sty_s02_0_airplane_00_airplane-0020-ILSVRC2012-val-00022975.png
