subj,session,trial,rt,object_response,category,condition,imagename
subject-05,1,1,1.04852104187012,bear,bear,0,0001_sty_s05_0_bear_00_bear-0167-ILSVRC2012-val-00022112.png
subject-05,1,2,1.06231713294983,bear,chair,0,0002_sty_s05_0_chair_00_chair-0196-ILSVRC2012-val-00045844.png
subject-05,1,3,1.03820204734802,boat,car,0,0003_sty_s05_0_car_00_car-0019-ILSVRC2012-val-00018335.png
subject-05,1,4,1.48792600631714,chair,chair,0,0004_sty_s05_0_chair_00_chair-0189-ILSVRC2012-val-00041883.png
subject-05,1,5,0.867724895477295,cat,cat,0,0005_sty_s05_0_cat_00_cat-0092-ILSVRC2012-val-00039621.png
subject-05,1,6,0.735372066497803,oven,oven,0,0006_sty_s05_0_oven_00_oven-0024-ILSVRC2012-val-00021187.png
subject-05,1,7,0.951592922210693,airplane,airplane,0,0007_sty_s05_0_airplane_00_airplane-0038-ILSVRC2012-val-00036394.png
subject-05,1,8,1.01316094398499,car,truck,0,0008_sty_s05_0_truck_00_truck-0215-ILSVRC2012-val-00017360.png
subject-05,1,9,0.852951765060425,boat,boat,0,0009_sty_s05_0_boat_00_boat-0107-ILSVRC2012-val-00004492.png
subject-05,1,10,0.882734060287476,cat,cat,0,0010_sty_s05_0_cat_00_cat-0012-ILSVRC2012-val-00012377.png
subject-05,1,11,0.988512992858887,elephant,bear,0,0011_sty_s05_0_bear_00_bear-0094-ILSVRC2012-val-00043648.png
subject-05,1,12,1.09021401405334,bear,chair,0,0012_sty_s05_0_chair_00_chair-0047-ILSVRC2012-val-00045407.png
subject-05,1,13,0.946133136749268,cat,oven,0,0013_sty_s05_0_oven_00_oven-0004-ILSVRC2012-val-00003075.png
subject-05,1,14,0.842087030410767,cat,cat,0,0014_sty_s05_0_cat_00_cat-0064-ILSVRC2012-val-00014860.png
subject-05,1,15,1.15967798233032,dog,bear,0,0015_sty_s05_0_bear_00_bear-0106-ILSVRC2012-val-00007578.png
subject-05,1,16,1.39952611923218,chair,truck,0,0016_sty_s05_0_truck_00_truck-0185-ILSVRC2012-val-00033804.png
subject-05,1,17,1.1773898601532,car,oven,0,0017_sty_s05_0_oven_00_oven-0045-ILSVRC2012-val-00045813.png
subject-05,1,18,0.895395994186401,cat,cat,0,0018_sty_s05_0_cat_00_cat-0108-ILSVRC2012-val-00002967.png
subject-05,1,19,1.14336705207825,knife,oven,0,0019_sty_s05_0_oven_00_oven-0016-ILSVRC2012-val-00014839.png
subject-05,1,20,1.50004696846008,cat,bottle,0,0020_sty_s05_0_bottle_00_bottle-0154-ILSVRC2012-val-00003340.png
subject-05,1,21,1.05294489860535,bird,knife,0,0021_sty_s05_0_knife_00_knife-0005-ILSVRC2012-val-00003462.png
subject-05,1,22,0.80028510093689,cat,oven,0,0022_sty_s05_0_oven_00_oven-0025-ILSVRC2012-val-00022348.png
subject-05,1,23,0.966211080551147,car,truck,0,0023_sty_s05_0_truck_00_truck-0047-ILSVRC2012-val-00047588.png
subject-05,1,24,1.41206479072571,cat,knife,0,0024_sty_s05_0_knife_00_knife-0014-ILSVRC2012-val-00010886.png
subject-05,1,25,0.939773082733154,bicycle,bicycle,0,0025_sty_s05_0_bicycle_00_bicycle-0040-ILSVRC2012-val-00037433.png
subject-05,1,26,1.10952591896057,bicycle,airplane,0,0026_sty_s05_0_airplane_00_airplane-0028-ILSVRC2012-val-00028019.png
subject-05,1,27,1.00145792961121,bird,bird,0,0027_sty_s05_0_bird_00_bird-1551-ILSVRC2012-val-00000690.png
subject-05,1,28,0.89726710319519,car,car,0,0028_sty_s05_0_car_00_car-0139-ILSVRC2012-val-00037952.png
subject-05,1,29,0.817065000534058,keyboard,keyboard,0,0029_sty_s05_0_keyboard_00_keyboard-0083-ILSVRC2012-val-00036727.png
subject-05,1,30,0.878904104232788,bird,bird,0,0030_sty_s05_0_bird_00_bird-2144-ILSVRC2012-val-00044377.png
subject-05,1,31,0.844884872436523,cat,knife,0,0031_sty_s05_0_knife_00_knife-0044-ILSVRC2012-val-00040170.png
subject-05,1,32,0.938637018203735,car,car,0,0032_sty_s05_0_car_00_car-0069-ILSVRC2012-val-00019647.png
subject-05,1,33,0.872727155685425,bear,bear,0,0033_sty_s05_0_bear_00_bear-0132-ILSVRC2012-val-00036763.png
subject-05,1,34,1.06023001670837,clock,clock,0,0034_sty_s05_0_clock_00_clock-0028-ILSVRC2012-val-00021179.png
subject-05,1,35,0.932291030883789,clock,oven,0,0035_sty_s05_0_oven_00_oven-0006-ILSVRC2012-val-00004891.png
subject-05,1,36,0.983867883682251,truck,bottle,0,0036_sty_s05_0_bottle_00_bottle-0059-ILSVRC2012-val-00008984.png
subject-05,1,37,1.27000904083252,boat,boat,0,0037_sty_s05_0_boat_00_boat-0137-ILSVRC2012-val-00035374.png
subject-05,1,38,0.79193902015686,cat,bear,0,0038_sty_s05_0_bear_00_bear-0113-ILSVRC2012-val-00016459.png
subject-05,1,39,0.619371891021729,boat,boat,0,0039_sty_s05_0_boat_00_boat-0129-ILSVRC2012-val-00027504.png
subject-05,1,40,1.07906699180603,bear,bear,0,0040_sty_s05_0_bear_00_bear-0116-ILSVRC2012-val-00020332.png
subject-05,1,41,1.24891495704651,oven,truck,0,0041_sty_s05_0_truck_00_truck-0116-ILSVRC2012-val-00016053.png
subject-05,1,42,0.892557144165039,dog,dog,0,0042_sty_s05_0_dog_00_dog-3841-ILSVRC2012-val-00038789.png
subject-05,1,43,0.894412040710449,cat,airplane,0,0043_sty_s05_0_airplane_00_airplane-0010-ILSVRC2012-val-00012263.png
subject-05,1,44,0.758266925811768,cat,cat,0,0044_sty_s05_0_cat_00_cat-0137-ILSVRC2012-val-00027906.png
subject-05,1,45,0.794376134872437,bear,bear,0,0045_sty_s05_0_bear_00_bear-0195-ILSVRC2012-val-00045672.png
subject-05,1,46,0.775819063186646,cat,knife,0,0046_sty_s05_0_knife_00_knife-0028-ILSVRC2012-val-00026439.png
subject-05,1,47,1.10972690582275,car,car,0,0047_sty_s05_0_car_00_car-0093-ILSVRC2012-val-00038956.png
subject-05,1,48,0.975843906402588,bear,airplane,0,0048_sty_s05_0_airplane_00_airplane-0030-ILSVRC2012-val-00030411.png
subject-05,1,49,0.717424154281616,keyboard,keyboard,0,0049_sty_s05_0_keyboard_00_keyboard-0058-ILSVRC2012-val-00007790.png
subject-05,1,50,0.911167144775391,knife,knife,0,0050_sty_s05_0_knife_00_knife-0049-ILSVRC2012-val-00048820.png
subject-05,1,51,0.917335987091064,clock,clock,0,0051_sty_s05_0_clock_00_clock-0091-ILSVRC2012-val-00044029.png
subject-05,1,52,0.735260009765625,bicycle,bicycle,0,0052_sty_s05_0_bicycle_00_bicycle-0056-ILSVRC2012-val-00005330.png
subject-05,1,53,0.960513830184937,clock,bird,0,0053_sty_s05_0_bird_00_bird-2011-ILSVRC2012-val-00008842.png
subject-05,1,54,1.1326208114624,knife,knife,0,0054_sty_s05_0_knife_00_knife-0016-ILSVRC2012-val-00012885.png
subject-05,1,55,0.958389043807983,cat,cat,0,0055_sty_s05_0_cat_00_cat-0133-ILSVRC2012-val-00023898.png
subject-05,1,56,1.24608707427979,knife,knife,0,0056_sty_s05_0_knife_00_knife-0046-ILSVRC2012-val-00045197.png
subject-05,1,57,1.02799296379089,bicycle,bear,0,0057_sty_s05_0_bear_00_bear-0166-ILSVRC2012-val-00022111.png
subject-05,1,58,1.13369297981262,elephant,bird,0,0058_sty_s05_0_bird_00_bird-1093-ILSVRC2012-val-00044082.png
subject-05,1,59,1.06771016120911,car,boat,0,0059_sty_s05_0_boat_00_boat-0103-ILSVRC2012-val-00002308.png
subject-05,1,60,0.879763126373291,cat,bicycle,0,0060_sty_s05_0_bicycle_00_bicycle-0061-ILSVRC2012-val-00012096.png
subject-05,1,61,0.971253156661987,cat,oven,0,0061_sty_s05_0_oven_00_oven-0029-ILSVRC2012-val-00028472.png
subject-05,1,62,0.697003841400146,car,car,0,0062_sty_s05_0_car_00_car-0146-ILSVRC2012-val-00043297.png
subject-05,1,63,0.962725877761841,knife,bottle,0,0063_sty_s05_0_bottle_00_bottle-0031-ILSVRC2012-val-00033822.png
subject-05,1,64,0.796663999557495,cat,boat,0,0064_sty_s05_0_boat_00_boat-0076-ILSVRC2012-val-00020486.png
subject-05,1,65,0.966522216796875,boat,boat,0,0065_sty_s05_0_boat_00_boat-0160-ILSVRC2012-val-00008630.png
subject-05,1,66,1.01016712188721,dog,dog,0,0066_sty_s05_0_dog_00_dog-0386-ILSVRC2012-val-00034616.png
subject-05,1,67,0.9599289894104,oven,oven,0,0067_sty_s05_0_oven_00_oven-0039-ILSVRC2012-val-00038382.png
subject-05,1,68,0.976233959197998,oven,boat,0,0068_sty_s05_0_boat_00_boat-0244-ILSVRC2012-val-00040974.png
subject-05,1,69,0.769657135009766,boat,boat,0,0069_sty_s05_0_boat_00_boat-0036-ILSVRC2012-val-00032433.png
subject-05,1,70,0.969429969787598,car,keyboard,0,0070_sty_s05_0_keyboard_00_keyboard-0012-ILSVRC2012-val-00009502.png
subject-05,1,71,0.921452045440674,cat,dog,0,0071_sty_s05_0_dog_00_dog-2211-ILSVRC2012-val-00010402.png
subject-05,1,72,0.717031955718994,cat,cat,0,0072_sty_s05_0_cat_00_cat-0031-ILSVRC2012-val-00030706.png
subject-05,1,73,0.898910045623779,bicycle,bicycle,0,0073_sty_s05_0_bicycle_00_bicycle-0035-ILSVRC2012-val-00033559.png
subject-05,1,74,0.864850997924805,boat,boat,0,0074_sty_s05_0_boat_00_boat-0179-ILSVRC2012-val-00026763.png
subject-05,1,75,1.07469487190247,car,car,0,0075_sty_s05_0_car_00_car-0054-ILSVRC2012-val-00005500.png
subject-05,1,76,0.806308031082153,bicycle,bicycle,0,0076_sty_s05_0_bicycle_00_bicycle-0010-ILSVRC2012-val-00010544.png
subject-05,1,77,0.984448909759521,cat,chair,0,0077_sty_s05_0_chair_00_chair-0098-ILSVRC2012-val-00044181.png
subject-05,1,78,0.942081212997437,car,truck,0,0078_sty_s05_0_truck_00_truck-0121-ILSVRC2012-val-00018768.png
subject-05,1,79,0.959827899932861,bicycle,chair,0,0079_sty_s05_0_chair_00_chair-0122-ILSVRC2012-val-00019867.png
subject-05,1,80,0.741440057754517,boat,clock,0,0080_sty_s05_0_clock_00_clock-0080-ILSVRC2012-val-00032946.png
subject-05,1,81,1.12975096702576,bottle,chair,0,0081_sty_s05_0_chair_00_chair-0072-ILSVRC2012-val-00015559.png
subject-05,1,82,0.837194919586182,bear,bear,0,0082_sty_s05_0_bear_00_bear-0064-ILSVRC2012-val-00016050.png
subject-05,1,83,0.858936071395874,cat,truck,0,0083_sty_s05_0_truck_00_truck-0177-ILSVRC2012-val-00027892.png
subject-05,1,84,1.05875992774963,bear,bear,0,0084_sty_s05_0_bear_00_bear-0188-ILSVRC2012-val-00043016.png
subject-05,1,85,0.838532209396362,keyboard,keyboard,0,0085_sty_s05_0_keyboard_00_keyboard-0087-ILSVRC2012-val-00039947.png
subject-05,1,86,1.25842118263245,bear,elephant,0,0086_sty_s05_0_elephant_00_elephant-0004-ILSVRC2012-val-00004882.png
subject-05,1,87,1.06013798713684,boat,boat,0,0087_sty_s05_0_boat_00_boat-0011-ILSVRC2012-val-00011563.png
subject-05,1,88,1.27007699012756,elephant,airplane,0,0088_sty_s05_0_airplane_00_airplane-0026-ILSVRC2012-val-00026189.png
subject-05,1,89,1.00995898246765,bear,cat,0,0089_sty_s05_0_cat_00_cat-0062-ILSVRC2012-val-00013788.png
subject-05,1,90,0.793868064880371,bicycle,bicycle,0,0090_sty_s05_0_bicycle_00_bicycle-0078-ILSVRC2012-val-00030892.png
subject-05,1,91,1.50000905990601,keyboard,chair,0,0091_sty_s05_0_chair_00_chair-0018-ILSVRC2012-val-00013838.png
subject-05,1,92,1.01541590690613,cat,bird,0,0092_sty_s05_0_bird_00_bird-0995-ILSVRC2012-val-00046534.png
subject-05,1,93,1.31703495979309,boat,keyboard,0,0093_sty_s05_0_keyboard_00_keyboard-0062-ILSVRC2012-val-00008632.png
subject-05,1,94,0.916894912719727,car,car,0,0094_sty_s05_0_car_00_car-0010-ILSVRC2012-val-00012600.png
subject-05,1,95,0.900646924972534,clock,clock,0,0095_sty_s05_0_clock_00_clock-0040-ILSVRC2012-val-00035392.png
subject-05,1,96,0.874691963195801,car,bottle,0,0096_sty_s05_0_bottle_00_bottle-0220-ILSVRC2012-val-00014146.png
subject-05,1,97,1.19431400299072,truck,chair,0,0097_sty_s05_0_chair_00_chair-0097-ILSVRC2012-val-00043453.png
subject-05,1,98,0.706269979476929,car,oven,0,0098_sty_s05_0_oven_00_oven-0027-ILSVRC2012-val-00024603.png
subject-05,1,99,1.1258339881897,oven,knife,0,0099_sty_s05_0_knife_00_knife-0027-ILSVRC2012-val-00025279.png
subject-05,1,100,0.895869970321655,bird,bird,0,0100_sty_s05_0_bird_00_bird-2410-ILSVRC2012-val-00010355.png
subject-05,1,101,0.963618993759155,cat,bicycle,0,0101_sty_s05_0_bicycle_00_bicycle-0022-ILSVRC2012-val-00023266.png
subject-05,1,102,0.993515968322754,bear,bear,0,0102_sty_s05_0_bear_00_bear-0035-ILSVRC2012-val-00042274.png
subject-05,1,103,0.959339141845703,dog,dog,0,0103_sty_s05_0_dog_00_dog-1191-ILSVRC2012-val-00037989.png
subject-05,1,104,1.04512405395508,car,car,0,0104_sty_s05_0_car_00_car-0149-ILSVRC2012-val-00049427.png
subject-05,1,105,0.79883599281311,truck,truck,0,0105_sty_s05_0_truck_00_truck-0079-ILSVRC2012-val-00028914.png
subject-05,1,106,1.2806601524353,car,bottle,0,0106_sty_s05_0_bottle_00_bottle-0055-ILSVRC2012-val-00003066.png
subject-05,1,107,0.778592109680176,elephant,elephant,0,0107_sty_s05_0_elephant_00_elephant-0011-ILSVRC2012-val-00011247.png
subject-05,1,108,1.50009703636169,dog,bear,0,0108_sty_s05_0_bear_00_bear-0163-ILSVRC2012-val-00016513.png
subject-05,1,109,0.93621301651001,cat,airplane,0,0109_sty_s05_0_airplane_00_airplane-0047-ILSVRC2012-val-00046971.png
subject-05,1,110,0.76789402961731,bear,bear,0,0110_sty_s05_0_bear_00_bear-0085-ILSVRC2012-val-00035292.png
subject-05,1,111,0.877738952636719,truck,truck,0,0111_sty_s05_0_truck_00_truck-0065-ILSVRC2012-val-00013925.png
subject-05,1,112,1.06951999664307,dog,cat,0,0112_sty_s05_0_cat_00_cat-0238-ILSVRC2012-val-00033582.png
subject-05,1,113,0.669456005096436,keyboard,keyboard,0,0113_sty_s05_0_keyboard_00_keyboard-0038-ILSVRC2012-val-00038711.png
subject-05,1,114,0.731177091598511,cat,cat,0,0114_sty_s05_0_cat_00_cat-0284-ILSVRC2012-val-00027069.png
subject-05,1,115,1.13514995574951,chair,chair,0,0115_sty_s05_0_chair_00_chair-0127-ILSVRC2012-val-00024620.png
subject-05,1,116,0.888745069503784,keyboard,oven,0,0116_sty_s05_0_oven_00_oven-0014-ILSVRC2012-val-00012082.png
subject-05,1,117,0.902772188186646,airplane,airplane,0,0117_sty_s05_0_airplane_00_airplane-0001-ILSVRC2012-val-00000631.png
subject-05,1,118,0.704486131668091,airplane,cat,0,0118_sty_s05_0_cat_00_cat-0054-ILSVRC2012-val-00003295.png
subject-05,1,119,0.738415002822876,clock,clock,0,0119_sty_s05_0_clock_00_clock-0043-ILSVRC2012-val-00041613.png
subject-05,1,120,1.01221799850464,cat,knife,0,0120_sty_s05_0_knife_00_knife-0012-ILSVRC2012-val-00009369.png
subject-05,1,121,0.680154085159302,bicycle,bicycle,0,0121_sty_s05_0_bicycle_00_bicycle-0020-ILSVRC2012-val-00022027.png
subject-05,1,122,0.943591833114624,car,boat,0,0122_sty_s05_0_boat_00_boat-0039-ILSVRC2012-val-00033883.png
subject-05,1,123,0.939342975616455,car,knife,0,0123_sty_s05_0_knife_00_knife-0025-ILSVRC2012-val-00022700.png
subject-05,1,124,0.827461957931519,cat,boat,0,0124_sty_s05_0_boat_00_boat-0064-ILSVRC2012-val-00013366.png
subject-05,1,125,0.769090890884399,boat,boat,0,0125_sty_s05_0_boat_00_boat-0086-ILSVRC2012-val-00039559.png
subject-05,1,126,0.798712968826294,chair,chair,0,0126_sty_s05_0_chair_00_chair-0118-ILSVRC2012-val-00018123.png
subject-05,1,127,0.834809064865112,boat,boat,0,0127_sty_s05_0_boat_00_boat-0033-ILSVRC2012-val-00030824.png
subject-05,1,128,1.02847099304199,bird,bird,0,0128_sty_s05_0_bird_00_bird-0009-ILSVRC2012-val-00007530.png
subject-05,1,129,0.768539905548096,cat,cat,0,0129_sty_s05_0_cat_00_cat-0274-ILSVRC2012-val-00019370.png
subject-05,1,130,0.808129072189331,cat,knife,0,0130_sty_s05_0_knife_00_knife-0042-ILSVRC2012-val-00039665.png
subject-05,1,131,1.04995203018188,cat,knife,0,0131_sty_s05_0_knife_00_knife-0021-ILSVRC2012-val-00016901.png
subject-05,1,132,0.827649116516113,dog,dog,0,0132_sty_s05_0_dog_00_dog-0099-ILSVRC2012-val-00048280.png
subject-05,1,133,1.03749489784241,oven,chair,0,0133_sty_s05_0_chair_00_chair-0053-ILSVRC2012-val-00001855.png
subject-05,1,134,0.863370180130005,bear,bear,0,0134_sty_s05_0_bear_00_bear-0074-ILSVRC2012-val-00026962.png
subject-05,1,135,0.673218011856079,bird,bird,0,0135_sty_s05_0_bird_00_bird-0157-ILSVRC2012-val-00005336.png
subject-05,1,136,0.856907844543457,cat,cat,0,0136_sty_s05_0_cat_00_cat-0069-ILSVRC2012-val-00016399.png
subject-05,1,137,1.25089192390442,cat,cat,0,0137_sty_s05_0_cat_00_cat-0042-ILSVRC2012-val-00040238.png
subject-05,1,138,0.780853986740112,cat,elephant,0,0138_sty_s05_0_elephant_00_elephant-0068-ILSVRC2012-val-00016215.png
subject-05,1,139,0.934479951858521,bear,bear,0,0139_sty_s05_0_bear_00_bear-0168-ILSVRC2012-val-00022698.png
subject-05,1,140,0.924190998077393,bird,elephant,0,0140_sty_s05_0_elephant_00_elephant-0032-ILSVRC2012-val-00030248.png
subject-05,1,141,1.36014795303345,knife,bicycle,0,0141_sty_s05_0_bicycle_00_bicycle-0077-ILSVRC2012-val-00030112.png
subject-05,1,142,1.14591979980469,chair,boat,0,0142_sty_s05_0_boat_00_boat-0048-ILSVRC2012-val-00046387.png
subject-05,1,143,0.977840900421143,chair,bottle,0,0143_sty_s05_0_bottle_00_bottle-0218-ILSVRC2012-val-00013667.png
subject-05,1,144,1.37165904045105,oven,dog,0,0144_sty_s05_0_dog_00_dog-2121-ILSVRC2012-val-00015705.png
subject-05,1,145,0.931542158126831,truck,truck,0,0145_sty_s05_0_truck_00_truck-0096-ILSVRC2012-val-00044888.png
subject-05,1,146,1.17912411689758,keyboard,airplane,0,0146_sty_s05_0_airplane_00_airplane-0041-ILSVRC2012-val-00040136.png
subject-05,1,147,0.894963026046753,car,car,0,0147_sty_s05_0_car_00_car-0013-ILSVRC2012-val-00014541.png
subject-05,1,148,0.868803977966309,cat,truck,0,0148_sty_s05_0_truck_00_truck-0028-ILSVRC2012-val-00028536.png
subject-05,1,149,1.04652500152588,bottle,knife,0,0149_sty_s05_0_knife_00_knife-0013-ILSVRC2012-val-00010577.png
subject-05,1,150,0.74845814704895,bottle,truck,0,0150_sty_s05_0_truck_00_truck-0027-ILSVRC2012-val-00025838.png
subject-05,1,151,0.90434193611145,bottle,car,0,0151_sty_s05_0_car_00_car-0096-ILSVRC2012-val-00043824.png
subject-05,1,152,1.13812184333801,dog,bottle,0,0152_sty_s05_0_bottle_00_bottle-0216-ILSVRC2012-val-00013262.png
subject-05,1,153,1.05185699462891,dog,oven,0,0153_sty_s05_0_oven_00_oven-0042-ILSVRC2012-val-00039873.png
subject-05,1,154,0.899742841720581,car,car,0,0154_sty_s05_0_car_00_car-0024-ILSVRC2012-val-00023221.png
subject-05,1,155,1.32155013084412,car,chair,0,0155_sty_s05_0_chair_00_chair-0192-ILSVRC2012-val-00043870.png
subject-05,1,156,0.943166971206665,bicycle,bicycle,0,0156_sty_s05_0_bicycle_00_bicycle-0100-ILSVRC2012-val-00049750.png
subject-05,1,157,0.725194931030273,car,car,0,0157_sty_s05_0_car_00_car-0086-ILSVRC2012-val-00029454.png
subject-05,1,158,0.885245084762573,dog,oven,0,0158_sty_s05_0_oven_00_oven-0040-ILSVRC2012-val-00038775.png
subject-05,1,159,0.804807186126709,bird,bird,0,0159_sty_s05_0_bird_00_bird-0822-ILSVRC2012-val-00025200.png
subject-05,1,160,0.738569021224976,car,car,0,0160_sty_s05_0_car_00_car-0045-ILSVRC2012-val-00042416.png
subject-05,1,161,1.04628491401672,cat,bird,0,0161_sty_s05_0_bird_00_bird-1274-ILSVRC2012-val-00025449.png
subject-05,1,162,1.12021684646606,bear,dog,0,0162_sty_s05_0_dog_00_dog-4954-ILSVRC2012-val-00002882.png
subject-05,1,163,0.921966075897217,clock,clock,0,0163_sty_s05_0_clock_00_clock-0119-ILSVRC2012-val-00018797.png
subject-05,1,164,0.841955900192261,keyboard,keyboard,0,0164_sty_s05_0_keyboard_00_keyboard-0077-ILSVRC2012-val-00025109.png
subject-05,1,165,0.845798969268799,oven,bird,0,0165_sty_s05_0_bird_00_bird-0175-ILSVRC2012-val-00018699.png
subject-05,1,166,1.2676088809967,cat,oven,0,0166_sty_s05_0_oven_00_oven-0011-ILSVRC2012-val-00010717.png
subject-05,1,167,0.709146022796631,oven,clock,0,0167_sty_s05_0_clock_00_clock-0098-ILSVRC2012-val-00048682.png
subject-05,1,168,1.00310111045837,car,airplane,0,0168_sty_s05_0_airplane_00_airplane-0018-ILSVRC2012-val-00019677.png
subject-05,1,169,1.48297882080078,dog,bear,0,0169_sty_s05_0_bear_00_bear-0143-ILSVRC2012-val-00044126.png
subject-05,1,170,0.792582035064697,cat,cat,0,0170_sty_s05_0_cat_00_cat-0147-ILSVRC2012-val-00041347.png
subject-05,1,171,0.792541980743408,cat,bear,0,0171_sty_s05_0_bear_00_bear-0165-ILSVRC2012-val-00019901.png
subject-05,1,172,0.960407972335815,bottle,bottle,0,0172_sty_s05_0_bottle_00_bottle-0254-ILSVRC2012-val-00005933.png
subject-05,1,173,0.880280017852783,oven,oven,0,0173_sty_s05_0_oven_00_oven-0035-ILSVRC2012-val-00034788.png
subject-05,1,174,0.854002952575684,cat,oven,0,0174_sty_s05_0_oven_00_oven-0009-ILSVRC2012-val-00007132.png
subject-05,1,175,0.922018051147461,bird,chair,0,0175_sty_s05_0_chair_00_chair-0092-ILSVRC2012-val-00041814.png
subject-05,1,176,0.871394872665405,cat,cat,0,0176_sty_s05_0_cat_00_cat-0045-ILSVRC2012-val-00041570.png
subject-05,1,177,1.42328500747681,airplane,chair,0,0177_sty_s05_0_chair_00_chair-0116-ILSVRC2012-val-00017447.png
subject-05,1,178,1.04738092422485,dog,dog,0,0178_sty_s05_0_dog_00_dog-4914-ILSVRC2012-val-00011316.png
subject-05,1,179,0.803017139434814,bird,bird,0,0179_sty_s05_0_bird_00_bird-2222-ILSVRC2012-val-00015392.png
subject-05,1,180,0.880874872207642,cat,chair,0,0180_sty_s05_0_chair_00_chair-0141-ILSVRC2012-val-00040076.png
subject-05,1,181,1.00262498855591,bear,elephant,0,0181_sty_s05_0_elephant_00_elephant-0087-ILSVRC2012-val-00034562.png
subject-05,1,182,0.786566019058228,elephant,elephant,0,0182_sty_s05_0_elephant_00_elephant-0083-ILSVRC2012-val-00033235.png
subject-05,1,183,0.814445018768311,cat,knife,0,0183_sty_s05_0_knife_00_knife-0037-ILSVRC2012-val-00034765.png
subject-05,1,184,0.726107120513916,bear,bear,0,0184_sty_s05_0_bear_00_bear-0049-ILSVRC2012-val-00049822.png
subject-05,1,185,0.981838941574097,cat,oven,0,0185_sty_s05_0_oven_00_oven-0036-ILSVRC2012-val-00035817.png
subject-05,1,186,0.685677051544189,cat,cat,0,0186_sty_s05_0_cat_00_cat-0032-ILSVRC2012-val-00033420.png
subject-05,1,187,0.997589826583862,cat,dog,0,0187_sty_s05_0_dog_00_dog-4689-ILSVRC2012-val-00034291.png
subject-05,1,188,0.749319076538086,cat,cat,0,0188_sty_s05_0_cat_00_cat-0050-ILSVRC2012-val-00047911.png
subject-05,1,189,0.8731849193573,dog,dog,0,0189_sty_s05_0_dog_00_dog-3412-ILSVRC2012-val-00014775.png
subject-05,1,190,0.73310399055481,cat,cat,0,0190_sty_s05_0_cat_00_cat-0160-ILSVRC2012-val-00011528.png
subject-05,1,191,0.799045085906982,dog,dog,0,0191_sty_s05_0_dog_00_dog-4009-ILSVRC2012-val-00007922.png
subject-05,1,192,0.748479843139648,car,car,0,0192_sty_s05_0_car_00_car-0021-ILSVRC2012-val-00019695.png
subject-05,1,193,1.18675708770752,bottle,knife,0,0193_sty_s05_0_knife_00_knife-0030-ILSVRC2012-val-00027427.png
subject-05,1,194,0.768314123153687,bear,bear,0,0194_sty_s05_0_bear_00_bear-0160-ILSVRC2012-val-00013052.png
subject-05,1,195,1.02408385276794,car,truck,0,0195_sty_s05_0_truck_00_truck-0054-ILSVRC2012-val-00004119.png
subject-05,1,196,0.911790132522583,cat,bottle,0,0196_sty_s05_0_bottle_00_bottle-0047-ILSVRC2012-val-00044787.png
subject-05,1,197,1.12762689590454,dog,bottle,0,0197_sty_s05_0_bottle_00_bottle-0003-ILSVRC2012-val-00003622.png
subject-05,1,198,0.937770128250122,dog,keyboard,0,0198_sty_s05_0_keyboard_00_keyboard-0009-ILSVRC2012-val-00006513.png
subject-05,1,199,0.801373958587646,bicycle,bicycle,0,0199_sty_s05_0_bicycle_00_bicycle-0092-ILSVRC2012-val-00043207.png
subject-05,1,200,1.03320097923279,bicycle,airplane,0,0200_sty_s05_0_airplane_00_airplane-0017-ILSVRC2012-val-00019179.png
subject-05,1,201,0.79286789894104,bicycle,bicycle,0,0201_sty_s05_0_bicycle_00_bicycle-0079-ILSVRC2012-val-00031485.png
subject-05,1,202,0.852802991867065,bicycle,bicycle,0,0202_sty_s05_0_bicycle_00_bicycle-0089-ILSVRC2012-val-00042393.png
subject-05,1,203,0.942750930786133,cat,cat,0,0203_sty_s05_0_cat_00_cat-0072-ILSVRC2012-val-00019303.png
subject-05,1,204,0.724334955215454,bear,bear,0,0204_sty_s05_0_bear_00_bear-0010-ILSVRC2012-val-00013390.png
subject-05,1,205,0.851975917816162,bird,bird,0,0205_sty_s05_0_bird_00_bird-1052-ILSVRC2012-val-00003884.png
subject-05,1,206,1.28227090835571,knife,keyboard,0,0206_sty_s05_0_keyboard_00_keyboard-0013-ILSVRC2012-val-00012334.png
subject-05,1,207,0.965780973434448,cat,elephant,0,0207_sty_s05_0_elephant_00_elephant-0073-ILSVRC2012-val-00021807.png
subject-05,1,208,0.899460077285767,dog,dog,0,0208_sty_s05_0_dog_00_dog-2094-ILSVRC2012-val-00044284.png
subject-05,1,209,0.889730930328369,bicycle,bicycle,0,0209_sty_s05_0_bicycle_00_bicycle-0011-ILSVRC2012-val-00011821.png
subject-05,1,210,0.909131050109863,bicycle,bicycle,0,0210_sty_s05_0_bicycle_00_bicycle-0024-ILSVRC2012-val-00025915.png
subject-05,1,211,0.802850008010864,bird,bird,0,0211_sty_s05_0_bird_00_bird-1188-ILSVRC2012-val-00040014.png
subject-05,1,212,0.706683874130249,bicycle,bicycle,0,0212_sty_s05_0_bicycle_00_bicycle-0043-ILSVRC2012-val-00038415.png
subject-05,1,213,1.00447607040405,chair,chair,0,0213_sty_s05_0_chair_00_chair-0022-ILSVRC2012-val-00016403.png
subject-05,1,214,0.610532999038696,car,car,0,0214_sty_s05_0_car_00_car-0025-ILSVRC2012-val-00023474.png
subject-05,1,215,0.834152936935425,keyboard,keyboard,0,0215_sty_s05_0_keyboard_00_keyboard-0068-ILSVRC2012-val-00013404.png
subject-05,1,216,0.674190044403076,bird,bird,0,0216_sty_s05_0_bird_00_bird-1326-ILSVRC2012-val-00025658.png
subject-05,1,217,0.812221050262451,oven,chair,0,0217_sty_s05_0_chair_00_chair-0169-ILSVRC2012-val-00019913.png
subject-05,1,218,0.721796989440918,oven,knife,0,0218_sty_s05_0_knife_00_knife-0035-ILSVRC2012-val-00029833.png
subject-05,1,219,1.35336804389954,bear,bear,0,0219_sty_s05_0_bear_00_bear-0062-ILSVRC2012-val-00014029.png
subject-05,1,220,0.825282096862793,bear,dog,0,0220_sty_s05_0_dog_00_dog-3864-ILSVRC2012-val-00011457.png
subject-05,1,221,1.18311882019043,bicycle,oven,0,0221_sty_s05_0_oven_00_oven-0046-ILSVRC2012-val-00046020.png
subject-05,1,222,0.891108989715576,cat,boat,0,0222_sty_s05_0_boat_00_boat-0181-ILSVRC2012-val-00031072.png
subject-05,1,223,0.790880918502808,bicycle,bicycle,0,0223_sty_s05_0_bicycle_00_bicycle-0037-ILSVRC2012-val-00036009.png
subject-05,1,224,0.824447154998779,keyboard,oven,0,0224_sty_s05_0_oven_00_oven-0013-ILSVRC2012-val-00011779.png
subject-05,1,225,0.768277168273926,car,car,0,0225_sty_s05_0_car_00_car-0064-ILSVRC2012-val-00016337.png
subject-05,1,226,0.762281894683838,elephant,elephant,0,0226_sty_s05_0_elephant_00_elephant-0006-ILSVRC2012-val-00005704.png
subject-05,1,227,1.0801899433136,bear,bear,0,0227_sty_s05_0_bear_00_bear-0069-ILSVRC2012-val-00018788.png
subject-05,1,228,0.877760171890259,cat,keyboard,0,0228_sty_s05_0_keyboard_00_keyboard-0022-ILSVRC2012-val-00021913.png
subject-05,1,229,0.975465059280396,cat,chair,0,0229_sty_s05_0_chair_00_chair-0154-ILSVRC2012-val-00004705.png
subject-05,1,230,1.0672619342804,bottle,bottle,0,0230_sty_s05_0_bottle_00_bottle-0066-ILSVRC2012-val-00016336.png
subject-05,1,231,1.02115893363953,bear,bird,0,0231_sty_s05_0_bird_00_bird-1452-ILSVRC2012-val-00002997.png
subject-05,1,232,0.755071878433228,cat,bicycle,0,0232_sty_s05_0_bicycle_00_bicycle-0030-ILSVRC2012-val-00027620.png
subject-05,1,233,0.753198146820068,elephant,cat,0,0233_sty_s05_0_cat_00_cat-0096-ILSVRC2012-val-00045420.png
subject-05,1,234,0.850799083709717,bottle,keyboard,0,0234_sty_s05_0_keyboard_00_keyboard-0092-ILSVRC2012-val-00044775.png
subject-05,1,235,0.7464759349823,bottle,bottle,0,0235_sty_s05_0_bottle_00_bottle-0011-ILSVRC2012-val-00009225.png
subject-05,1,236,0.938348054885864,bottle,bicycle,0,0236_sty_s05_0_bicycle_00_bicycle-0016-ILSVRC2012-val-00016532.png
subject-05,1,237,0.64824104309082,car,truck,0,0237_sty_s05_0_truck_00_truck-0136-ILSVRC2012-val-00037829.png
subject-05,1,238,0.800079107284546,bird,bird,0,0238_sty_s05_0_bird_00_bird-1971-ILSVRC2012-val-00023024.png
subject-05,1,239,0.749656915664673,cat,truck,0,0239_sty_s05_0_truck_00_truck-0310-ILSVRC2012-val-00016077.png
subject-05,1,240,1.04356098175049,bicycle,truck,0,0240_sty_s05_0_truck_00_truck-0200-ILSVRC2012-val-00048418.png
subject-05,1,241,0.909271001815796,clock,clock,0,0241_sty_s05_0_clock_00_clock-0013-ILSVRC2012-val-00013244.png
subject-05,1,242,0.663088083267212,bird,bird,0,0242_sty_s05_0_bird_00_bird-2322-ILSVRC2012-val-00023492.png
subject-05,1,243,1.16321110725403,cat,cat,0,0243_sty_s05_0_cat_00_cat-0169-ILSVRC2012-val-00020688.png
subject-05,1,244,1.13479590415955,bottle,clock,0,0244_sty_s05_0_clock_00_clock-0110-ILSVRC2012-val-00014035.png
subject-05,1,245,0.722632884979248,bottle,bottle,0,0245_sty_s05_0_bottle_00_bottle-0006-ILSVRC2012-val-00004888.png
subject-05,1,246,0.648832082748413,car,car,0,0246_sty_s05_0_car_00_car-0041-ILSVRC2012-val-00040706.png
subject-05,1,247,0.788064002990723,bear,elephant,0,0247_sty_s05_0_elephant_00_elephant-0029-ILSVRC2012-val-00027259.png
subject-05,1,248,1.09589409828186,airplane,airplane,0,0248_sty_s05_0_airplane_00_airplane-0006-ILSVRC2012-val-00008292.png
subject-05,1,249,0.813709020614624,elephant,elephant,0,0249_sty_s05_0_elephant_00_elephant-0033-ILSVRC2012-val-00033715.png
subject-05,1,250,0.669713973999023,cat,dog,0,0250_sty_s05_0_dog_00_dog-2876-ILSVRC2012-val-00027038.png
subject-05,1,251,1.41952514648438,dog,dog,0,0251_sty_s05_0_dog_00_dog-0397-ILSVRC2012-val-00044140.png
subject-05,1,252,0.719163179397583,keyboard,keyboard,0,0252_sty_s05_0_keyboard_00_keyboard-0074-ILSVRC2012-val-00020967.png
subject-05,1,253,1.5000638961792,airplane,bear,0,0253_sty_s05_0_bear_00_bear-0114-ILSVRC2012-val-00017605.png
subject-05,1,254,0.799134969711304,car,truck,0,0254_sty_s05_0_truck_00_truck-0301-ILSVRC2012-val-00000671.png
subject-05,1,255,0.730752944946289,keyboard,knife,0,0255_sty_s05_0_knife_00_knife-0026-ILSVRC2012-val-00024520.png
subject-05,1,256,0.656546831130981,oven,bottle,0,0256_sty_s05_0_bottle_00_bottle-0214-ILSVRC2012-val-00012572.png
subject-05,1,257,0.980221033096313,airplane,airplane,0,0257_sty_s05_0_airplane_00_airplane-0034-ILSVRC2012-val-00033441.png
subject-05,1,258,0.970080137252808,airplane,knife,0,0258_sty_s05_0_knife_00_knife-0050-ILSVRC2012-val-00048891.png
subject-05,1,259,1.00373291969299,cat,cat,0,0259_sty_s05_0_cat_00_cat-0005-ILSVRC2012-val-00005358.png
subject-05,1,260,0.895660161972046,elephant,elephant,0,0260_sty_s05_0_elephant_00_elephant-0069-ILSVRC2012-val-00017097.png
subject-05,1,261,0.82755184173584,bear,dog,0,0261_sty_s05_0_dog_00_dog-0247-ILSVRC2012-val-00045683.png
subject-05,1,262,0.849349975585938,bottle,clock,0,0262_sty_s05_0_clock_00_clock-0038-ILSVRC2012-val-00032489.png
subject-05,1,263,0.681221961975098,car,car,0,0263_sty_s05_0_car_00_car-0060-ILSVRC2012-val-00014208.png
subject-05,1,264,0.7812659740448,cat,cat,0,0264_sty_s05_0_cat_00_cat-0234-ILSVRC2012-val-00028970.png
subject-05,1,265,1.33300995826721,elephant,elephant,0,0265_sty_s05_0_elephant_00_elephant-0065-ILSVRC2012-val-00010619.png
subject-05,1,266,1.24654698371887,boat,boat,0,0266_sty_s05_0_boat_00_boat-0026-ILSVRC2012-val-00026341.png
subject-05,1,267,0.772278070449829,boat,boat,0,0267_sty_s05_0_boat_00_boat-0053-ILSVRC2012-val-00005918.png
subject-05,1,268,0.800351858139038,oven,clock,0,0268_sty_s05_0_clock_00_clock-0054-ILSVRC2012-val-00008751.png
subject-05,1,269,0.873939990997314,truck,truck,0,0269_sty_s05_0_truck_00_truck-0094-ILSVRC2012-val-00042802.png
subject-05,1,270,1.21193313598633,car,car,0,0270_sty_s05_0_car_00_car-0067-ILSVRC2012-val-00018569.png
subject-05,1,271,0.84174108505249,chair,chair,0,0271_sty_s05_0_chair_00_chair-0136-ILSVRC2012-val-00037994.png
subject-05,1,272,0.649439096450806,elephant,elephant,0,0272_sty_s05_0_elephant_00_elephant-0059-ILSVRC2012-val-00005109.png
subject-05,1,273,0.963502883911133,chair,oven,0,0273_sty_s05_0_oven_00_oven-0038-ILSVRC2012-val-00038011.png
subject-05,1,274,1.33722305297852,chair,bottle,0,0274_sty_s05_0_bottle_00_bottle-0170-ILSVRC2012-val-00020948.png
subject-05,1,275,0.936933994293213,chair,boat,0,0275_sty_s05_0_boat_00_boat-0100-ILSVRC2012-val-00048371.png
subject-05,1,276,1.50005602836609,dog,dog,0,0276_sty_s05_0_dog_00_dog-2629-ILSVRC2012-val-00030579.png
subject-05,1,277,0.822355985641479,car,airplane,0,0277_sty_s05_0_airplane_00_airplane-0037-ILSVRC2012-val-00035783.png
subject-05,1,278,1.23860192298889,elephant,knife,0,0278_sty_s05_0_knife_00_knife-0007-ILSVRC2012-val-00004815.png
subject-05,1,279,0.83034086227417,cat,chair,0,0279_sty_s05_0_chair_00_chair-0172-ILSVRC2012-val-00023378.png
subject-05,1,280,1.30572199821472,airplane,boat,0,0280_sty_s05_0_boat_00_boat-0222-ILSVRC2012-val-00019246.png
subject-05,1,281,0.919731140136719,dog,dog,0,0281_sty_s05_0_dog_00_dog-4865-ILSVRC2012-val-00013670.png
subject-05,1,282,0.711416006088257,clock,clock,0,0282_sty_s05_0_clock_00_clock-0046-ILSVRC2012-val-00044049.png
subject-05,1,283,0.793329000473022,dog,dog,0,0283_sty_s05_0_dog_00_dog-2535-ILSVRC2012-val-00038253.png
subject-05,1,284,0.927083969116211,bear,bear,0,0284_sty_s05_0_bear_00_bear-0067-ILSVRC2012-val-00017273.png
subject-05,1,285,1.01919794082642,boat,boat,0,0285_sty_s05_0_boat_00_boat-0044-ILSVRC2012-val-00041227.png
subject-05,1,286,0.850697994232178,boat,keyboard,0,0286_sty_s05_0_keyboard_00_keyboard-0065-ILSVRC2012-val-00012212.png
subject-05,1,287,1.01270294189453,oven,boat,0,0287_sty_s05_0_boat_00_boat-0083-ILSVRC2012-val-00034455.png
subject-05,1,288,0.896355867385864,bicycle,bicycle,0,0288_sty_s05_0_bicycle_00_bicycle-0067-ILSVRC2012-val-00018304.png
subject-05,1,289,0.792278051376343,keyboard,keyboard,0,0289_sty_s05_0_keyboard_00_keyboard-0025-ILSVRC2012-val-00026405.png
subject-05,1,290,0.812175989151001,dog,dog,0,0290_sty_s05_0_dog_00_dog-0303-ILSVRC2012-val-00002521.png
subject-05,1,291,0.747848987579346,airplane,airplane,0,0291_sty_s05_0_airplane_00_airplane-0031-ILSVRC2012-val-00030531.png
subject-05,1,292,0.633759021759033,keyboard,keyboard,0,0292_sty_s05_0_keyboard_00_keyboard-0024-ILSVRC2012-val-00025409.png
subject-05,1,293,0.995483875274658,keyboard,knife,0,0293_sty_s05_0_knife_00_knife-0011-ILSVRC2012-val-00009367.png
subject-05,1,294,0.813218116760254,cat,cat,0,0294_sty_s05_0_cat_00_cat-0189-ILSVRC2012-val-00040854.png
subject-05,1,295,0.531008958816528,keyboard,keyboard,0,0295_sty_s05_0_keyboard_00_keyboard-0060-ILSVRC2012-val-00008319.png
subject-05,1,296,0.77689003944397,bear,bear,0,0296_sty_s05_0_bear_00_bear-0052-ILSVRC2012-val-00000865.png
subject-05,1,297,1.32271003723145,knife,chair,0,0297_sty_s05_0_chair_00_chair-0193-ILSVRC2012-val-00044295.png
subject-05,1,298,0.76657509803772,keyboard,keyboard,0,0298_sty_s05_0_keyboard_00_keyboard-0073-ILSVRC2012-val-00019503.png
subject-05,1,299,0.960402011871338,truck,truck,0,0299_sty_s05_0_truck_00_truck-0048-ILSVRC2012-val-00047888.png
subject-05,1,300,0.680142164230347,keyboard,keyboard,0,0300_sty_s05_0_keyboard_00_keyboard-0061-ILSVRC2012-val-00008530.png
subject-05,1,301,0.710025072097778,cat,cat,0,0301_sty_s05_0_cat_00_cat-0242-ILSVRC2012-val-00040192.png
subject-05,1,302,0.993826150894165,bicycle,bicycle,0,0302_sty_s05_0_bicycle_00_bicycle-0073-ILSVRC2012-val-00027449.png
subject-05,1,303,0.94970703125,keyboard,airplane,0,0303_sty_s05_0_airplane_00_airplane-0009-ILSVRC2012-val-00011168.png
subject-05,1,304,0.717892169952393,oven,airplane,0,0304_sty_s05_0_airplane_00_airplane-0043-ILSVRC2012-val-00041518.png
subject-05,1,305,0.81348705291748,keyboard,knife,0,0305_sty_s05_0_knife_00_knife-0017-ILSVRC2012-val-00014528.png
subject-05,1,306,0.719362020492554,truck,truck,0,0306_sty_s05_0_truck_00_truck-0060-ILSVRC2012-val-00007519.png
subject-05,1,307,0.760848045349121,keyboard,bottle,0,0307_sty_s05_0_bottle_00_bottle-0039-ILSVRC2012-val-00038570.png
subject-05,1,308,0.750894069671631,cat,cat,0,0308_sty_s05_0_cat_00_cat-0186-ILSVRC2012-val-00039580.png
subject-05,1,309,0.656625032424927,bicycle,bicycle,0,0309_sty_s05_0_bicycle_00_bicycle-0074-ILSVRC2012-val-00028824.png
subject-05,1,310,1.00826215744019,airplane,airplane,0,0310_sty_s05_0_airplane_00_airplane-0008-ILSVRC2012-val-00010597.png
subject-05,1,311,0.614169120788574,bicycle,bicycle,0,0311_sty_s05_0_bicycle_00_bicycle-0014-ILSVRC2012-val-00015483.png
subject-05,1,312,0.930075883865356,car,car,0,0312_sty_s05_0_car_00_car-0029-ILSVRC2012-val-00027081.png
subject-05,1,313,0.911922931671143,keyboard,knife,0,0313_sty_s05_0_knife_00_knife-0031-ILSVRC2012-val-00027474.png
subject-05,1,314,0.717627048492432,oven,bear,0,0314_sty_s05_0_bear_00_bear-0154-ILSVRC2012-val-00003499.png
subject-05,1,315,1.06963300704956,truck,truck,0,0315_sty_s05_0_truck_00_truck-0084-ILSVRC2012-val-00034001.png
subject-05,1,316,0.97720193862915,bicycle,bicycle,0,0316_sty_s05_0_bicycle_00_bicycle-0026-ILSVRC2012-val-00026292.png
subject-05,1,317,1.27290105819702,elephant,bear,0,0317_sty_s05_0_bear_00_bear-0164-ILSVRC2012-val-00018303.png
subject-05,1,318,0.930768013000488,cat,cat,0,0318_sty_s05_0_cat_00_cat-0260-ILSVRC2012-val-00006612.png
subject-05,1,319,0.862712860107422,elephant,elephant,0,0319_sty_s05_0_elephant_00_elephant-0030-ILSVRC2012-val-00028996.png
subject-05,1,320,0.648270130157471,truck,truck,0,0320_sty_s05_0_truck_00_truck-0307-ILSVRC2012-val-00012703.png
subject-05,1,321,0.723953008651733,clock,bottle,0,0321_sty_s05_0_bottle_00_bottle-0052-ILSVRC2012-val-00000252.png
subject-05,1,322,0.955790042877197,cat,chair,0,0322_sty_s05_0_chair_00_chair-0024-ILSVRC2012-val-00021099.png
subject-05,1,323,0.867738962173462,car,car,0,0323_sty_s05_0_car_00_car-0050-ILSVRC2012-val-00048556.png
subject-05,1,324,0.715325117111206,car,car,0,0324_sty_s05_0_car_00_car-0053-ILSVRC2012-val-00004685.png
subject-05,1,325,0.83725118637085,chair,knife,0,0325_sty_s05_0_knife_00_knife-0023-ILSVRC2012-val-00020998.png
subject-05,1,326,1.41910314559937,dog,bottle,0,0326_sty_s05_0_bottle_00_bottle-0296-ILSVRC2012-val-00044906.png
subject-05,1,327,0.988895893096924,bear,boat,0,0327_sty_s05_0_boat_00_boat-0073-ILSVRC2012-val-00018158.png
subject-05,1,328,1.00670099258423,keyboard,keyboard,0,0328_sty_s05_0_keyboard_00_keyboard-0015-ILSVRC2012-val-00012808.png
subject-05,1,329,0.844594955444336,keyboard,clock,0,0329_sty_s05_0_clock_00_clock-0007-ILSVRC2012-val-00005490.png
subject-05,1,330,0.876199007034302,cat,elephant,0,0330_sty_s05_0_elephant_00_elephant-0096-ILSVRC2012-val-00046061.png
subject-05,1,331,0.912121057510376,dog,oven,0,0331_sty_s05_0_oven_00_oven-0030-ILSVRC2012-val-00028507.png
subject-05,1,332,0.791882991790771,elephant,elephant,0,0332_sty_s05_0_elephant_00_elephant-0036-ILSVRC2012-val-00034664.png
subject-05,1,333,0.978270053863525,keyboard,bottle,0,0333_sty_s05_0_bottle_00_bottle-0127-ILSVRC2012-val-00023580.png
subject-05,1,334,1.31364512443542,boat,boat,0,0334_sty_s05_0_boat_00_boat-0005-ILSVRC2012-val-00004909.png
subject-05,1,335,0.765327930450439,keyboard,bicycle,0,0335_sty_s05_0_bicycle_00_bicycle-0033-ILSVRC2012-val-00031498.png
subject-05,1,336,0.737019062042236,cat,bottle,0,0336_sty_s05_0_bottle_00_bottle-0195-ILSVRC2012-val-00045644.png
subject-05,1,337,1.50013613700867,airplane,dog,0,0337_sty_s05_0_dog_00_dog-0158-ILSVRC2012-val-00004081.png
subject-05,1,338,0.984802961349487,cat,dog,0,0338_sty_s05_0_dog_00_dog-4933-ILSVRC2012-val-00033357.png
subject-05,1,339,0.910872936248779,keyboard,truck,0,0339_sty_s05_0_truck_00_truck-0051-ILSVRC2012-val-00001144.png
subject-05,1,340,1.49248218536377,bear,bear,0,0340_sty_s05_0_bear_00_bear-0129-ILSVRC2012-val-00030485.png
subject-05,1,341,0.654759168624878,cat,chair,0,0341_sty_s05_0_chair_00_chair-0159-ILSVRC2012-val-00011028.png
subject-05,1,342,0.662373065948486,car,car,0,0342_sty_s05_0_car_00_car-0118-ILSVRC2012-val-00012327.png
subject-05,1,343,1.40978288650513,dog,dog,0,0343_sty_s05_0_dog_00_dog-4999-ILSVRC2012-val-00049046.png
subject-05,1,344,1.01586699485779,elephant,elephant,0,0344_sty_s05_0_elephant_00_elephant-0084-ILSVRC2012-val-00033832.png
subject-05,1,345,0.655612230300903,clock,clock,0,0345_sty_s05_0_clock_00_clock-0082-ILSVRC2012-val-00033627.png
subject-05,1,346,0.831313133239746,car,car,0,0346_sty_s05_0_car_00_car-0106-ILSVRC2012-val-00004868.png
subject-05,1,347,0.811255931854248,bicycle,bicycle,0,0347_sty_s05_0_bicycle_00_bicycle-0046-ILSVRC2012-val-00042496.png
subject-05,1,348,0.737082958221436,elephant,elephant,0,0348_sty_s05_0_elephant_00_elephant-0095-ILSVRC2012-val-00042879.png
subject-05,1,349,0.845111846923828,cat,dog,0,0349_sty_s05_0_dog_00_dog-2195-ILSVRC2012-val-00046002.png
subject-05,1,350,0.958631992340088,elephant,elephant,0,0350_sty_s05_0_elephant_00_elephant-0057-ILSVRC2012-val-00004013.png
subject-05,1,351,1.21869802474976,bird,oven,0,0351_sty_s05_0_oven_00_oven-0012-ILSVRC2012-val-00010756.png
subject-05,1,352,0.902312994003296,car,knife,0,0352_sty_s05_0_knife_00_knife-0006-ILSVRC2012-val-00004379.png
subject-05,1,353,0.90641188621521,clock,clock,0,0353_sty_s05_0_clock_00_clock-0128-ILSVRC2012-val-00030987.png
subject-05,1,354,0.758061170578003,elephant,elephant,0,0354_sty_s05_0_elephant_00_elephant-0035-ILSVRC2012-val-00034035.png
subject-05,1,355,0.94173789024353,clock,clock,0,0355_sty_s05_0_clock_00_clock-0020-ILSVRC2012-val-00016889.png
subject-05,1,356,0.695491075515747,car,airplane,0,0356_sty_s05_0_airplane_00_airplane-0025-ILSVRC2012-val-00024747.png
subject-05,1,357,1.03130006790161,bottle,bottle,0,0357_sty_s05_0_bottle_00_bottle-0345-ILSVRC2012-val-00044614.png
subject-05,1,358,1.01932215690613,elephant,elephant,0,0358_sty_s05_0_elephant_00_elephant-0078-ILSVRC2012-val-00027908.png
subject-05,1,359,0.957027912139893,elephant,knife,0,0359_sty_s05_0_knife_00_knife-0019-ILSVRC2012-val-00014960.png
subject-05,1,360,1.4987587928772,chair,chair,0,0360_sty_s05_0_chair_00_chair-0085-ILSVRC2012-val-00036175.png
subject-05,1,361,0.880391120910645,car,truck,0,0361_sty_s05_0_truck_00_truck-0219-ILSVRC2012-val-00021802.png
subject-05,1,362,0.964216947555542,truck,clock,0,0362_sty_s05_0_clock_00_clock-0100-ILSVRC2012-val-00049759.png
subject-05,1,363,0.864048004150391,keyboard,chair,0,0363_sty_s05_0_chair_00_chair-0155-ILSVRC2012-val-00005160.png
subject-05,1,364,0.813984870910645,keyboard,keyboard,0,0364_sty_s05_0_keyboard_00_keyboard-0076-ILSVRC2012-val-00022077.png
subject-05,1,365,0.811675071716309,cat,cat,0,0365_sty_s05_0_cat_00_cat-0056-ILSVRC2012-val-00007676.png
subject-05,1,366,0.729490995407104,oven,clock,0,0366_sty_s05_0_clock_00_clock-0118-ILSVRC2012-val-00018443.png
subject-05,1,367,0.853296041488647,bird,bird,0,0367_sty_s05_0_bird_00_bird-0119-ILSVRC2012-val-00016252.png
subject-05,1,368,0.631282091140747,keyboard,keyboard,0,0368_sty_s05_0_keyboard_00_keyboard-0007-ILSVRC2012-val-00002755.png
subject-05,1,369,0.533101797103882,clock,clock,0,0369_sty_s05_0_clock_00_clock-0025-ILSVRC2012-val-00019663.png
subject-05,1,370,0.794831037521362,bird,bird,0,0370_sty_s05_0_bird_00_bird-0896-ILSVRC2012-val-00046621.png
subject-05,1,371,0.786401033401489,cat,cat,0,0371_sty_s05_0_cat_00_cat-0185-ILSVRC2012-val-00038168.png
subject-05,1,372,0.69041895866394,bird,bird,0,0372_sty_s05_0_bird_00_bird-1256-ILSVRC2012-val-00005779.png
subject-05,1,373,0.884253978729248,bear,clock,0,0373_sty_s05_0_clock_00_clock-0127-ILSVRC2012-val-00030330.png
subject-05,1,374,0.794256925582886,bottle,bottle,0,0374_sty_s05_0_bottle_00_bottle-0030-ILSVRC2012-val-00032921.png
subject-05,1,375,1.09176397323608,chair,truck,0,0375_sty_s05_0_truck_00_truck-0019-ILSVRC2012-val-00019954.png
subject-05,1,376,0.823892116546631,keyboard,oven,0,0376_sty_s05_0_oven_00_oven-0049-ILSVRC2012-val-00048848.png
subject-05,1,377,0.755846977233887,cat,airplane,0,0377_sty_s05_0_airplane_00_airplane-0032-ILSVRC2012-val-00032804.png
subject-05,1,378,0.903195858001709,dog,dog,0,0378_sty_s05_0_dog_00_dog-1398-ILSVRC2012-val-00046547.png
subject-05,1,379,1.45715498924255,bear,bear,0,0379_sty_s05_0_bear_00_bear-0009-ILSVRC2012-val-00011967.png
subject-05,1,380,0.687018156051636,cat,bird,0,0380_sty_s05_0_bird_00_bird-2433-ILSVRC2012-val-00028670.png
subject-05,1,381,1.0166699886322,bear,bird,0,0381_sty_s05_0_bird_00_bird-0752-ILSVRC2012-val-00001596.png
subject-05,1,382,0.90242600440979,truck,truck,0,0382_sty_s05_0_truck_00_truck-0192-ILSVRC2012-val-00042157.png
subject-05,1,383,0.78240180015564,dog,dog,0,0383_sty_s05_0_dog_00_dog-1734-ILSVRC2012-val-00031377.png
subject-05,1,384,0.808119058609009,elephant,elephant,0,0384_sty_s05_0_elephant_00_elephant-0098-ILSVRC2012-val-00047540.png
subject-05,1,385,1.4880268573761,bear,knife,0,0385_sty_s05_0_knife_00_knife-0018-ILSVRC2012-val-00014608.png
subject-05,1,386,0.891835927963257,bear,bear,0,0386_sty_s05_0_bear_00_bear-0056-ILSVRC2012-val-00007093.png
subject-05,1,387,0.739460945129395,bicycle,bicycle,0,0387_sty_s05_0_bicycle_00_bicycle-0060-ILSVRC2012-val-00011330.png
subject-05,1,388,0.823395967483521,bicycle,bicycle,0,0388_sty_s05_0_bicycle_00_bicycle-0096-ILSVRC2012-val-00045152.png
subject-05,1,389,1.37917399406433,car,car,0,0389_sty_s05_0_car_00_car-0110-ILSVRC2012-val-00006285.png
subject-05,1,390,1.15906190872192,bird,bird,0,0390_sty_s05_0_bird_00_bird-2405-ILSVRC2012-val-00007988.png
subject-05,1,391,0.736988067626953,car,truck,0,0391_sty_s05_0_truck_00_truck-0194-ILSVRC2012-val-00042924.png
subject-05,1,392,1.50011396408081,cat,cat,0,0392_sty_s05_0_cat_00_cat-0073-ILSVRC2012-val-00020140.png
subject-05,1,393,0.944725036621094,car,boat,0,0393_sty_s05_0_boat_00_boat-0218-ILSVRC2012-val-00015121.png
subject-05,1,394,0.730486869812012,keyboard,keyboard,0,0394_sty_s05_0_keyboard_00_keyboard-0067-ILSVRC2012-val-00013266.png
subject-05,1,395,1.13645911216736,cat,car,0,0395_sty_s05_0_car_00_car-0111-ILSVRC2012-val-00007125.png
subject-05,1,396,0.942061185836792,keyboard,truck,0,0396_sty_s05_0_truck_00_truck-0368-ILSVRC2012-val-00016410.png
subject-05,1,397,0.786074876785278,bottle,bottle,0,0397_sty_s05_0_bottle_00_bottle-0331-ILSVRC2012-val-00033990.png
subject-05,1,398,0.927395105361938,keyboard,truck,0,0398_sty_s05_0_truck_00_truck-0184-ILSVRC2012-val-00032494.png
subject-05,1,399,0.721426963806152,keyboard,elephant,0,0399_sty_s05_0_elephant_00_elephant-0074-ILSVRC2012-val-00022907.png
subject-05,1,400,0.803050994873047,oven,oven,0,0400_sty_s05_0_oven_00_oven-0033-ILSVRC2012-val-00031595.png
subject-05,1,401,0.720841884613037,cat,dog,0,0401_sty_s05_0_dog_00_dog-2391-ILSVRC2012-val-00039144.png
subject-05,1,402,1.12285304069519,keyboard,knife,0,0402_sty_s05_0_knife_00_knife-0003-ILSVRC2012-val-00001964.png
subject-05,1,403,0.938750982284546,bicycle,knife,0,0403_sty_s05_0_knife_00_knife-0001-ILSVRC2012-val-00000564.png
subject-05,1,404,0.902682781219482,elephant,elephant,0,0404_sty_s05_0_elephant_00_elephant-0047-ILSVRC2012-val-00048547.png
subject-05,1,405,0.914150953292847,chair,oven,0,0405_sty_s05_0_oven_00_oven-0022-ILSVRC2012-val-00020361.png
subject-05,1,406,1.04802298545837,oven,clock,0,0406_sty_s05_0_clock_00_clock-0062-ILSVRC2012-val-00014987.png
subject-05,1,407,0.669915199279785,clock,clock,0,0407_sty_s05_0_clock_00_clock-0144-ILSVRC2012-val-00041715.png
subject-05,1,408,0.815731048583984,bear,cat,0,0408_sty_s05_0_cat_00_cat-0202-ILSVRC2012-val-00001496.png
subject-05,1,409,0.8194420337677,boat,bicycle,0,0409_sty_s05_0_bicycle_00_bicycle-0005-ILSVRC2012-val-00005274.png
subject-05,1,410,1.47109413146973,dog,dog,0,0410_sty_s05_0_dog_00_dog-1881-ILSVRC2012-val-00028322.png
subject-05,1,411,0.911192178726196,cat,knife,0,0411_sty_s05_0_knife_00_knife-0022-ILSVRC2012-val-00019358.png
subject-05,1,412,0.934814929962158,bicycle,airplane,0,0412_sty_s05_0_airplane_00_airplane-0045-ILSVRC2012-val-00044253.png
subject-05,1,413,0.902772188186646,cat,dog,0,0413_sty_s05_0_dog_00_dog-2321-ILSVRC2012-val-00015164.png
subject-05,1,414,0.726556062698364,car,car,0,0414_sty_s05_0_car_00_car-0065-ILSVRC2012-val-00016613.png
subject-05,1,415,0.874587059020996,bird,bird,0,0415_sty_s05_0_bird_00_bird-1646-ILSVRC2012-val-00039398.png
subject-05,1,416,1.03815889358521,cat,bottle,0,0416_sty_s05_0_bottle_00_bottle-0005-ILSVRC2012-val-00004521.png
subject-05,1,417,0.90988302230835,clock,knife,0,0417_sty_s05_0_knife_00_knife-0010-ILSVRC2012-val-00009160.png
subject-05,1,418,1.21173000335693,bicycle,knife,0,0418_sty_s05_0_knife_00_knife-0033-ILSVRC2012-val-00028494.png
subject-05,1,419,0.701558113098145,elephant,elephant,0,0419_sty_s05_0_elephant_00_elephant-0088-ILSVRC2012-val-00036121.png
subject-05,1,420,1.09539699554443,cat,cat,0,0420_sty_s05_0_cat_00_cat-0298-ILSVRC2012-val-00042529.png
subject-05,1,421,0.77705979347229,bicycle,chair,0,0421_sty_s05_0_chair_00_chair-0033-ILSVRC2012-val-00031805.png
subject-05,1,422,0.881281137466431,clock,airplane,0,0422_sty_s05_0_airplane_00_airplane-0046-ILSVRC2012-val-00046862.png
subject-05,1,423,0.604984045028687,car,car,0,0423_sty_s05_0_car_00_car-0018-ILSVRC2012-val-00018138.png
subject-05,1,424,0.720810890197754,car,car,0,0424_sty_s05_0_car_00_car-0079-ILSVRC2012-val-00025028.png
subject-05,1,425,0.768738985061646,bottle,bottle,0,0425_sty_s05_0_bottle_00_bottle-0294-ILSVRC2012-val-00044222.png
subject-05,1,426,0.904471874237061,keyboard,knife,0,0426_sty_s05_0_knife_00_knife-0048-ILSVRC2012-val-00048029.png
subject-05,1,427,0.864321947097778,airplane,airplane,0,0427_sty_s05_0_airplane_00_airplane-0050-ILSVRC2012-val-00049097.png
subject-05,1,428,0.909789085388184,keyboard,keyboard,0,0428_sty_s05_0_keyboard_00_keyboard-0090-ILSVRC2012-val-00044306.png
subject-05,1,429,0.717842102050781,cat,chair,0,0429_sty_s05_0_chair_00_chair-0170-ILSVRC2012-val-00022051.png
subject-05,1,430,0.877465009689331,bear,bear,0,0430_sty_s05_0_bear_00_bear-0066-ILSVRC2012-val-00016621.png
subject-05,1,431,0.981292963027954,bicycle,bird,0,0431_sty_s05_0_bird_00_bird-0228-ILSVRC2012-val-00017712.png
subject-05,1,432,0.881001949310303,car,truck,0,0432_sty_s05_0_truck_00_truck-0142-ILSVRC2012-val-00043939.png
subject-05,1,433,0.834891080856323,elephant,elephant,0,0433_sty_s05_0_elephant_00_elephant-0024-ILSVRC2012-val-00022921.png
subject-05,1,434,0.676783800125122,bear,bear,0,0434_sty_s05_0_bear_00_bear-0021-ILSVRC2012-val-00031253.png
subject-05,1,435,0.93843412399292,elephant,chair,0,0435_sty_s05_0_chair_00_chair-0188-ILSVRC2012-val-00041720.png
subject-05,1,436,0.778410911560059,keyboard,keyboard,0,0436_sty_s05_0_keyboard_00_keyboard-0085-ILSVRC2012-val-00037048.png
subject-05,1,437,0.730028867721558,elephant,elephant,0,0437_sty_s05_0_elephant_00_elephant-0013-ILSVRC2012-val-00014219.png
subject-05,1,438,0.756278038024902,elephant,chair,0,0438_sty_s05_0_chair_00_chair-0181-ILSVRC2012-val-00033160.png
subject-05,1,439,0.924106121063232,elephant,knife,0,0439_sty_s05_0_knife_00_knife-0024-ILSVRC2012-val-00021297.png
subject-05,1,440,0.967656850814819,dog,dog,0,0440_sty_s05_0_dog_00_dog-2129-ILSVRC2012-val-00025424.png
subject-05,1,441,1.21331310272217,airplane,airplane,0,0441_sty_s05_0_airplane_00_airplane-0022-ILSVRC2012-val-00023781.png
subject-05,1,442,0.781125068664551,bicycle,airplane,0,0442_sty_s05_0_airplane_00_airplane-0039-ILSVRC2012-val-00037801.png
subject-05,1,443,0.73302698135376,boat,knife,0,0443_sty_s05_0_knife_00_knife-0029-ILSVRC2012-val-00026505.png
subject-05,1,444,0.75280499458313,boat,airplane,0,0444_sty_s05_0_airplane_00_airplane-0027-ILSVRC2012-val-00026859.png
subject-05,1,445,1.25256490707397,keyboard,oven,0,0445_sty_s05_0_oven_00_oven-0044-ILSVRC2012-val-00041974.png
subject-05,1,446,0.920341968536377,bird,bird,0,0446_sty_s05_0_bird_00_bird-1172-ILSVRC2012-val-00022442.png
subject-05,1,447,0.626275062561035,bicycle,bicycle,0,0447_sty_s05_0_bicycle_00_bicycle-0080-ILSVRC2012-val-00032009.png
subject-05,1,448,0.790117979049683,bicycle,chair,0,0448_sty_s05_0_chair_00_chair-0006-ILSVRC2012-val-00004679.png
subject-05,1,449,0.89779806137085,chair,keyboard,0,0449_sty_s05_0_keyboard_00_keyboard-0041-ILSVRC2012-val-00041349.png
subject-05,1,450,0.629753828048706,boat,boat,0,0450_sty_s05_0_boat_00_boat-0077-ILSVRC2012-val-00021948.png
subject-05,1,451,0.909404039382935,dog,cat,0,0451_sty_s05_0_cat_00_cat-0110-ILSVRC2012-val-00004411.png
subject-05,1,452,1.41316103935242,dog,bear,0,0452_sty_s05_0_bear_00_bear-0125-ILSVRC2012-val-00028222.png
subject-05,1,453,0.783361196517944,bird,bird,0,0453_sty_s05_0_bird_00_bird-0426-ILSVRC2012-val-00030017.png
subject-05,1,454,0.698847055435181,cat,knife,0,0454_sty_s05_0_knife_00_knife-0047-ILSVRC2012-val-00046361.png
subject-05,1,455,0.830703973770142,keyboard,keyboard,0,0455_sty_s05_0_keyboard_00_keyboard-0059-ILSVRC2012-val-00007856.png
subject-05,1,456,0.974581003189087,bird,boat,0,0456_sty_s05_0_boat_00_boat-0061-ILSVRC2012-val-00011292.png
subject-05,1,457,0.802303075790405,car,bicycle,0,0457_sty_s05_0_bicycle_00_bicycle-0044-ILSVRC2012-val-00040027.png
subject-05,1,458,1.00451803207397,bicycle,oven,0,0458_sty_s05_0_oven_00_oven-0050-ILSVRC2012-val-00049391.png
subject-05,1,459,1.50001907348633,bear,bear,0,0459_sty_s05_0_bear_00_bear-0180-ILSVRC2012-val-00034637.png
subject-05,1,460,0.911888122558594,cat,bicycle,0,0460_sty_s05_0_bicycle_00_bicycle-0070-ILSVRC2012-val-00020631.png
subject-05,1,461,1.44966983795166,boat,boat,0,0461_sty_s05_0_boat_00_boat-0165-ILSVRC2012-val-00014242.png
subject-05,1,462,0.735584020614624,keyboard,keyboard,0,0462_sty_s05_0_keyboard_00_keyboard-0023-ILSVRC2012-val-00023014.png
subject-05,1,463,0.903151988983154,keyboard,dog,0,0463_sty_s05_0_dog_00_dog-4443-ILSVRC2012-val-00045160.png
subject-05,1,464,0.843110084533691,keyboard,chair,0,0464_sty_s05_0_chair_00_chair-0051-ILSVRC2012-val-00001616.png
subject-05,1,465,0.856728076934814,cat,keyboard,0,0465_sty_s05_0_keyboard_00_keyboard-0063-ILSVRC2012-val-00009383.png
subject-05,1,466,0.872655153274536,chair,bottle,0,0466_sty_s05_0_bottle_00_bottle-0172-ILSVRC2012-val-00021707.png
subject-05,1,467,0.884384870529175,chair,chair,0,0467_sty_s05_0_chair_00_chair-0195-ILSVRC2012-val-00045464.png
subject-05,1,468,0.694144010543823,keyboard,keyboard,0,0468_sty_s05_0_keyboard_00_keyboard-0088-ILSVRC2012-val-00041420.png
subject-05,1,469,1.46611499786377,dog,bear,0,0469_sty_s05_0_bear_00_bear-0112-ILSVRC2012-val-00016340.png
subject-05,1,470,0.986236095428467,cat,clock,0,0470_sty_s05_0_clock_00_clock-0092-ILSVRC2012-val-00044168.png
subject-05,1,471,0.91578483581543,bicycle,bicycle,0,0471_sty_s05_0_bicycle_00_bicycle-0054-ILSVRC2012-val-00004147.png
subject-05,1,472,0.703423976898193,car,truck,0,0472_sty_s05_0_truck_00_truck-0274-ILSVRC2012-val-00021717.png
subject-05,1,473,0.881691932678223,oven,chair,0,0473_sty_s05_0_chair_00_chair-0045-ILSVRC2012-val-00044898.png
subject-05,1,474,1.50007796287537,dog,dog,0,0474_sty_s05_0_dog_00_dog-1613-ILSVRC2012-val-00015923.png
subject-05,1,475,0.834898948669434,cat,chair,0,0475_sty_s05_0_chair_00_chair-0039-ILSVRC2012-val-00041772.png
subject-05,1,476,0.908638954162598,bottle,bottle,0,0476_sty_s05_0_bottle_00_bottle-0086-ILSVRC2012-val-00036795.png
subject-05,1,477,0.916545152664185,bottle,elephant,0,0477_sty_s05_0_elephant_00_elephant-0062-ILSVRC2012-val-00010078.png
subject-05,1,478,0.710400104522705,cat,cat,0,0478_sty_s05_0_cat_00_cat-0236-ILSVRC2012-val-00031185.png
subject-05,1,479,1.12052488327026,bottle,bottle,0,0479_sty_s05_0_bottle_00_bottle-0325-ILSVRC2012-val-00027316.png
subject-05,1,480,0.946044921875,bottle,knife,0,0480_sty_s05_0_knife_00_knife-0045-ILSVRC2012-val-00041660.png
subject-05,1,481,0.712855100631714,bear,bear,0,0481_sty_s05_0_bear_00_bear-0078-ILSVRC2012-val-00030951.png
subject-05,1,482,0.934978008270264,bicycle,knife,0,0482_sty_s05_0_knife_00_knife-0009-ILSVRC2012-val-00008526.png
subject-05,1,483,0.888669967651367,dog,dog,0,0483_sty_s05_0_dog_00_dog-1735-ILSVRC2012-val-00031764.png
subject-05,1,484,0.876296997070312,elephant,oven,0,0484_sty_s05_0_oven_00_oven-0015-ILSVRC2012-val-00013982.png
subject-05,1,485,0.918072938919067,chair,chair,0,0485_sty_s05_0_chair_00_chair-0059-ILSVRC2012-val-00006022.png
subject-05,1,486,1.11004090309143,oven,clock,0,0486_sty_s05_0_clock_00_clock-0143-ILSVRC2012-val-00041547.png
subject-05,1,487,0.899705171585083,elephant,elephant,0,0487_sty_s05_0_elephant_00_elephant-0003-ILSVRC2012-val-00003280.png
subject-05,1,488,0.925685882568359,cat,cat,0,0488_sty_s05_0_cat_00_cat-0118-ILSVRC2012-val-00010218.png
subject-05,1,489,1.04734182357788,bear,bottle,0,0489_sty_s05_0_bottle_00_bottle-0126-ILSVRC2012-val-00022079.png
subject-05,1,490,0.715188980102539,boat,oven,0,0490_sty_s05_0_oven_00_oven-0047-ILSVRC2012-val-00047123.png
subject-05,1,491,0.797056913375854,bicycle,bicycle,0,0491_sty_s05_0_bicycle_00_bicycle-0048-ILSVRC2012-val-00045400.png
subject-05,1,492,0.920969009399414,keyboard,knife,0,0492_sty_s05_0_knife_00_knife-0008-ILSVRC2012-val-00006102.png
subject-05,1,493,0.712513208389282,bicycle,bicycle,0,0493_sty_s05_0_bicycle_00_bicycle-0015-ILSVRC2012-val-00015618.png
subject-05,1,494,0.876506805419922,clock,clock,0,0494_sty_s05_0_clock_00_clock-0034-ILSVRC2012-val-00026380.png
subject-05,1,495,0.626240968704224,boat,boat,0,0495_sty_s05_0_boat_00_boat-0195-ILSVRC2012-val-00042203.png
subject-05,1,496,0.996500015258789,car,car,0,0496_sty_s05_0_car_00_car-0004-ILSVRC2012-val-00006084.png
subject-05,1,497,0.706079006195068,keyboard,oven,0,0497_sty_s05_0_oven_00_oven-0031-ILSVRC2012-val-00029125.png
subject-05,1,498,0.715598821640015,dog,dog,0,0498_sty_s05_0_dog_00_dog-2889-ILSVRC2012-val-00043272.png
subject-05,1,499,1.13950490951538,bottle,bottle,0,0499_sty_s05_0_bottle_00_bottle-0107-ILSVRC2012-val-00008313.png
subject-05,1,500,0.971748113632202,bicycle,airplane,0,0500_sty_s05_0_airplane_00_airplane-0021-ILSVRC2012-val-00023316.png
subject-05,1,501,0.777179956436157,car,truck,0,0501_sty_s05_0_truck_00_truck-0213-ILSVRC2012-val-00016098.png
subject-05,1,502,0.812896013259888,keyboard,keyboard,0,0502_sty_s05_0_keyboard_00_keyboard-0016-ILSVRC2012-val-00014436.png
subject-05,1,503,1.18283700942993,bicycle,chair,0,0503_sty_s05_0_chair_00_chair-0124-ILSVRC2012-val-00022208.png
subject-05,1,504,0.718908786773682,boat,boat,0,0504_sty_s05_0_boat_00_boat-0217-ILSVRC2012-val-00015089.png
subject-05,1,505,0.754335165023804,truck,truck,0,0505_sty_s05_0_truck_00_truck-0018-ILSVRC2012-val-00016650.png
subject-05,1,506,0.788292169570923,clock,clock,0,0506_sty_s05_0_clock_00_clock-0142-ILSVRC2012-val-00041461.png
subject-05,1,507,1.00007891654968,car,truck,0,0507_sty_s05_0_truck_00_truck-0112-ILSVRC2012-val-00013466.png
subject-05,1,508,0.843962907791138,cat,bottle,0,0508_sty_s05_0_bottle_00_bottle-0204-ILSVRC2012-val-00002597.png
subject-05,1,509,0.780011177062988,dog,dog,0,0509_sty_s05_0_dog_00_dog-3044-ILSVRC2012-val-00034485.png
subject-05,1,510,0.611542940139771,keyboard,keyboard,0,0510_sty_s05_0_keyboard_00_keyboard-0020-ILSVRC2012-val-00020212.png
subject-05,1,511,0.671632051467896,cat,airplane,0,0511_sty_s05_0_airplane_00_airplane-0020-ILSVRC2012-val-00022975.png
subject-05,1,512,0.613177061080933,cat,cat,0,0512_sty_s05_0_cat_00_cat-0247-ILSVRC2012-val-00044374.png
subject-05,1,513,0.80889892578125,cat,knife,0,0513_sty_s05_0_knife_00_knife-0036-ILSVRC2012-val-00034599.png
subject-05,1,514,0.914625883102417,bear,bear,0,0514_sty_s05_0_bear_00_bear-0141-ILSVRC2012-val-00042320.png
subject-05,1,515,0.944911003112793,cat,car,0,0515_sty_s05_0_car_00_car-0012-ILSVRC2012-val-00014447.png
subject-05,1,516,0.764186143875122,cat,cat,0,0516_sty_s05_0_cat_00_cat-0162-ILSVRC2012-val-00012173.png
subject-05,1,517,0.81202507019043,bird,bird,0,0517_sty_s05_0_bird_00_bird-0532-ILSVRC2012-val-00028181.png
subject-05,1,518,1.12980699539185,airplane,airplane,0,0518_sty_s05_0_airplane_00_airplane-0005-ILSVRC2012-val-00003960.png
subject-05,1,519,0.939786911010742,chair,chair,0,0519_sty_s05_0_chair_00_chair-0133-ILSVRC2012-val-00033406.png
subject-05,1,520,0.765568971633911,bear,elephant,0,0520_sty_s05_0_elephant_00_elephant-0046-ILSVRC2012-val-00045103.png
subject-05,1,521,0.809303998947144,boat,chair,0,0521_sty_s05_0_chair_00_chair-0123-ILSVRC2012-val-00020924.png
subject-05,1,522,0.705533981323242,cat,cat,0,0522_sty_s05_0_cat_00_cat-0294-ILSVRC2012-val-00037633.png
subject-05,1,523,1.08095097541809,cat,clock,0,0523_sty_s05_0_clock_00_clock-0089-ILSVRC2012-val-00042911.png
subject-05,1,524,0.874930858612061,keyboard,keyboard,0,0524_sty_s05_0_keyboard_00_keyboard-0006-ILSVRC2012-val-00002499.png
subject-05,1,525,1.04280209541321,cat,oven,0,0525_sty_s05_0_oven_00_oven-0028-ILSVRC2012-val-00025917.png
subject-05,1,526,0.650329828262329,car,car,0,0526_sty_s05_0_car_00_car-0059-ILSVRC2012-val-00014010.png
subject-05,1,527,0.756200075149536,bear,dog,0,0527_sty_s05_0_dog_00_dog-0779-ILSVRC2012-val-00033666.png
subject-05,1,528,0.856368064880371,oven,dog,0,0528_sty_s05_0_dog_00_dog-2290-ILSVRC2012-val-00036919.png
subject-05,1,529,0.945847988128662,airplane,bird,0,0529_sty_s05_0_bird_00_bird-2184-ILSVRC2012-val-00034910.png
subject-05,1,530,0.79753303527832,keyboard,oven,0,0530_sty_s05_0_oven_00_oven-0043-ILSVRC2012-val-00041628.png
subject-05,1,531,0.839491844177246,chair,chair,0,0531_sty_s05_0_chair_00_chair-0030-ILSVRC2012-val-00026896.png
subject-05,1,532,0.589323997497559,truck,truck,0,0532_sty_s05_0_truck_00_truck-0120-ILSVRC2012-val-00018360.png
subject-05,1,533,0.919113159179688,elephant,elephant,0,0533_sty_s05_0_elephant_00_elephant-0085-ILSVRC2012-val-00033861.png
subject-05,1,534,1.04897403717041,keyboard,bottle,0,0534_sty_s05_0_bottle_00_bottle-0085-ILSVRC2012-val-00036422.png
subject-05,1,535,0.804843187332153,oven,oven,0,0535_sty_s05_0_oven_00_oven-0007-ILSVRC2012-val-00005817.png
subject-05,1,536,0.65251898765564,cat,keyboard,0,0536_sty_s05_0_keyboard_00_keyboard-0004-ILSVRC2012-val-00001089.png
subject-05,1,537,0.884245872497559,chair,cat,0,0537_sty_s05_0_cat_00_cat-0291-ILSVRC2012-val-00035821.png
subject-05,1,538,0.968323945999146,keyboard,bottle,0,0538_sty_s05_0_bottle_00_bottle-0057-ILSVRC2012-val-00005967.png
subject-05,1,539,0.66998291015625,keyboard,clock,0,0539_sty_s05_0_clock_00_clock-0052-ILSVRC2012-val-00003721.png
subject-05,1,540,1.23983883857727,car,car,0,0540_sty_s05_0_car_00_car-0058-ILSVRC2012-val-00010676.png
subject-05,1,541,1.245530128479,car,car,0,0541_sty_s05_0_car_00_car-0083-ILSVRC2012-val-00027508.png
subject-05,1,542,0.967344999313354,boat,boat,0,0542_sty_s05_0_boat_00_boat-0243-ILSVRC2012-val-00039131.png
subject-05,1,543,1.2655508518219,boat,boat,0,0543_sty_s05_0_boat_00_boat-0121-ILSVRC2012-val-00016970.png
subject-05,1,544,0.875226020812988,bicycle,boat,0,0544_sty_s05_0_boat_00_boat-0225-ILSVRC2012-val-00022075.png
subject-05,1,545,1.05098509788513,keyboard,oven,0,0545_sty_s05_0_oven_00_oven-0017-ILSVRC2012-val-00015514.png
subject-05,1,546,1.25672292709351,oven,chair,0,0546_sty_s05_0_chair_00_chair-0058-ILSVRC2012-val-00005926.png
subject-05,1,547,0.740634202957153,clock,clock,0,0547_sty_s05_0_clock_00_clock-0023-ILSVRC2012-val-00017973.png
subject-05,1,548,0.718193054199219,bicycle,bicycle,0,0548_sty_s05_0_bicycle_00_bicycle-0059-ILSVRC2012-val-00011329.png
subject-05,1,549,0.796255826950073,keyboard,car,0,0549_sty_s05_0_car_00_car-0028-ILSVRC2012-val-00027049.png
subject-05,1,550,0.801935911178589,airplane,chair,0,0550_sty_s05_0_chair_00_chair-0138-ILSVRC2012-val-00038750.png
subject-05,1,551,1.04603505134583,keyboard,keyboard,0,0551_sty_s05_0_keyboard_00_keyboard-0005-ILSVRC2012-val-00001687.png
subject-05,1,552,0.759797096252441,dog,dog,0,0552_sty_s05_0_dog_00_dog-5044-ILSVRC2012-val-00043270.png
subject-05,1,553,1.3053240776062,chair,chair,0,0553_sty_s05_0_chair_00_chair-0081-ILSVRC2012-val-00033069.png
subject-05,1,554,0.699056148529053,oven,oven,0,0554_sty_s05_0_oven_00_oven-0019-ILSVRC2012-val-00017971.png
subject-05,1,555,1.00881290435791,keyboard,keyboard,0,0555_sty_s05_0_keyboard_00_keyboard-0045-ILSVRC2012-val-00045039.png
subject-05,1,556,0.654773235321045,bear,bear,0,0556_sty_s05_0_bear_00_bear-0058-ILSVRC2012-val-00011726.png
subject-05,1,557,0.832611799240112,knife,knife,0,0557_sty_s05_0_knife_00_knife-0002-ILSVRC2012-val-00000582.png
subject-05,1,558,0.840254068374634,bear,bear,0,0558_sty_s05_0_bear_00_bear-0031-ILSVRC2012-val-00039777.png
subject-05,1,559,0.750243902206421,boat,airplane,0,0559_sty_s05_0_airplane_00_airplane-0014-ILSVRC2012-val-00016995.png
subject-05,1,560,1.18398284912109,chair,dog,0,0560_sty_s05_0_dog_00_dog-5267-ILSVRC2012-val-00013862.png
subject-05,1,561,0.705960988998413,car,car,0,0561_sty_s05_0_car_00_car-0066-ILSVRC2012-val-00018249.png
subject-05,1,562,0.85983419418335,bear,elephant,0,0562_sty_s05_0_elephant_00_elephant-0015-ILSVRC2012-val-00015520.png
subject-05,1,563,0.801291942596436,clock,knife,0,0563_sty_s05_0_knife_00_knife-0043-ILSVRC2012-val-00039826.png
subject-05,1,564,1.4772789478302,elephant,elephant,0,0564_sty_s05_0_elephant_00_elephant-0045-ILSVRC2012-val-00043193.png
subject-05,1,565,0.785032033920288,clock,clock,0,0565_sty_s05_0_clock_00_clock-0010-ILSVRC2012-val-00006858.png
subject-05,1,566,0.794792175292969,cat,oven,0,0566_sty_s05_0_oven_00_oven-0037-ILSVRC2012-val-00037357.png
subject-05,1,567,0.680756807327271,clock,bottle,0,0567_sty_s05_0_bottle_00_bottle-0037-ILSVRC2012-val-00036359.png
subject-05,1,568,1.16259098052979,chair,oven,0,0568_sty_s05_0_oven_00_oven-0003-ILSVRC2012-val-00002864.png
subject-05,1,569,1.21455502510071,bottle,bottle,0,0569_sty_s05_0_bottle_00_bottle-0334-ILSVRC2012-val-00036776.png
subject-05,1,570,0.726083993911743,keyboard,bird,0,0570_sty_s05_0_bird_00_bird-2118-ILSVRC2012-val-00021926.png
subject-05,1,571,0.744189023971558,clock,clock,0,0571_sty_s05_0_clock_00_clock-0032-ILSVRC2012-val-00024425.png
subject-05,1,572,0.841903924942017,keyboard,bird,0,0572_sty_s05_0_bird_00_bird-2178-ILSVRC2012-val-00026510.png
subject-05,1,573,0.807896852493286,dog,cat,0,0573_sty_s05_0_cat_00_cat-0034-ILSVRC2012-val-00033837.png
subject-05,1,574,0.709490060806274,keyboard,keyboard,0,0574_sty_s05_0_keyboard_00_keyboard-0080-ILSVRC2012-val-00028169.png
subject-05,1,575,0.855216979980469,oven,elephant,0,0575_sty_s05_0_elephant_00_elephant-0055-ILSVRC2012-val-00003538.png
subject-05,1,576,0.592854976654053,keyboard,airplane,0,0576_sty_s05_0_airplane_00_airplane-0048-ILSVRC2012-val-00047829.png
subject-05,1,577,0.670956134796143,keyboard,keyboard,0,0577_sty_s05_0_keyboard_00_keyboard-0084-ILSVRC2012-val-00036957.png
subject-05,1,578,0.567045211791992,keyboard,keyboard,0,0578_sty_s05_0_keyboard_00_keyboard-0047-ILSVRC2012-val-00046306.png
subject-05,1,579,0.830399990081787,airplane,airplane,0,0579_sty_s05_0_airplane_00_airplane-0003-ILSVRC2012-val-00001506.png
subject-05,1,580,0.654217004776001,keyboard,bear,0,0580_sty_s05_0_bear_00_bear-0139-ILSVRC2012-val-00041156.png
subject-05,1,581,0.769957065582275,cat,airplane,0,0581_sty_s05_0_airplane_00_airplane-0013-ILSVRC2012-val-00015636.png
subject-05,1,582,0.845842838287354,car,car,0,0582_sty_s05_0_car_00_car-0121-ILSVRC2012-val-00016638.png
subject-05,1,583,0.759588003158569,keyboard,bottle,0,0583_sty_s05_0_bottle_00_bottle-0205-ILSVRC2012-val-00003263.png
subject-05,1,584,0.735384941101074,bear,chair,0,0584_sty_s05_0_chair_00_chair-0040-ILSVRC2012-val-00042512.png
subject-05,1,585,1.2634289264679,bear,boat,0,0585_sty_s05_0_boat_00_boat-0079-ILSVRC2012-val-00025681.png
subject-05,1,586,0.839191913604736,elephant,bird,0,0586_sty_s05_0_bird_00_bird-1941-ILSVRC2012-val-00042829.png
subject-05,1,587,0.993006944656372,bicycle,boat,0,0587_sty_s05_0_boat_00_boat-0172-ILSVRC2012-val-00020894.png
subject-05,1,588,0.940587997436523,keyboard,chair,0,0588_sty_s05_0_chair_00_chair-0160-ILSVRC2012-val-00012040.png
subject-05,1,589,1.23450708389282,cat,boat,0,0589_sty_s05_0_boat_00_boat-0082-ILSVRC2012-val-00027612.png
subject-05,1,590,0.784672975540161,keyboard,oven,0,0590_sty_s05_0_oven_00_oven-0034-ILSVRC2012-val-00033304.png
subject-05,1,591,0.782157897949219,keyboard,knife,0,0591_sty_s05_0_knife_00_knife-0032-ILSVRC2012-val-00027812.png
subject-05,1,592,0.924175977706909,keyboard,knife,0,0592_sty_s05_0_knife_00_knife-0004-ILSVRC2012-val-00002212.png
subject-05,1,593,0.827791929244995,boat,cat,0,0593_sty_s05_0_cat_00_cat-0165-ILSVRC2012-val-00017325.png
subject-05,1,594,0.631757020950317,keyboard,knife,0,0594_sty_s05_0_knife_00_knife-0015-ILSVRC2012-val-00011081.png
subject-05,1,595,0.913614988327026,bear,bicycle,0,0595_sty_s05_0_bicycle_00_bicycle-0062-ILSVRC2012-val-00015867.png
subject-05,1,596,0.811259031295776,chair,elephant,0,0596_sty_s05_0_elephant_00_elephant-0090-ILSVRC2012-val-00037659.png
subject-05,1,597,0.995009899139404,elephant,elephant,0,0597_sty_s05_0_elephant_00_elephant-0022-ILSVRC2012-val-00022028.png
subject-05,1,598,1.09489393234253,oven,chair,0,0598_sty_s05_0_chair_00_chair-0199-ILSVRC2012-val-00048901.png
subject-05,1,599,0.780758142471313,cat,oven,0,0599_sty_s05_0_oven_00_oven-0020-ILSVRC2012-val-00019568.png
subject-05,1,600,0.598657131195068,car,car,0,0600_sty_s05_0_car_00_car-0117-ILSVRC2012-val-00010983.png
subject-05,1,601,0.760271072387695,car,car,0,0601_sty_s05_0_car_00_car-0032-ILSVRC2012-val-00030834.png
subject-05,1,602,0.796525001525879,bear,bear,0,0602_sty_s05_0_bear_00_bear-0184-ILSVRC2012-val-00038961.png
subject-05,1,603,0.915820837020874,keyboard,keyboard,0,0603_sty_s05_0_keyboard_00_keyboard-0070-ILSVRC2012-val-00015929.png
subject-05,1,604,0.755851984024048,dog,dog,0,0604_sty_s05_0_dog_00_dog-3802-ILSVRC2012-val-00003862.png
subject-05,1,605,0.835401773452759,car,car,0,0605_sty_s05_0_car_00_car-0095-ILSVRC2012-val-00041430.png
subject-05,1,606,1.06175017356873,bear,chair,0,0606_sty_s05_0_chair_00_chair-0183-ILSVRC2012-val-00035142.png
subject-05,1,607,0.657105922698975,cat,cat,0,0607_sty_s05_0_cat_00_cat-0243-ILSVRC2012-val-00040600.png
subject-05,1,608,0.886837959289551,boat,boat,0,0608_sty_s05_0_boat_00_boat-0153-ILSVRC2012-val-00002696.png
subject-05,1,609,0.774796009063721,bear,bear,0,0609_sty_s05_0_bear_00_bear-0003-ILSVRC2012-val-00003044.png
subject-05,1,610,0.688638925552368,cat,cat,0,0610_sty_s05_0_cat_00_cat-0113-ILSVRC2012-val-00007808.png
subject-05,1,611,0.668478012084961,bicycle,oven,0,0611_sty_s05_0_oven_00_oven-0021-ILSVRC2012-val-00019775.png
subject-05,1,612,0.736325979232788,oven,bottle,0,0612_sty_s05_0_bottle_00_bottle-0222-ILSVRC2012-val-00018657.png
subject-05,1,613,0.709962129592896,clock,clock,0,0613_sty_s05_0_clock_00_clock-0045-ILSVRC2012-val-00043497.png
subject-05,1,614,0.951758861541748,keyboard,clock,0,0614_sty_s05_0_clock_00_clock-0112-ILSVRC2012-val-00014635.png
subject-05,1,615,0.683778047561646,keyboard,oven,0,0615_sty_s05_0_oven_00_oven-0005-ILSVRC2012-val-00004125.png
subject-05,1,616,0.875585079193115,car,truck,0,0616_sty_s05_0_truck_00_truck-0358-ILSVRC2012-val-00010556.png
subject-05,1,617,0.771227836608887,boat,boat,0,0617_sty_s05_0_boat_00_boat-0066-ILSVRC2012-val-00013961.png
subject-05,1,618,1.01712512969971,keyboard,oven,0,0618_sty_s05_0_oven_00_oven-0010-ILSVRC2012-val-00010367.png
subject-05,1,619,1.00496697425842,bear,bird,0,0619_sty_s05_0_bird_00_bird-2221-ILSVRC2012-val-00014977.png
subject-05,1,620,0.72258996963501,cat,airplane,0,0620_sty_s05_0_airplane_00_airplane-0024-ILSVRC2012-val-00024108.png
subject-05,1,621,1.15252184867859,cat,airplane,0,0621_sty_s05_0_airplane_00_airplane-0042-ILSVRC2012-val-00040547.png
subject-05,1,622,0.640356063842773,clock,clock,0,0622_sty_s05_0_clock_00_clock-0129-ILSVRC2012-val-00031861.png
subject-05,1,623,0.65818190574646,cat,cat,0,0623_sty_s05_0_cat_00_cat-0150-ILSVRC2012-val-00049996.png
subject-05,1,624,1.12198710441589,bear,elephant,0,0624_sty_s05_0_elephant_00_elephant-0080-ILSVRC2012-val-00030840.png
subject-05,1,625,0.63174295425415,bird,bird,0,0625_sty_s05_0_bird_00_bird-1394-ILSVRC2012-val-00040051.png
subject-05,1,626,0.939604043960571,truck,car,0,0626_sty_s05_0_car_00_car-0082-ILSVRC2012-val-00027293.png
subject-05,1,627,1.23534202575684,bicycle,bicycle,0,0627_sty_s05_0_bicycle_00_bicycle-0039-ILSVRC2012-val-00037292.png
subject-05,1,628,0.929127931594849,bear,boat,0,0628_sty_s05_0_boat_00_boat-0042-ILSVRC2012-val-00039945.png
subject-05,1,629,1.108971118927,dog,dog,0,0629_sty_s05_0_dog_00_dog-1178-ILSVRC2012-val-00022137.png
subject-05,1,630,0.590748071670532,clock,clock,0,0630_sty_s05_0_clock_00_clock-0145-ILSVRC2012-val-00044685.png
subject-05,1,631,0.786942958831787,bird,bird,0,0631_sty_s05_0_bird_00_bird-0701-ILSVRC2012-val-00000075.png
subject-05,1,632,1.49842810630798,chair,bottle,0,0632_sty_s05_0_bottle_00_bottle-0189-ILSVRC2012-val-00040070.png
subject-05,1,633,0.972362995147705,bicycle,truck,0,0633_sty_s05_0_truck_00_truck-0196-ILSVRC2012-val-00044805.png
subject-05,1,634,0.758414030075073,bicycle,bicycle,0,0634_sty_s05_0_bicycle_00_bicycle-0085-ILSVRC2012-val-00037438.png
subject-05,1,635,0.709904909133911,clock,clock,0,0635_sty_s05_0_clock_00_clock-0048-ILSVRC2012-val-00044752.png
subject-05,1,636,0.863542079925537,boat,elephant,0,0636_sty_s05_0_elephant_00_elephant-0026-ILSVRC2012-val-00023589.png
subject-05,1,637,0.813817977905273,cat,bird,0,0637_sty_s05_0_bird_00_bird-1865-ILSVRC2012-val-00009672.png
subject-05,1,638,0.92768406867981,bottle,dog,0,0638_sty_s05_0_dog_00_dog-4070-ILSVRC2012-val-00021155.png
subject-05,1,639,0.83700704574585,elephant,elephant,0,0639_sty_s05_0_elephant_00_elephant-0002-ILSVRC2012-val-00001850.png
subject-05,1,640,0.845082998275757,knife,knife,0,0640_sty_s05_0_knife_00_knife-0038-ILSVRC2012-val-00037845.png
subject-05,1,641,0.820998907089233,keyboard,keyboard,0,0641_sty_s05_0_keyboard_00_keyboard-0010-ILSVRC2012-val-00007754.png
subject-05,1,642,0.812721014022827,bicycle,bottle,0,0642_sty_s05_0_bottle_00_bottle-0153-ILSVRC2012-val-00003318.png
subject-05,1,643,0.868514060974121,bear,boat,0,0643_sty_s05_0_boat_00_boat-0098-ILSVRC2012-val-00047961.png
subject-05,1,644,0.928424119949341,cat,knife,0,0644_sty_s05_0_knife_00_knife-0041-ILSVRC2012-val-00038966.png
subject-05,1,645,0.818333864212036,clock,clock,0,0645_sty_s05_0_clock_00_clock-0106-ILSVRC2012-val-00009413.png
subject-05,1,646,0.92425799369812,car,car,0,0646_sty_s05_0_car_00_car-0005-ILSVRC2012-val-00006220.png
subject-05,1,647,0.838258981704712,clock,clock,0,0647_sty_s05_0_clock_00_clock-0076-ILSVRC2012-val-00028203.png
subject-05,1,648,0.865521907806396,keyboard,airplane,0,0648_sty_s05_0_airplane_00_airplane-0029-ILSVRC2012-val-00030319.png
subject-05,1,649,0.895661115646362,keyboard,bicycle,0,0649_sty_s05_0_bicycle_00_bicycle-0032-ILSVRC2012-val-00030070.png
subject-05,1,650,0.939449071884155,elephant,elephant,0,0650_sty_s05_0_elephant_00_elephant-0081-ILSVRC2012-val-00032404.png
subject-05,1,651,1.00919198989868,cat,bottle,0,0651_sty_s05_0_bottle_00_bottle-0138-ILSVRC2012-val-00032559.png
subject-05,1,652,0.83699893951416,cat,bottle,0,0652_sty_s05_0_bottle_00_bottle-0347-ILSVRC2012-val-00048539.png
subject-05,1,653,0.910820007324219,keyboard,oven,0,0653_sty_s05_0_oven_00_oven-0008-ILSVRC2012-val-00007052.png
subject-05,1,654,0.73062801361084,elephant,elephant,0,0654_sty_s05_0_elephant_00_elephant-0058-ILSVRC2012-val-00004990.png
subject-05,1,655,0.814419984817505,clock,truck,0,0655_sty_s05_0_truck_00_truck-0134-ILSVRC2012-val-00035864.png
subject-05,1,656,0.772113084793091,clock,bear,0,0656_sty_s05_0_bear_00_bear-0043-ILSVRC2012-val-00046763.png
subject-05,1,657,0.70809006690979,cat,boat,0,0657_sty_s05_0_boat_00_boat-0223-ILSVRC2012-val-00020544.png
subject-05,1,658,0.653791904449463,keyboard,keyboard,0,0658_sty_s05_0_keyboard_00_keyboard-0086-ILSVRC2012-val-00037986.png
subject-05,1,659,1.06181311607361,keyboard,bird,0,0659_sty_s05_0_bird_00_bird-1198-ILSVRC2012-val-00048142.png
subject-05,1,660,0.989489078521729,bird,bird,0,0660_sty_s05_0_bird_00_bird-0238-ILSVRC2012-val-00030657.png
subject-05,1,661,0.739280939102173,airplane,airplane,0,0661_sty_s05_0_airplane_00_airplane-0049-ILSVRC2012-val-00048111.png
subject-05,1,662,1.00317192077637,keyboard,boat,0,0662_sty_s05_0_boat_00_boat-0215-ILSVRC2012-val-00013403.png
subject-05,1,663,0.790915012359619,car,truck,0,0663_sty_s05_0_truck_00_truck-0107-ILSVRC2012-val-00007374.png
subject-05,1,664,0.79104208946228,bicycle,bicycle,0,0664_sty_s05_0_bicycle_00_bicycle-0050-ILSVRC2012-val-00049382.png
subject-05,1,665,0.780725955963135,bird,boat,0,0665_sty_s05_0_boat_00_boat-0169-ILSVRC2012-val-00019970.png
subject-05,1,666,1.41235113143921,elephant,truck,0,0666_sty_s05_0_truck_00_truck-0330-ILSVRC2012-val-00031256.png
subject-05,1,667,0.780055999755859,bird,bird,0,0667_sty_s05_0_bird_00_bird-2248-ILSVRC2012-val-00044992.png
subject-05,1,668,0.729928970336914,keyboard,chair,0,0668_sty_s05_0_chair_00_chair-0150-ILSVRC2012-val-00048622.png
subject-05,1,669,0.929684162139893,oven,bottle,0,0669_sty_s05_0_bottle_00_bottle-0002-ILSVRC2012-val-00002968.png
subject-05,1,670,0.645646095275879,car,car,0,0670_sty_s05_0_car_00_car-0103-ILSVRC2012-val-00003478.png
subject-05,1,671,1.21367001533508,oven,elephant,0,0671_sty_s05_0_elephant_00_elephant-0091-ILSVRC2012-val-00038578.png
subject-05,1,672,0.793024063110352,elephant,elephant,0,0672_sty_s05_0_elephant_00_elephant-0099-ILSVRC2012-val-00048108.png
subject-05,1,673,1.07284998893738,bear,bear,0,0673_sty_s05_0_bear_00_bear-0131-ILSVRC2012-val-00031877.png
subject-05,1,674,0.626786947250366,clock,clock,0,0674_sty_s05_0_clock_00_clock-0108-ILSVRC2012-val-00011957.png
subject-05,1,675,0.91253399848938,elephant,bear,0,0675_sty_s05_0_bear_00_bear-0073-ILSVRC2012-val-00024289.png
subject-05,1,676,1.10438990592957,airplane,boat,0,0676_sty_s05_0_boat_00_boat-0142-ILSVRC2012-val-00040889.png
subject-05,1,677,0.982166051864624,cat,bicycle,0,0677_sty_s05_0_bicycle_00_bicycle-0081-ILSVRC2012-val-00032967.png
subject-05,1,678,0.654009103775024,keyboard,keyboard,0,0678_sty_s05_0_keyboard_00_keyboard-0029-ILSVRC2012-val-00027307.png
subject-05,1,679,0.647969961166382,oven,knife,0,0679_sty_s05_0_knife_00_knife-0039-ILSVRC2012-val-00038320.png
subject-05,1,680,0.635807991027832,cat,dog,0,0680_sty_s05_0_dog_00_dog-2539-ILSVRC2012-val-00041157.png
subject-05,1,681,1.39944982528687,truck,truck,0,0681_sty_s05_0_truck_00_truck-0315-ILSVRC2012-val-00021882.png
subject-05,1,682,0.919423818588257,dog,oven,0,0682_sty_s05_0_oven_00_oven-0023-ILSVRC2012-val-00020809.png
subject-05,1,683,0.743030071258545,bird,bird,0,0683_sty_s05_0_bird_00_bird-0754-ILSVRC2012-val-00002846.png
subject-05,1,684,1.05501818656921,bottle,bottle,0,0684_sty_s05_0_bottle_00_bottle-0233-ILSVRC2012-val-00031504.png
subject-05,1,685,0.770657062530518,bird,bird,0,0685_sty_s05_0_bird_00_bird-0522-ILSVRC2012-val-00020730.png
subject-05,1,686,0.722684144973755,bicycle,bicycle,0,0686_sty_s05_0_bicycle_00_bicycle-0064-ILSVRC2012-val-00017103.png
subject-05,1,687,0.726310968399048,cat,clock,0,0687_sty_s05_0_clock_00_clock-0130-ILSVRC2012-val-00032136.png
subject-05,1,688,1.50014686584473,airplane,airplane,0,0688_sty_s05_0_airplane_00_airplane-0012-ILSVRC2012-val-00015498.png
subject-05,1,689,1.40207481384277,airplane,boat,0,0689_sty_s05_0_boat_00_boat-0235-ILSVRC2012-val-00032371.png
subject-05,1,690,0.799941062927246,clock,bird,0,0690_sty_s05_0_bird_00_bird-1913-ILSVRC2012-val-00012475.png
subject-05,1,691,0.717574119567871,clock,clock,0,0691_sty_s05_0_clock_00_clock-0107-ILSVRC2012-val-00010270.png
subject-05,1,692,0.971341848373413,clock,knife,0,0692_sty_s05_0_knife_00_knife-0034-ILSVRC2012-val-00029248.png
subject-05,1,693,0.873523950576782,car,car,0,0693_sty_s05_0_car_00_car-0134-ILSVRC2012-val-00032944.png
subject-05,1,694,0.925064086914062,bird,bird,0,0694_sty_s05_0_bird_00_bird-0122-ILSVRC2012-val-00019236.png
subject-05,1,695,0.84490180015564,cat,bottle,0,0695_sty_s05_0_bottle_00_bottle-0032-ILSVRC2012-val-00034979.png
subject-05,1,696,0.750509977340698,cat,car,0,0696_sty_s05_0_car_00_car-0052-ILSVRC2012-val-00004387.png
subject-05,1,697,0.630335807800293,bear,bear,0,0697_sty_s05_0_bear_00_bear-0091-ILSVRC2012-val-00041813.png
subject-05,1,698,0.712382078170776,car,car,0,0698_sty_s05_0_car_00_car-0087-ILSVRC2012-val-00031558.png
subject-05,1,699,0.772174119949341,cat,keyboard,0,0699_sty_s05_0_keyboard_00_keyboard-0014-ILSVRC2012-val-00012432.png
subject-05,1,700,1.04394221305847,boat,airplane,0,0700_sty_s05_0_airplane_00_airplane-0023-ILSVRC2012-val-00023863.png
subject-05,1,701,0.843653917312622,bottle,bottle,0,0701_sty_s05_0_bottle_00_bottle-0283-ILSVRC2012-val-00036864.png
subject-05,1,702,0.815671920776367,airplane,airplane,0,0702_sty_s05_0_airplane_00_airplane-0036-ILSVRC2012-val-00034342.png
subject-05,1,703,1.03169202804565,oven,oven,0,0703_sty_s05_0_oven_00_oven-0002-ILSVRC2012-val-00002517.png
subject-05,1,704,0.825307846069336,oven,chair,0,0704_sty_s05_0_chair_00_chair-0119-ILSVRC2012-val-00018206.png
subject-05,1,705,0.924804925918579,bear,bear,0,0705_sty_s05_0_bear_00_bear-0191-ILSVRC2012-val-00044349.png
subject-05,1,706,0.812872886657715,cat,oven,0,0706_sty_s05_0_oven_00_oven-0048-ILSVRC2012-val-00048271.png
subject-05,1,707,0.802661895751953,dog,dog,0,0707_sty_s05_0_dog_00_dog-1538-ILSVRC2012-val-00038167.png
subject-05,1,708,0.884544134140015,elephant,elephant,0,0708_sty_s05_0_elephant_00_elephant-0009-ILSVRC2012-val-00010713.png
subject-05,1,709,0.694322109222412,bottle,truck,0,0709_sty_s05_0_truck_00_truck-0103-ILSVRC2012-val-00004552.png
subject-05,1,710,0.956440925598145,bicycle,bicycle,0,0710_sty_s05_0_bicycle_00_bicycle-0007-ILSVRC2012-val-00006395.png
subject-05,1,711,0.730211973190308,cat,oven,0,0711_sty_s05_0_oven_00_oven-0026-ILSVRC2012-val-00022397.png
subject-05,1,712,0.677875995635986,cat,bird,0,0712_sty_s05_0_bird_00_bird-2082-ILSVRC2012-val-00036457.png
subject-05,1,713,0.783425092697144,car,car,0,0713_sty_s05_0_car_00_car-0001-ILSVRC2012-val-00000175.png
subject-05,1,714,0.741437911987305,bicycle,bicycle,0,0714_sty_s05_0_bicycle_00_bicycle-0094-ILSVRC2012-val-00044080.png
subject-05,1,715,0.749130010604858,elephant,elephant,0,0715_sty_s05_0_elephant_00_elephant-0021-ILSVRC2012-val-00021618.png
subject-05,1,716,0.932969808578491,bird,bird,0,0716_sty_s05_0_bird_00_bird-0486-ILSVRC2012-val-00037420.png
subject-05,1,717,0.810812950134277,clock,clock,0,0717_sty_s05_0_clock_00_clock-0039-ILSVRC2012-val-00033429.png
subject-05,1,718,0.502504110336304,clock,clock,0,0718_sty_s05_0_clock_00_clock-0001-ILSVRC2012-val-00001011.png
subject-05,1,719,0.564476013183594,keyboard,keyboard,0,0719_sty_s05_0_keyboard_00_keyboard-0057-ILSVRC2012-val-00005863.png
subject-05,1,720,0.750072956085205,bicycle,bottle,0,0720_sty_s05_0_bottle_00_bottle-0180-ILSVRC2012-val-00027613.png
subject-05,1,721,1.08021998405457,airplane,airplane,0,0721_sty_s05_0_airplane_00_airplane-0004-ILSVRC2012-val-00001952.png
subject-05,1,722,0.851745843887329,airplane,airplane,0,0722_sty_s05_0_airplane_00_airplane-0035-ILSVRC2012-val-00033920.png
subject-05,1,723,1.50006198883057,bear,bear,0,0723_sty_s05_0_bear_00_bear-0071-ILSVRC2012-val-00020050.png
subject-05,1,724,0.689477920532227,clock,clock,0,0724_sty_s05_0_clock_00_clock-0086-ILSVRC2012-val-00041483.png
subject-05,1,725,0.725162029266357,bear,bear,0,0725_sty_s05_0_bear_00_bear-0149-ILSVRC2012-val-00048105.png
subject-05,1,726,0.799040079116821,elephant,elephant,0,0726_sty_s05_0_elephant_00_elephant-0041-ILSVRC2012-val-00038720.png
subject-05,1,727,0.745007991790771,cat,truck,0,0727_sty_s05_0_truck_00_truck-0373-ILSVRC2012-val-00019053.png
subject-05,1,728,0.714690923690796,elephant,elephant,0,0728_sty_s05_0_elephant_00_elephant-0043-ILSVRC2012-val-00040923.png
subject-05,1,729,1.18850302696228,bear,clock,0,0729_sty_s05_0_clock_00_clock-0084-ILSVRC2012-val-00034426.png
subject-05,1,730,0.800585985183716,clock,bottle,0,0730_sty_s05_0_bottle_00_bottle-0108-ILSVRC2012-val-00008437.png
subject-05,1,731,0.758220195770264,airplane,airplane,0,0731_sty_s05_0_airplane_00_airplane-0033-ILSVRC2012-val-00033161.png
subject-05,1,732,0.909972190856934,bottle,bottle,0,0732_sty_s05_0_bottle_00_bottle-0224-ILSVRC2012-val-00020102.png
subject-05,1,733,0.767681121826172,bicycle,oven,0,0733_sty_s05_0_oven_00_oven-0018-ILSVRC2012-val-00017795.png
subject-05,1,734,0.763521194458008,car,car,0,0734_sty_s05_0_car_00_car-0030-ILSVRC2012-val-00029057.png
subject-05,1,735,0.775468111038208,boat,truck,0,0735_sty_s05_0_truck_00_truck-0225-ILSVRC2012-val-00026079.png
subject-05,1,736,0.801175117492676,airplane,airplane,0,0736_sty_s05_0_airplane_00_airplane-0015-ILSVRC2012-val-00018616.png
subject-05,1,737,1.45089793205261,car,truck,0,0737_sty_s05_0_truck_00_truck-0022-ILSVRC2012-val-00023423.png
subject-05,1,738,0.949022054672241,airplane,boat,0,0738_sty_s05_0_boat_00_boat-0236-ILSVRC2012-val-00032584.png
subject-05,1,739,0.762894153594971,car,bicycle,0,0739_sty_s05_0_bicycle_00_bicycle-0038-ILSVRC2012-val-00036903.png
subject-05,1,740,0.860620975494385,airplane,boat,0,0740_sty_s05_0_boat_00_boat-0196-ILSVRC2012-val-00042675.png
subject-05,1,741,0.756455183029175,bicycle,bird,0,0741_sty_s05_0_bird_00_bird-1861-ILSVRC2012-val-00007811.png
subject-05,1,742,0.733935832977295,bicycle,oven,0,0742_sty_s05_0_oven_00_oven-0001-ILSVRC2012-val-00001625.png
subject-05,1,743,1.02968788146973,bicycle,keyboard,0,0743_sty_s05_0_keyboard_00_keyboard-0056-ILSVRC2012-val-00003296.png
subject-05,1,744,0.873831033706665,oven,oven,0,0744_sty_s05_0_oven_00_oven-0041-ILSVRC2012-val-00039789.png
subject-05,1,745,0.803516864776611,elephant,elephant,0,0745_sty_s05_0_elephant_00_elephant-0051-ILSVRC2012-val-00001177.png
subject-05,1,746,0.801322937011719,bicycle,bicycle,0,0746_sty_s05_0_bicycle_00_bicycle-0047-ILSVRC2012-val-00043435.png
subject-05,1,747,0.820935964584351,keyboard,keyboard,0,0747_sty_s05_0_keyboard_00_keyboard-0054-ILSVRC2012-val-00001100.png
subject-05,1,748,0.850777149200439,bottle,bottle,0,0748_sty_s05_0_bottle_00_bottle-0243-ILSVRC2012-val-00040157.png
subject-05,1,749,0.796733140945435,truck,truck,0,0749_sty_s05_0_truck_00_truck-0070-ILSVRC2012-val-00021253.png
subject-05,1,750,0.962618112564087,car,airplane,0,0750_sty_s05_0_airplane_00_airplane-0002-ILSVRC2012-val-00001390.png
subject-05,1,751,0.824228048324585,bicycle,dog,0,0751_sty_s05_0_dog_00_dog-3771-ILSVRC2012-val-00020678.png
subject-05,1,752,1.02412295341492,truck,keyboard,0,0752_sty_s05_0_keyboard_00_keyboard-0030-ILSVRC2012-val-00029239.png
subject-05,1,753,0.744107007980347,car,truck,0,0753_sty_s05_0_truck_00_truck-0284-ILSVRC2012-val-00030765.png
subject-05,1,754,0.62570595741272,keyboard,airplane,0,0754_sty_s05_0_airplane_00_airplane-0040-ILSVRC2012-val-00039213.png
subject-05,1,755,1.0954749584198,cat,cat,0,0755_sty_s05_0_cat_00_cat-0270-ILSVRC2012-val-00017189.png
subject-05,1,756,0.687248945236206,dog,dog,0,0756_sty_s05_0_dog_00_dog-3917-ILSVRC2012-val-00016908.png
subject-05,1,757,0.623094081878662,keyboard,keyboard,0,0757_sty_s05_0_keyboard_00_keyboard-0055-ILSVRC2012-val-00001330.png
subject-05,1,758,0.66083812713623,cat,cat,0,0758_sty_s05_0_cat_00_cat-0082-ILSVRC2012-val-00025723.png
subject-05,1,759,1.07286095619202,elephant,bear,0,0759_sty_s05_0_bear_00_bear-0005-ILSVRC2012-val-00006703.png
subject-05,1,760,0.742441892623901,clock,clock,0,0760_sty_s05_0_clock_00_clock-0029-ILSVRC2012-val-00022719.png
subject-05,1,761,0.690154075622559,cat,cat,0,0761_sty_s05_0_cat_00_cat-0258-ILSVRC2012-val-00006112.png
subject-05,1,762,0.888283014297485,bear,boat,0,0762_sty_s05_0_boat_00_boat-0070-ILSVRC2012-val-00017026.png
subject-05,1,763,0.76214599609375,keyboard,airplane,0,0763_sty_s05_0_airplane_00_airplane-0019-ILSVRC2012-val-00022532.png
subject-05,1,764,1.46194410324097,bicycle,bicycle,0,0764_sty_s05_0_bicycle_00_bicycle-0008-ILSVRC2012-val-00008007.png
subject-05,1,765,0.833588123321533,cat,dog,0,0765_sty_s05_0_dog_00_dog-2253-ILSVRC2012-val-00003731.png
subject-05,1,766,0.925692081451416,airplane,bird,0,0766_sty_s05_0_bird_00_bird-0624-ILSVRC2012-val-00024514.png
subject-05,1,767,0.747334957122803,cat,chair,0,0767_sty_s05_0_chair_00_chair-0050-ILSVRC2012-val-00049050.png
subject-05,1,768,0.771265029907227,dog,dog,0,0768_sty_s05_0_dog_00_dog-3425-ILSVRC2012-val-00027086.png
subject-05,1,769,0.6889488697052,cat,oven,0,0769_sty_s05_0_oven_00_oven-0032-ILSVRC2012-val-00029341.png
subject-05,1,770,0.776975154876709,boat,keyboard,0,0770_sty_s05_0_keyboard_00_keyboard-0081-ILSVRC2012-val-00028754.png
subject-05,1,771,0.788511991500854,airplane,airplane,0,0771_sty_s05_0_airplane_00_airplane-0011-ILSVRC2012-val-00014425.png
subject-05,1,772,0.878268003463745,dog,bottle,0,0772_sty_s05_0_bottle_00_bottle-0022-ILSVRC2012-val-00022396.png
subject-05,1,773,0.854413986206055,cat,truck,0,0773_sty_s05_0_truck_00_truck-0034-ILSVRC2012-val-00034340.png
subject-05,1,774,1.50014090538025,bear,knife,0,0774_sty_s05_0_knife_00_knife-0040-ILSVRC2012-val-00038348.png
subject-05,1,775,1.00566697120667,airplane,boat,0,0775_sty_s05_0_boat_00_boat-0111-ILSVRC2012-val-00009680.png
subject-05,1,776,0.691717863082886,dog,dog,0,0776_sty_s05_0_dog_00_dog-0220-ILSVRC2012-val-00017568.png
subject-05,1,777,0.697368144989014,clock,clock,0,0777_sty_s05_0_clock_00_clock-0018-ILSVRC2012-val-00015871.png
subject-05,1,778,0.679583072662354,car,car,0,0778_sty_s05_0_car_00_car-0091-ILSVRC2012-val-00036091.png
subject-05,1,779,0.975008010864258,car,car,0,0779_sty_s05_0_car_00_car-0145-ILSVRC2012-val-00041626.png
subject-05,1,780,0.816946029663086,cat,boat,0,0780_sty_s05_0_boat_00_boat-0170-ILSVRC2012-val-00020353.png
subject-05,1,781,0.702594041824341,car,airplane,0,0781_sty_s05_0_airplane_00_airplane-0044-ILSVRC2012-val-00043242.png
subject-05,1,782,0.662365913391113,bicycle,bicycle,0,0782_sty_s05_0_bicycle_00_bicycle-0018-ILSVRC2012-val-00018975.png
subject-05,1,783,1.47222995758057,cat,cat,0,0783_sty_s05_0_cat_00_cat-0264-ILSVRC2012-val-00010823.png
subject-05,1,784,0.810059070587158,elephant,elephant,0,0784_sty_s05_0_elephant_00_elephant-0010-ILSVRC2012-val-00011002.png
subject-05,1,785,0.661776065826416,car,chair,0,0785_sty_s05_0_chair_00_chair-0087-ILSVRC2012-val-00037905.png
subject-05,1,786,0.731686115264893,cat,cat,0,0786_sty_s05_0_cat_00_cat-0123-ILSVRC2012-val-00014813.png
subject-05,1,787,0.9775230884552,elephant,elephant,0,0787_sty_s05_0_elephant_00_elephant-0028-ILSVRC2012-val-00025237.png
subject-05,1,788,0.77927303314209,car,truck,0,0788_sty_s05_0_truck_00_truck-0329-ILSVRC2012-val-00029413.png
subject-05,1,789,0.679378032684326,car,truck,0,0789_sty_s05_0_truck_00_truck-0335-ILSVRC2012-val-00039723.png
subject-05,1,790,1.24896192550659,car,clock,0,0790_sty_s05_0_clock_00_clock-0073-ILSVRC2012-val-00026298.png
subject-05,1,791,0.812736988067627,bicycle,bicycle,0,0791_sty_s05_0_bicycle_00_bicycle-0013-ILSVRC2012-val-00012667.png
subject-05,1,792,0.886538982391357,bear,knife,0,0792_sty_s05_0_knife_00_knife-0020-ILSVRC2012-val-00015679.png
subject-05,1,793,0.626796007156372,clock,clock,0,0793_sty_s05_0_clock_00_clock-0008-ILSVRC2012-val-00005558.png
subject-05,1,794,0.674169063568115,bird,bird,0,0794_sty_s05_0_bird_00_bird-0045-ILSVRC2012-val-00045547.png
subject-05,1,795,0.97600793838501,bird,bird,0,0795_sty_s05_0_bird_00_bird-0513-ILSVRC2012-val-00013223.png
subject-05,1,796,0.84975790977478,dog,dog,0,0796_sty_s05_0_dog_00_dog-2368-ILSVRC2012-val-00011895.png
subject-05,1,797,0.847614049911499,airplane,airplane,0,0797_sty_s05_0_airplane_00_airplane-0007-ILSVRC2012-val-00009537.png
subject-05,1,798,0.907418012619019,dog,clock,0,0798_sty_s05_0_clock_00_clock-0063-ILSVRC2012-val-00015628.png
subject-05,1,799,0.627315998077393,airplane,airplane,0,0799_sty_s05_0_airplane_00_airplane-0016-ILSVRC2012-val-00018685.png
subject-05,1,800,0.610960960388184,car,truck,0,0800_sty_s05_0_truck_00_truck-0265-ILSVRC2012-val-00010166.png
