subj,session,trial,rt,object_response,category,condition,imagename
subject-01,1,1,0.701272964477539,bicycle,bicycle,0,0001_sty_s01_0_bicycle_00_bicycle-0011-ILSVRC2012-val-00011821.png
subject-01,1,2,1.00124216079712,bicycle,bicycle,0,0002_sty_s01_0_bicycle_00_bicycle-0033-ILSVRC2012-val-00031498.png
subject-01,1,3,1.00337815284729,bear,boat,0,0003_sty_s01_0_boat_00_boat-0098-ILSVRC2012-val-00047961.png
subject-01,1,4,0.914700984954834,truck,truck,0,0004_sty_s01_0_truck_00_truck-0070-ILSVRC2012-val-00021253.png
subject-01,1,5,0.484541893005371,clock,clock,0,0005_sty_s01_0_clock_00_clock-0107-ILSVRC2012-val-00010270.png
subject-01,1,6,1.05477499961853,keyboard,bicycle,0,0006_sty_s01_0_bicycle_00_bicycle-0032-ILSVRC2012-val-00030070.png
subject-01,1,7,0.512071847915649,cat,cat,0,0007_sty_s01_0_cat_00_cat-0133-ILSVRC2012-val-00023898.png
subject-01,1,8,0.645993947982788,keyboard,keyboard,0,0008_sty_s01_0_keyboard_00_keyboard-0029-ILSVRC2012-val-00027307.png
subject-01,1,9,0.61384391784668,cat,clock,0,0009_sty_s01_0_clock_00_clock-0082-ILSVRC2012-val-00033627.png
subject-01,1,10,0.557603120803833,clock,clock,0,0010_sty_s01_0_clock_00_clock-0128-ILSVRC2012-val-00030987.png
subject-01,1,11,0.761512994766235,dog,bottle,0,0011_sty_s01_0_bottle_00_bottle-0296-ILSVRC2012-val-00044906.png
subject-01,1,12,0.799399852752686,clock,knife,0,0012_sty_s01_0_knife_00_knife-0033-ILSVRC2012-val-00028494.png
subject-01,1,13,0.891000986099243,dog,cat,0,0013_sty_s01_0_cat_00_cat-0110-ILSVRC2012-val-00004411.png
subject-01,1,14,0.648791074752808,dog,dog,0,0014_sty_s01_0_dog_00_dog-1538-ILSVRC2012-val-00038167.png
subject-01,1,15,1.4025399684906,dog,bicycle,0,0015_sty_s01_0_bicycle_00_bicycle-0026-ILSVRC2012-val-00026292.png
subject-01,1,16,0.624981880187988,boat,boat,0,0016_sty_s01_0_boat_00_boat-0121-ILSVRC2012-val-00016970.png
subject-01,1,17,0.63637113571167,car,car,0,0017_sty_s01_0_car_00_car-0018-ILSVRC2012-val-00018138.png
subject-01,1,18,1.08809208869934,dog,oven,0,0018_sty_s01_0_oven_00_oven-0011-ILSVRC2012-val-00010717.png
subject-01,1,19,0.535934925079346,keyboard,keyboard,0,0019_sty_s01_0_keyboard_00_keyboard-0088-ILSVRC2012-val-00041420.png
subject-01,1,20,0.911634922027588,car,truck,0,0020_sty_s01_0_truck_00_truck-0116-ILSVRC2012-val-00016053.png
subject-01,1,21,0.533423900604248,keyboard,keyboard,0,0021_sty_s01_0_keyboard_00_keyboard-0074-ILSVRC2012-val-00020967.png
subject-01,1,22,0.869342803955078,dog,dog,0,0022_sty_s01_0_dog_00_dog-3864-ILSVRC2012-val-00011457.png
subject-01,1,23,1.11956810951233,bird,bear,0,0023_sty_s01_0_bear_00_bear-0139-ILSVRC2012-val-00041156.png
subject-01,1,24,0.764976024627686,keyboard,knife,0,0024_sty_s01_0_knife_00_knife-0039-ILSVRC2012-val-00038320.png
subject-01,1,25,0.942857027053833,keyboard,clock,0,0025_sty_s01_0_clock_00_clock-0098-ILSVRC2012-val-00048682.png
subject-01,1,26,0.768784999847412,elephant,elephant,0,0026_sty_s01_0_elephant_00_elephant-0058-ILSVRC2012-val-00004990.png
subject-01,1,27,0.592343807220459,airplane,airplane,0,0027_sty_s01_0_airplane_00_airplane-0007-ILSVRC2012-val-00009537.png
subject-01,1,28,0.786130905151367,truck,truck,0,0028_sty_s01_0_truck_00_truck-0373-ILSVRC2012-val-00019053.png
subject-01,1,29,0.901979923248291,bear,boat,0,0029_sty_s01_0_boat_00_boat-0070-ILSVRC2012-val-00017026.png
subject-01,1,30,1.35589504241943,bear,oven,0,0030_sty_s01_0_oven_00_oven-0028-ILSVRC2012-val-00025917.png
subject-01,1,31,0.719795942306519,elephant,truck,0,0031_sty_s01_0_truck_00_truck-0054-ILSVRC2012-val-00004119.png
subject-01,1,32,0.667520046234131,car,car,0,0032_sty_s01_0_car_00_car-0095-ILSVRC2012-val-00041430.png
subject-01,1,33,0.779688835144043,cat,cat,0,0033_sty_s01_0_cat_00_cat-0162-ILSVRC2012-val-00012173.png
subject-01,1,34,1.28520679473877,truck,chair,0,0034_sty_s01_0_chair_00_chair-0119-ILSVRC2012-val-00018206.png
subject-01,1,35,0.493013143539429,clock,clock,0,0035_sty_s01_0_clock_00_clock-0029-ILSVRC2012-val-00022719.png
subject-01,1,36,1.126629114151,dog,bird,0,0036_sty_s01_0_bird_00_bird-0119-ILSVRC2012-val-00016252.png
subject-01,1,37,0.570421934127808,elephant,elephant,0,0037_sty_s01_0_elephant_00_elephant-0069-ILSVRC2012-val-00017097.png
subject-01,1,38,0.520419120788574,clock,clock,0,0038_sty_s01_0_clock_00_clock-0145-ILSVRC2012-val-00044685.png
subject-01,1,39,0.784050941467285,dog,bird,0,0039_sty_s01_0_bird_00_bird-0175-ILSVRC2012-val-00018699.png
subject-01,1,40,0.709873199462891,dog,dog,0,0040_sty_s01_0_dog_00_dog-3412-ILSVRC2012-val-00014775.png
subject-01,1,41,1.31375408172607,truck,clock,0,0041_sty_s01_0_clock_00_clock-0038-ILSVRC2012-val-00032489.png
subject-01,1,42,0.573616981506348,elephant,elephant,0,0042_sty_s01_0_elephant_00_elephant-0002-ILSVRC2012-val-00001850.png
subject-01,1,43,0.791998147964478,cat,cat,0,0043_sty_s01_0_cat_00_cat-0069-ILSVRC2012-val-00016399.png
subject-01,1,44,0.845355987548828,dog,elephant,0,0044_sty_s01_0_elephant_00_elephant-0055-ILSVRC2012-val-00003538.png
subject-01,1,45,0.982983112335205,elephant,clock,0,0045_sty_s01_0_clock_00_clock-0118-ILSVRC2012-val-00018443.png
subject-01,1,46,0.60898494720459,bird,bird,0,0046_sty_s01_0_bird_00_bird-0701-ILSVRC2012-val-00000075.png
subject-01,1,47,0.670721054077148,truck,truck,0,0047_sty_s01_0_truck_00_truck-0047-ILSVRC2012-val-00047588.png
subject-01,1,48,1.0025908946991,keyboard,keyboard,0,0048_sty_s01_0_keyboard_00_keyboard-0070-ILSVRC2012-val-00015929.png
subject-01,1,49,0.586287975311279,cat,cat,0,0049_sty_s01_0_cat_00_cat-0082-ILSVRC2012-val-00025723.png
subject-01,1,50,1.16600513458252,cat,bear,0,0050_sty_s01_0_bear_00_bear-0052-ILSVRC2012-val-00000865.png
subject-01,1,51,1.04435896873474,cat,elephant,0,0051_sty_s01_0_elephant_00_elephant-0095-ILSVRC2012-val-00042879.png
subject-01,1,52,0.637744903564453,car,truck,0,0052_sty_s01_0_truck_00_truck-0219-ILSVRC2012-val-00021802.png
subject-01,1,53,0.963423013687134,elephant,bird,0,0053_sty_s01_0_bird_00_bird-1865-ILSVRC2012-val-00009672.png
subject-01,1,54,0.801735877990723,clock,bottle,0,0054_sty_s01_0_bottle_00_bottle-0085-ILSVRC2012-val-00036422.png
subject-01,1,55,0.861697912216187,car,bicycle,0,0055_sty_s01_0_bicycle_00_bicycle-0010-ILSVRC2012-val-00010544.png
subject-01,1,56,0.765521049499512,car,car,0,0056_sty_s01_0_car_00_car-0004-ILSVRC2012-val-00006084.png
subject-01,1,57,0.638689041137695,car,car,0,0057_sty_s01_0_car_00_car-0013-ILSVRC2012-val-00014541.png
subject-01,1,58,0.602757930755615,oven,oven,0,0058_sty_s01_0_oven_00_oven-0025-ILSVRC2012-val-00022348.png
subject-01,1,59,0.540505886077881,oven,boat,0,0059_sty_s01_0_boat_00_boat-0042-ILSVRC2012-val-00039945.png
subject-01,1,60,1.05264806747437,knife,chair,0,0060_sty_s01_0_chair_00_chair-0018-ILSVRC2012-val-00013838.png
subject-01,1,61,0.476143836975098,cat,cat,0,0061_sty_s01_0_cat_00_cat-0032-ILSVRC2012-val-00033420.png
subject-01,1,62,0.871814012527466,cat,bear,0,0062_sty_s01_0_bear_00_bear-0141-ILSVRC2012-val-00042320.png
subject-01,1,63,1.00973081588745,knife,knife,0,0063_sty_s01_0_knife_00_knife-0011-ILSVRC2012-val-00009367.png
subject-01,1,64,0.621361017227173,cat,bicycle,0,0064_sty_s01_0_bicycle_00_bicycle-0007-ILSVRC2012-val-00006395.png
subject-01,1,65,0.54358696937561,cat,bear,0,0065_sty_s01_0_bear_00_bear-0154-ILSVRC2012-val-00003499.png
subject-01,1,66,0.721027135848999,boat,knife,0,0066_sty_s01_0_knife_00_knife-0029-ILSVRC2012-val-00026505.png
subject-01,1,67,0.928952932357788,airplane,airplane,0,0067_sty_s01_0_airplane_00_airplane-0033-ILSVRC2012-val-00033161.png
subject-01,1,68,0.528936147689819,cat,dog,0,0068_sty_s01_0_dog_00_dog-1881-ILSVRC2012-val-00028322.png
subject-01,1,69,0.912971019744873,bicycle,bicycle,0,0069_sty_s01_0_bicycle_00_bicycle-0046-ILSVRC2012-val-00042496.png
subject-01,1,70,0.894436120986938,keyboard,keyboard,0,0070_sty_s01_0_keyboard_00_keyboard-0013-ILSVRC2012-val-00012334.png
subject-01,1,71,1.36657404899597,chair,truck,0,0071_sty_s01_0_truck_00_truck-0051-ILSVRC2012-val-00001144.png
subject-01,1,72,0.64619517326355,truck,truck,0,0072_sty_s01_0_truck_00_truck-0065-ILSVRC2012-val-00013925.png
subject-01,1,73,0.865920066833496,oven,boat,0,0073_sty_s01_0_boat_00_boat-0137-ILSVRC2012-val-00035374.png
subject-01,1,74,0.950159072875977,bicycle,airplane,0,0074_sty_s01_0_airplane_00_airplane-0012-ILSVRC2012-val-00015498.png
subject-01,1,75,0.603266954421997,bicycle,bicycle,0,0075_sty_s01_0_bicycle_00_bicycle-0100-ILSVRC2012-val-00049750.png
subject-01,1,76,0.953393936157227,keyboard,keyboard,0,0076_sty_s01_0_keyboard_00_keyboard-0030-ILSVRC2012-val-00029239.png
subject-01,1,77,0.801162958145142,oven,oven,0,0077_sty_s01_0_oven_00_oven-0044-ILSVRC2012-val-00041974.png
subject-01,1,78,0.752769947052002,oven,chair,0,0078_sty_s01_0_chair_00_chair-0199-ILSVRC2012-val-00048901.png
subject-01,1,79,0.728566884994507,keyboard,car,0,0079_sty_s01_0_car_00_car-0024-ILSVRC2012-val-00023221.png
subject-01,1,80,0.87103796005249,airplane,dog,0,0080_sty_s01_0_dog_00_dog-5267-ILSVRC2012-val-00013862.png
subject-01,1,81,0.846314907073975,oven,dog,0,0081_sty_s01_0_dog_00_dog-2290-ILSVRC2012-val-00036919.png
subject-01,1,82,0.606120109558105,bicycle,bicycle,0,0082_sty_s01_0_bicycle_00_bicycle-0089-ILSVRC2012-val-00042393.png
subject-01,1,83,0.695981025695801,keyboard,boat,0,0083_sty_s01_0_boat_00_boat-0223-ILSVRC2012-val-00020544.png
subject-01,1,84,0.693629026412964,keyboard,chair,0,0084_sty_s01_0_chair_00_chair-0150-ILSVRC2012-val-00048622.png
subject-01,1,85,0.565514087677002,car,car,0,0085_sty_s01_0_car_00_car-0060-ILSVRC2012-val-00014208.png
subject-01,1,86,0.92581582069397,keyboard,knife,0,0086_sty_s01_0_knife_00_knife-0037-ILSVRC2012-val-00034765.png
subject-01,1,87,0.860944032669067,bicycle,bicycle,0,0087_sty_s01_0_bicycle_00_bicycle-0096-ILSVRC2012-val-00045152.png
subject-01,1,88,1.20310592651367,boat,boat,0,0088_sty_s01_0_boat_00_boat-0033-ILSVRC2012-val-00030824.png
subject-01,1,89,0.732984066009521,car,car,0,0089_sty_s01_0_car_00_car-0093-ILSVRC2012-val-00038956.png
subject-01,1,90,0.695014953613281,bear,bear,0,0090_sty_s01_0_bear_00_bear-0085-ILSVRC2012-val-00035292.png
subject-01,1,91,1.15234684944153,boat,boat,0,0091_sty_s01_0_boat_00_boat-0160-ILSVRC2012-val-00008630.png
subject-01,1,92,0.626158952713013,oven,oven,0,0092_sty_s01_0_oven_00_oven-0008-ILSVRC2012-val-00007052.png
subject-01,1,93,0.997858047485352,keyboard,chair,0,0093_sty_s01_0_chair_00_chair-0155-ILSVRC2012-val-00005160.png
subject-01,1,94,0.60389518737793,bear,bear,0,0094_sty_s01_0_bear_00_bear-0031-ILSVRC2012-val-00039777.png
subject-01,1,95,0.637984991073608,keyboard,airplane,0,0095_sty_s01_0_airplane_00_airplane-0045-ILSVRC2012-val-00044253.png
subject-01,1,96,0.64356803894043,elephant,elephant,0,0096_sty_s01_0_elephant_00_elephant-0085-ILSVRC2012-val-00033861.png
subject-01,1,97,0.921273946762085,dog,dog,0,0097_sty_s01_0_dog_00_dog-1734-ILSVRC2012-val-00031377.png
subject-01,1,98,0.590981006622314,bicycle,bicycle,0,0098_sty_s01_0_bicycle_00_bicycle-0050-ILSVRC2012-val-00049382.png
subject-01,1,99,0.764871835708618,cat,knife,0,0099_sty_s01_0_knife_00_knife-0019-ILSVRC2012-val-00014960.png
subject-01,1,100,0.904515981674194,cat,keyboard,0,0100_sty_s01_0_keyboard_00_keyboard-0063-ILSVRC2012-val-00009383.png
subject-01,1,101,0.974593877792358,bird,oven,0,0101_sty_s01_0_oven_00_oven-0035-ILSVRC2012-val-00034788.png
subject-01,1,102,0.662333011627197,car,truck,0,0102_sty_s01_0_truck_00_truck-0018-ILSVRC2012-val-00016650.png
subject-01,1,103,0.848249912261963,dog,dog,0,0103_sty_s01_0_dog_00_dog-2391-ILSVRC2012-val-00039144.png
subject-01,1,104,1.06988406181335,bird,boat,0,0104_sty_s01_0_boat_00_boat-0243-ILSVRC2012-val-00039131.png
subject-01,1,105,0.981811046600342,cat,knife,0,0105_sty_s01_0_knife_00_knife-0041-ILSVRC2012-val-00038966.png
subject-01,1,106,0.739938974380493,car,truck,0,0106_sty_s01_0_truck_00_truck-0330-ILSVRC2012-val-00031256.png
subject-01,1,107,1.06329894065857,cat,bottle,0,0107_sty_s01_0_bottle_00_bottle-0220-ILSVRC2012-val-00014146.png
subject-01,1,108,0.425494194030762,clock,clock,0,0108_sty_s01_0_clock_00_clock-0108-ILSVRC2012-val-00011957.png
subject-01,1,109,0.60698413848877,car,car,0,0109_sty_s01_0_car_00_car-0065-ILSVRC2012-val-00016613.png
subject-01,1,110,0.924812078475952,keyboard,clock,0,0110_sty_s01_0_clock_00_clock-0080-ILSVRC2012-val-00032946.png
subject-01,1,111,0.548741102218628,cat,cat,0,0111_sty_s01_0_cat_00_cat-0034-ILSVRC2012-val-00033837.png
subject-01,1,112,0.608479022979736,keyboard,keyboard,0,0112_sty_s01_0_keyboard_00_keyboard-0041-ILSVRC2012-val-00041349.png
subject-01,1,113,0.566126108169556,cat,cat,0,0113_sty_s01_0_cat_00_cat-0042-ILSVRC2012-val-00040238.png
subject-01,1,114,0.804008007049561,dog,bear,0,0114_sty_s01_0_bear_00_bear-0188-ILSVRC2012-val-00043016.png
subject-01,1,115,0.989767074584961,elephant,elephant,0,0115_sty_s01_0_elephant_00_elephant-0015-ILSVRC2012-val-00015520.png
subject-01,1,116,0.859807968139648,bottle,bottle,0,0116_sty_s01_0_bottle_00_bottle-0224-ILSVRC2012-val-00020102.png
subject-01,1,117,0.62591814994812,chair,chair,0,0117_sty_s01_0_chair_00_chair-0136-ILSVRC2012-val-00037994.png
subject-01,1,118,0.795492887496948,cat,bottle,0,0118_sty_s01_0_bottle_00_bottle-0003-ILSVRC2012-val-00003622.png
subject-01,1,119,0.699225902557373,clock,clock,0,0119_sty_s01_0_clock_00_clock-0119-ILSVRC2012-val-00018797.png
subject-01,1,120,0.565010070800781,elephant,elephant,0,0120_sty_s01_0_elephant_00_elephant-0099-ILSVRC2012-val-00048108.png
subject-01,1,121,0.802739858627319,airplane,airplane,0,0121_sty_s01_0_airplane_00_airplane-0015-ILSVRC2012-val-00018616.png
subject-01,1,122,0.594515085220337,knife,knife,0,0122_sty_s01_0_knife_00_knife-0002-ILSVRC2012-val-00000582.png
subject-01,1,123,0.646365165710449,airplane,airplane,0,0123_sty_s01_0_airplane_00_airplane-0008-ILSVRC2012-val-00010597.png
subject-01,1,124,0.558063983917236,car,truck,0,0124_sty_s01_0_truck_00_truck-0307-ILSVRC2012-val-00012703.png
subject-01,1,125,0.6340491771698,chair,chair,0,0125_sty_s01_0_chair_00_chair-0118-ILSVRC2012-val-00018123.png
subject-01,1,126,0.523707866668701,cat,cat,0,0126_sty_s01_0_cat_00_cat-0202-ILSVRC2012-val-00001496.png
subject-01,1,127,0.637794971466064,bicycle,bicycle,0,0127_sty_s01_0_bicycle_00_bicycle-0074-ILSVRC2012-val-00028824.png
subject-01,1,128,0.567394971847534,boat,airplane,0,0128_sty_s01_0_airplane_00_airplane-0031-ILSVRC2012-val-00030531.png
subject-01,1,129,0.805777072906494,bottle,bottle,0,0129_sty_s01_0_bottle_00_bottle-0254-ILSVRC2012-val-00005933.png
subject-01,1,130,0.943100929260254,dog,dog,0,0130_sty_s01_0_dog_00_dog-4009-ILSVRC2012-val-00007922.png
subject-01,1,131,0.613063097000122,car,truck,0,0131_sty_s01_0_truck_00_truck-0136-ILSVRC2012-val-00037829.png
subject-01,1,132,0.740713119506836,cat,bicycle,0,0132_sty_s01_0_bicycle_00_bicycle-0070-ILSVRC2012-val-00020631.png
subject-01,1,133,1.09690999984741,cat,bird,0,0133_sty_s01_0_bird_00_bird-1941-ILSVRC2012-val-00042829.png
subject-01,1,134,0.820180892944336,elephant,elephant,0,0134_sty_s01_0_elephant_00_elephant-0006-ILSVRC2012-val-00005704.png
subject-01,1,135,1.19218111038208,keyboard,bottle,0,0135_sty_s01_0_bottle_00_bottle-0002-ILSVRC2012-val-00002968.png
subject-01,1,136,0.689955949783325,clock,clock,0,0136_sty_s01_0_clock_00_clock-0144-ILSVRC2012-val-00041715.png
subject-01,1,137,0.727705001831055,dog,dog,0,0137_sty_s01_0_dog_00_dog-1613-ILSVRC2012-val-00015923.png
subject-01,1,138,0.721758127212524,keyboard,keyboard,0,0138_sty_s01_0_keyboard_00_keyboard-0038-ILSVRC2012-val-00038711.png
subject-01,1,139,0.943272113800049,keyboard,keyboard,0,0139_sty_s01_0_keyboard_00_keyboard-0014-ILSVRC2012-val-00012432.png
subject-01,1,140,0.621129989624023,boat,cat,0,0140_sty_s01_0_cat_00_cat-0260-ILSVRC2012-val-00006612.png
subject-01,1,141,1.37902903556824,keyboard,airplane,0,0141_sty_s01_0_airplane_00_airplane-0048-ILSVRC2012-val-00047829.png
subject-01,1,142,0.642906188964844,airplane,airplane,0,0142_sty_s01_0_airplane_00_airplane-0014-ILSVRC2012-val-00016995.png
subject-01,1,143,1.21263885498047,knife,oven,0,0143_sty_s01_0_oven_00_oven-0043-ILSVRC2012-val-00041628.png
subject-01,1,144,1.14658403396606,knife,keyboard,0,0144_sty_s01_0_keyboard_00_keyboard-0005-ILSVRC2012-val-00001687.png
subject-01,1,145,0.702338933944702,bicycle,dog,0,0145_sty_s01_0_dog_00_dog-2195-ILSVRC2012-val-00046002.png
subject-01,1,146,0.830240964889526,bear,dog,0,0146_sty_s01_0_dog_00_dog-4999-ILSVRC2012-val-00049046.png
subject-01,1,147,0.600310087203979,chair,chair,0,0147_sty_s01_0_chair_00_chair-0081-ILSVRC2012-val-00033069.png
subject-01,1,148,0.684224128723145,cat,bottle,0,0148_sty_s01_0_bottle_00_bottle-0047-ILSVRC2012-val-00044787.png
subject-01,1,149,0.599909067153931,airplane,airplane,0,0149_sty_s01_0_airplane_00_airplane-0018-ILSVRC2012-val-00019677.png
subject-01,1,150,1.02157497406006,elephant,dog,0,0150_sty_s01_0_dog_00_dog-2253-ILSVRC2012-val-00003731.png
subject-01,1,151,1.15926218032837,truck,boat,0,0151_sty_s01_0_boat_00_boat-0244-ILSVRC2012-val-00040974.png
subject-01,1,152,0.842833995819092,clock,dog,0,0152_sty_s01_0_dog_00_dog-2121-ILSVRC2012-val-00015705.png
subject-01,1,153,0.598827123641968,bicycle,bicycle,0,0153_sty_s01_0_bicycle_00_bicycle-0059-ILSVRC2012-val-00011329.png
subject-01,1,154,0.774560928344727,clock,keyboard,0,0154_sty_s01_0_keyboard_00_keyboard-0068-ILSVRC2012-val-00013404.png
subject-01,1,155,0.852724075317383,bottle,bicycle,0,0155_sty_s01_0_bicycle_00_bicycle-0061-ILSVRC2012-val-00012096.png
subject-01,1,156,0.70229697227478,elephant,boat,0,0156_sty_s01_0_boat_00_boat-0111-ILSVRC2012-val-00009680.png
subject-01,1,157,0.457935810089111,bottle,bottle,0,0157_sty_s01_0_bottle_00_bottle-0011-ILSVRC2012-val-00009225.png
subject-01,1,158,0.515691041946411,elephant,elephant,0,0158_sty_s01_0_elephant_00_elephant-0043-ILSVRC2012-val-00040923.png
subject-01,1,159,0.553717851638794,elephant,elephant,0,0159_sty_s01_0_elephant_00_elephant-0032-ILSVRC2012-val-00030248.png
subject-01,1,160,0.857299089431763,truck,truck,0,0160_sty_s01_0_truck_00_truck-0194-ILSVRC2012-val-00042924.png
subject-01,1,161,0.641571998596191,bear,bird,0,0161_sty_s01_0_bird_00_bird-1971-ILSVRC2012-val-00023024.png
subject-01,1,162,0.562948226928711,airplane,airplane,0,0162_sty_s01_0_airplane_00_airplane-0020-ILSVRC2012-val-00022975.png
subject-01,1,163,0.870748996734619,airplane,boat,0,0163_sty_s01_0_boat_00_boat-0048-ILSVRC2012-val-00046387.png
subject-01,1,164,0.432491064071655,clock,clock,0,0164_sty_s01_0_clock_00_clock-0045-ILSVRC2012-val-00043497.png
subject-01,1,165,0.626322031021118,cat,cat,0,0165_sty_s01_0_cat_00_cat-0123-ILSVRC2012-val-00014813.png
subject-01,1,166,0.864165067672729,dog,bottle,0,0166_sty_s01_0_bottle_00_bottle-0057-ILSVRC2012-val-00005967.png
subject-01,1,167,1.34452104568481,bear,oven,0,0167_sty_s01_0_oven_00_oven-0023-ILSVRC2012-val-00020809.png
subject-01,1,168,0.675946950912476,bear,dog,0,0168_sty_s01_0_dog_00_dog-1735-ILSVRC2012-val-00031764.png
subject-01,1,169,0.523737907409668,cat,cat,0,0169_sty_s01_0_cat_00_cat-0064-ILSVRC2012-val-00014860.png
subject-01,1,170,0.681428194046021,elephant,elephant,0,0170_sty_s01_0_elephant_00_elephant-0087-ILSVRC2012-val-00034562.png
subject-01,1,171,0.527307987213135,elephant,elephant,0,0171_sty_s01_0_elephant_00_elephant-0028-ILSVRC2012-val-00025237.png
subject-01,1,172,0.573579072952271,car,car,0,0172_sty_s01_0_car_00_car-0030-ILSVRC2012-val-00029057.png
subject-01,1,173,0.592850923538208,elephant,chair,0,0173_sty_s01_0_chair_00_chair-0047-ILSVRC2012-val-00045407.png
subject-01,1,174,0.596704006195068,elephant,bird,0,0174_sty_s01_0_bird_00_bird-2405-ILSVRC2012-val-00007988.png
subject-01,1,175,0.610715866088867,keyboard,airplane,0,0175_sty_s01_0_airplane_00_airplane-0010-ILSVRC2012-val-00012263.png
subject-01,1,176,0.452709913253784,clock,clock,0,0176_sty_s01_0_clock_00_clock-0013-ILSVRC2012-val-00013244.png
subject-01,1,177,0.606142044067383,keyboard,keyboard,0,0177_sty_s01_0_keyboard_00_keyboard-0080-ILSVRC2012-val-00028169.png
subject-01,1,178,0.636112928390503,elephant,elephant,0,0178_sty_s01_0_elephant_00_elephant-0078-ILSVRC2012-val-00027908.png
subject-01,1,179,0.633925914764404,elephant,bear,0,0179_sty_s01_0_bear_00_bear-0066-ILSVRC2012-val-00016621.png
subject-01,1,180,0.693516969680786,dog,dog,0,0180_sty_s01_0_dog_00_dog-0099-ILSVRC2012-val-00048280.png
subject-01,1,181,0.581516027450562,car,car,0,0181_sty_s01_0_car_00_car-0064-ILSVRC2012-val-00016337.png
subject-01,1,182,1.03913116455078,keyboard,boat,0,0182_sty_s01_0_boat_00_boat-0103-ILSVRC2012-val-00002308.png
subject-01,1,183,0.505445003509521,elephant,elephant,0,0183_sty_s01_0_elephant_00_elephant-0047-ILSVRC2012-val-00048547.png
subject-01,1,184,0.529239177703857,cat,clock,0,0184_sty_s01_0_clock_00_clock-0007-ILSVRC2012-val-00005490.png
subject-01,1,185,0.588977098464966,elephant,elephant,0,0185_sty_s01_0_elephant_00_elephant-0010-ILSVRC2012-val-00011002.png
subject-01,1,186,0.984357118606567,elephant,oven,0,0186_sty_s01_0_oven_00_oven-0045-ILSVRC2012-val-00045813.png
subject-01,1,187,0.810189008712769,elephant,keyboard,0,0187_sty_s01_0_keyboard_00_keyboard-0092-ILSVRC2012-val-00044775.png
subject-01,1,188,0.934077978134155,truck,bird,0,0188_sty_s01_0_bird_00_bird-2082-ILSVRC2012-val-00036457.png
subject-01,1,189,1.16196179389954,keyboard,knife,0,0189_sty_s01_0_knife_00_knife-0004-ILSVRC2012-val-00002212.png
subject-01,1,190,0.977595090866089,airplane,airplane,0,0190_sty_s01_0_airplane_00_airplane-0024-ILSVRC2012-val-00024108.png
subject-01,1,191,0.653542995452881,keyboard,knife,0,0191_sty_s01_0_knife_00_knife-0021-ILSVRC2012-val-00016901.png
subject-01,1,192,0.743453979492188,oven,truck,0,0192_sty_s01_0_truck_00_truck-0103-ILSVRC2012-val-00004552.png
subject-01,1,193,0.617079973220825,car,airplane,0,0193_sty_s01_0_airplane_00_airplane-0002-ILSVRC2012-val-00001390.png
subject-01,1,194,0.669028997421265,keyboard,oven,0,0194_sty_s01_0_oven_00_oven-0001-ILSVRC2012-val-00001625.png
subject-01,1,195,0.688820838928223,keyboard,bottle,0,0195_sty_s01_0_bottle_00_bottle-0031-ILSVRC2012-val-00033822.png
subject-01,1,196,0.866448879241943,elephant,truck,0,0196_sty_s01_0_truck_00_truck-0177-ILSVRC2012-val-00027892.png
subject-01,1,197,0.936399936676025,elephant,elephant,0,0197_sty_s01_0_elephant_00_elephant-0068-ILSVRC2012-val-00016215.png
subject-01,1,198,0.926188230514526,knife,oven,0,0198_sty_s01_0_oven_00_oven-0021-ILSVRC2012-val-00019775.png
subject-01,1,199,1.05015897750854,bicycle,oven,0,0199_sty_s01_0_oven_00_oven-0018-ILSVRC2012-val-00017795.png
subject-01,1,200,0.529924869537354,car,car,0,0200_sty_s01_0_car_00_car-0041-ILSVRC2012-val-00040706.png
subject-01,1,201,0.641616106033325,keyboard,keyboard,0,0201_sty_s01_0_keyboard_00_keyboard-0060-ILSVRC2012-val-00008319.png
subject-01,1,202,0.837480068206787,bear,bear,0,0202_sty_s01_0_bear_00_bear-0005-ILSVRC2012-val-00006703.png
subject-01,1,203,0.879250049591064,cat,chair,0,0203_sty_s01_0_chair_00_chair-0192-ILSVRC2012-val-00043870.png
subject-01,1,204,0.623205184936523,car,bottle,0,0204_sty_s01_0_bottle_00_bottle-0325-ILSVRC2012-val-00027316.png
subject-01,1,205,1.34487795829773,bird,bird,0,0205_sty_s01_0_bird_00_bird-0009-ILSVRC2012-val-00007530.png
subject-01,1,206,0.952783107757568,keyboard,truck,0,0206_sty_s01_0_truck_00_truck-0185-ILSVRC2012-val-00033804.png
subject-01,1,207,1.08442807197571,bicycle,bottle,0,0207_sty_s01_0_bottle_00_bottle-0180-ILSVRC2012-val-00027613.png
subject-01,1,208,1.00828313827515,elephant,dog,0,0208_sty_s01_0_dog_00_dog-4443-ILSVRC2012-val-00045160.png
subject-01,1,209,0.532205104827881,dog,dog,0,0209_sty_s01_0_dog_00_dog-2129-ILSVRC2012-val-00025424.png
subject-01,1,210,0.561917066574097,chair,chair,0,0210_sty_s01_0_chair_00_chair-0085-ILSVRC2012-val-00036175.png
subject-01,1,211,0.699639081954956,keyboard,airplane,0,0211_sty_s01_0_airplane_00_airplane-0030-ILSVRC2012-val-00030411.png
subject-01,1,212,0.917922019958496,keyboard,oven,0,0212_sty_s01_0_oven_00_oven-0037-ILSVRC2012-val-00037357.png
subject-01,1,213,0.533416986465454,cat,cat,0,0213_sty_s01_0_cat_00_cat-0234-ILSVRC2012-val-00028970.png
subject-01,1,214,0.485100030899048,cat,cat,0,0214_sty_s01_0_cat_00_cat-0274-ILSVRC2012-val-00019370.png
subject-01,1,215,0.71110987663269,oven,keyboard,0,0215_sty_s01_0_keyboard_00_keyboard-0056-ILSVRC2012-val-00003296.png
subject-01,1,216,1.02285099029541,dog,bottle,0,0216_sty_s01_0_bottle_00_bottle-0055-ILSVRC2012-val-00003066.png
subject-01,1,217,0.748577117919922,bottle,bottle,0,0217_sty_s01_0_bottle_00_bottle-0066-ILSVRC2012-val-00016336.png
subject-01,1,218,0.89032506942749,cat,chair,0,0218_sty_s01_0_chair_00_chair-0024-ILSVRC2012-val-00021099.png
subject-01,1,219,0.556416988372803,bird,bird,0,0219_sty_s01_0_bird_00_bird-1394-ILSVRC2012-val-00040051.png
subject-01,1,220,0.631984949111938,car,truck,0,0220_sty_s01_0_truck_00_truck-0335-ILSVRC2012-val-00039723.png
subject-01,1,221,0.86604380607605,truck,dog,0,0221_sty_s01_0_dog_00_dog-2539-ILSVRC2012-val-00041157.png
subject-01,1,222,0.627768039703369,elephant,bear,0,0222_sty_s01_0_bear_00_bear-0021-ILSVRC2012-val-00031253.png
subject-01,1,223,0.553369998931885,dog,dog,0,0223_sty_s01_0_dog_00_dog-2629-ILSVRC2012-val-00030579.png
subject-01,1,224,0.589303970336914,bicycle,bicycle,0,0224_sty_s01_0_bicycle_00_bicycle-0054-ILSVRC2012-val-00004147.png
subject-01,1,225,1.03314208984375,bird,boat,0,0225_sty_s01_0_boat_00_boat-0222-ILSVRC2012-val-00019246.png
subject-01,1,226,0.874838829040527,keyboard,bird,0,0226_sty_s01_0_bird_00_bird-2011-ILSVRC2012-val-00008842.png
subject-01,1,227,0.69078803062439,airplane,airplane,0,0227_sty_s01_0_airplane_00_airplane-0029-ILSVRC2012-val-00030319.png
subject-01,1,228,0.636530160903931,bottle,bottle,0,0228_sty_s01_0_bottle_00_bottle-0233-ILSVRC2012-val-00031504.png
subject-01,1,229,0.50427508354187,clock,clock,0,0229_sty_s01_0_clock_00_clock-0091-ILSVRC2012-val-00044029.png
subject-01,1,230,0.558125972747803,car,truck,0,0230_sty_s01_0_truck_00_truck-0284-ILSVRC2012-val-00030765.png
subject-01,1,231,0.510011196136475,clock,clock,0,0231_sty_s01_0_clock_00_clock-0010-ILSVRC2012-val-00006858.png
subject-01,1,232,0.689719915390015,truck,truck,0,0232_sty_s01_0_truck_00_truck-0048-ILSVRC2012-val-00047888.png
subject-01,1,233,0.673714876174927,cat,cat,0,0233_sty_s01_0_cat_00_cat-0050-ILSVRC2012-val-00047911.png
subject-01,1,234,1.05126905441284,oven,knife,0,0234_sty_s01_0_knife_00_knife-0032-ILSVRC2012-val-00027812.png
subject-01,1,235,0.875539064407349,bear,bear,0,0235_sty_s01_0_bear_00_bear-0067-ILSVRC2012-val-00017273.png
subject-01,1,236,0.951594114303589,elephant,knife,0,0236_sty_s01_0_knife_00_knife-0028-ILSVRC2012-val-00026439.png
subject-01,1,237,0.801245927810669,elephant,oven,0,0237_sty_s01_0_oven_00_oven-0029-ILSVRC2012-val-00028472.png
subject-01,1,238,0.774726867675781,elephant,knife,0,0238_sty_s01_0_knife_00_knife-0043-ILSVRC2012-val-00039826.png
subject-01,1,239,1.08647012710571,bear,bird,0,0239_sty_s01_0_bird_00_bird-1274-ILSVRC2012-val-00025449.png
subject-01,1,240,0.672271013259888,airplane,airplane,0,0240_sty_s01_0_airplane_00_airplane-0035-ILSVRC2012-val-00033920.png
subject-01,1,241,0.498220920562744,elephant,elephant,0,0241_sty_s01_0_elephant_00_elephant-0059-ILSVRC2012-val-00005109.png
subject-01,1,242,1.16596698760986,elephant,chair,0,0242_sty_s01_0_chair_00_chair-0097-ILSVRC2012-val-00043453.png
subject-01,1,243,0.581607103347778,car,car,0,0243_sty_s01_0_car_00_car-0019-ILSVRC2012-val-00018335.png
subject-01,1,244,0.645668029785156,boat,boat,0,0244_sty_s01_0_boat_00_boat-0076-ILSVRC2012-val-00020486.png
subject-01,1,245,0.983843088150024,truck,keyboard,0,0245_sty_s01_0_keyboard_00_keyboard-0009-ILSVRC2012-val-00006513.png
subject-01,1,246,0.583119869232178,car,truck,0,0246_sty_s01_0_truck_00_truck-0019-ILSVRC2012-val-00019954.png
subject-01,1,247,0.586951971054077,oven,oven,0,0247_sty_s01_0_oven_00_oven-0019-ILSVRC2012-val-00017971.png
subject-01,1,248,0.788690090179443,car,car,0,0248_sty_s01_0_car_00_car-0025-ILSVRC2012-val-00023474.png
subject-01,1,249,0.566645860671997,bottle,knife,0,0249_sty_s01_0_knife_00_knife-0030-ILSVRC2012-val-00027427.png
subject-01,1,250,1.33857202529907,bottle,bottle,0,0250_sty_s01_0_bottle_00_bottle-0170-ILSVRC2012-val-00020948.png
subject-01,1,251,0.610296010971069,keyboard,keyboard,0,0251_sty_s01_0_keyboard_00_keyboard-0090-ILSVRC2012-val-00044306.png
subject-01,1,252,1.30200695991516,keyboard,bear,0,0252_sty_s01_0_bear_00_bear-0165-ILSVRC2012-val-00019901.png
subject-01,1,253,0.881996870040894,knife,knife,0,0253_sty_s01_0_knife_00_knife-0038-ILSVRC2012-val-00037845.png
subject-01,1,254,0.679630041122437,truck,truck,0,0254_sty_s01_0_truck_00_truck-0084-ILSVRC2012-val-00034001.png
subject-01,1,255,0.689906120300293,car,truck,0,0255_sty_s01_0_truck_00_truck-0215-ILSVRC2012-val-00017360.png
subject-01,1,256,0.747476100921631,dog,dog,0,0256_sty_s01_0_dog_00_dog-0220-ILSVRC2012-val-00017568.png
subject-01,1,257,1.20948195457458,keyboard,oven,0,0257_sty_s01_0_oven_00_oven-0014-ILSVRC2012-val-00012082.png
subject-01,1,258,0.618972063064575,car,truck,0,0258_sty_s01_0_truck_00_truck-0265-ILSVRC2012-val-00010166.png
subject-01,1,259,0.67061710357666,boat,boat,0,0259_sty_s01_0_boat_00_boat-0235-ILSVRC2012-val-00032371.png
subject-01,1,260,0.556587934494019,bicycle,bicycle,0,0260_sty_s01_0_bicycle_00_bicycle-0056-ILSVRC2012-val-00005330.png
subject-01,1,261,1.50012493133545,dog,knife,0,0261_sty_s01_0_knife_00_knife-0007-ILSVRC2012-val-00004815.png
subject-01,1,262,0.724678993225098,airplane,airplane,0,0262_sty_s01_0_airplane_00_airplane-0011-ILSVRC2012-val-00014425.png
subject-01,1,263,0.660059928894043,cat,cat,0,0263_sty_s01_0_cat_00_cat-0189-ILSVRC2012-val-00040854.png
subject-01,1,264,0.641779184341431,keyboard,knife,0,0264_sty_s01_0_knife_00_knife-0026-ILSVRC2012-val-00024520.png
subject-01,1,265,0.697738885879517,oven,chair,0,0265_sty_s01_0_chair_00_chair-0154-ILSVRC2012-val-00004705.png
subject-01,1,266,0.659462928771973,clock,clock,0,0266_sty_s01_0_clock_00_clock-0043-ILSVRC2012-val-00041613.png
subject-01,1,267,0.873211860656738,bird,elephant,0,0267_sty_s01_0_elephant_00_elephant-0062-ILSVRC2012-val-00010078.png
subject-01,1,268,0.827069997787476,elephant,chair,0,0268_sty_s01_0_chair_00_chair-0006-ILSVRC2012-val-00004679.png
subject-01,1,269,0.500838994979858,bird,bird,0,0269_sty_s01_0_bird_00_bird-0532-ILSVRC2012-val-00028181.png
subject-01,1,270,0.494932174682617,clock,clock,0,0270_sty_s01_0_clock_00_clock-0008-ILSVRC2012-val-00005558.png
subject-01,1,271,0.570459842681885,car,car,0,0271_sty_s01_0_car_00_car-0069-ILSVRC2012-val-00019647.png
subject-01,1,272,0.878259897232056,elephant,bear,0,0272_sty_s01_0_bear_00_bear-0073-ILSVRC2012-val-00024289.png
subject-01,1,273,0.923979997634888,cat,knife,0,0273_sty_s01_0_knife_00_knife-0036-ILSVRC2012-val-00034599.png
subject-01,1,274,0.594341039657593,elephant,elephant,0,0274_sty_s01_0_elephant_00_elephant-0009-ILSVRC2012-val-00010713.png
subject-01,1,275,1.3182270526886,bear,bear,0,0275_sty_s01_0_bear_00_bear-0043-ILSVRC2012-val-00046763.png
subject-01,1,276,0.777828216552734,bottle,bottle,0,0276_sty_s01_0_bottle_00_bottle-0334-ILSVRC2012-val-00036776.png
subject-01,1,277,0.495455980300903,clock,clock,0,0277_sty_s01_0_clock_00_clock-0142-ILSVRC2012-val-00041461.png
subject-01,1,278,0.611274003982544,car,truck,0,0278_sty_s01_0_truck_00_truck-0329-ILSVRC2012-val-00029413.png
subject-01,1,279,0.554863929748535,car,truck,0,0279_sty_s01_0_truck_00_truck-0225-ILSVRC2012-val-00026079.png
subject-01,1,280,0.974831104278564,bear,oven,0,0280_sty_s01_0_oven_00_oven-0006-ILSVRC2012-val-00004891.png
subject-01,1,281,0.686646938323975,bicycle,bird,0,0281_sty_s01_0_bird_00_bird-1861-ILSVRC2012-val-00007811.png
subject-01,1,282,0.528852939605713,bicycle,bicycle,0,0282_sty_s01_0_bicycle_00_bicycle-0094-ILSVRC2012-val-00044080.png
subject-01,1,283,0.862289905548096,knife,keyboard,0,0283_sty_s01_0_keyboard_00_keyboard-0045-ILSVRC2012-val-00045039.png
subject-01,1,284,1.07786989212036,knife,knife,0,0284_sty_s01_0_knife_00_knife-0047-ILSVRC2012-val-00046361.png
subject-01,1,285,0.654256105422974,elephant,truck,0,0285_sty_s01_0_truck_00_truck-0200-ILSVRC2012-val-00048418.png
subject-01,1,286,0.585541963577271,car,car,0,0286_sty_s01_0_car_00_car-0117-ILSVRC2012-val-00010983.png
subject-01,1,287,0.947329998016357,dog,dog,0,0287_sty_s01_0_dog_00_dog-4070-ILSVRC2012-val-00021155.png
subject-01,1,288,0.999672889709473,oven,oven,0,0288_sty_s01_0_oven_00_oven-0039-ILSVRC2012-val-00038382.png
subject-01,1,289,1.22516417503357,oven,bird,0,0289_sty_s01_0_bird_00_bird-1913-ILSVRC2012-val-00012475.png
subject-01,1,290,0.676921129226685,knife,boat,0,0290_sty_s01_0_boat_00_boat-0036-ILSVRC2012-val-00032433.png
subject-01,1,291,0.728634119033813,dog,dog,0,0291_sty_s01_0_dog_00_dog-1178-ILSVRC2012-val-00022137.png
subject-01,1,292,0.564554929733276,cat,cat,0,0292_sty_s01_0_cat_00_cat-0092-ILSVRC2012-val-00039621.png
subject-01,1,293,0.570761203765869,dog,dog,0,0293_sty_s01_0_dog_00_dog-1398-ILSVRC2012-val-00046547.png
subject-01,1,294,0.486392021179199,clock,clock,0,0294_sty_s01_0_clock_00_clock-0040-ILSVRC2012-val-00035392.png
subject-01,1,295,0.991970062255859,bear,bear,0,0295_sty_s01_0_bear_00_bear-0074-ILSVRC2012-val-00026962.png
subject-01,1,296,0.520352125167847,oven,chair,0,0296_sty_s01_0_chair_00_chair-0169-ILSVRC2012-val-00019913.png
subject-01,1,297,0.611598014831543,oven,oven,0,0297_sty_s01_0_oven_00_oven-0034-ILSVRC2012-val-00033304.png
subject-01,1,298,0.513308048248291,elephant,bear,0,0298_sty_s01_0_bear_00_bear-0056-ILSVRC2012-val-00007093.png
subject-01,1,299,0.681047916412354,elephant,elephant,0,0299_sty_s01_0_elephant_00_elephant-0003-ILSVRC2012-val-00003280.png
subject-01,1,300,0.733520030975342,elephant,bear,0,0300_sty_s01_0_bear_00_bear-0064-ILSVRC2012-val-00016050.png
subject-01,1,301,0.743176937103271,keyboard,chair,0,0301_sty_s01_0_chair_00_chair-0092-ILSVRC2012-val-00041814.png
subject-01,1,302,0.537040948867798,clock,clock,0,0302_sty_s01_0_clock_00_clock-0048-ILSVRC2012-val-00044752.png
subject-01,1,303,0.824326992034912,elephant,oven,0,0303_sty_s01_0_oven_00_oven-0002-ILSVRC2012-val-00002517.png
subject-01,1,304,0.544284105300903,keyboard,keyboard,0,0304_sty_s01_0_keyboard_00_keyboard-0087-ILSVRC2012-val-00039947.png
subject-01,1,305,0.665889978408813,cat,oven,0,0305_sty_s01_0_oven_00_oven-0016-ILSVRC2012-val-00014839.png
subject-01,1,306,0.951798915863037,elephant,dog,0,0306_sty_s01_0_dog_00_dog-3771-ILSVRC2012-val-00020678.png
subject-01,1,307,0.729568958282471,bear,dog,0,0307_sty_s01_0_dog_00_dog-0779-ILSVRC2012-val-00033666.png
subject-01,1,308,0.49335503578186,clock,bottle,0,0308_sty_s01_0_bottle_00_bottle-0052-ILSVRC2012-val-00000252.png
subject-01,1,309,0.867187976837158,keyboard,keyboard,0,0309_sty_s01_0_keyboard_00_keyboard-0061-ILSVRC2012-val-00008530.png
subject-01,1,310,1.1129789352417,elephant,elephant,0,0310_sty_s01_0_elephant_00_elephant-0046-ILSVRC2012-val-00045103.png
subject-01,1,311,0.934908866882324,bird,cat,0,0311_sty_s01_0_cat_00_cat-0072-ILSVRC2012-val-00019303.png
subject-01,1,312,0.814772129058838,clock,truck,0,0312_sty_s01_0_truck_00_truck-0096-ILSVRC2012-val-00044888.png
subject-01,1,313,0.62447714805603,airplane,airplane,0,0313_sty_s01_0_airplane_00_airplane-0023-ILSVRC2012-val-00023863.png
subject-01,1,314,1.45034885406494,truck,oven,0,0314_sty_s01_0_oven_00_oven-0036-ILSVRC2012-val-00035817.png
subject-01,1,315,0.626471996307373,clock,clock,0,0315_sty_s01_0_clock_00_clock-0130-ILSVRC2012-val-00032136.png
subject-01,1,316,1.31790995597839,truck,oven,0,0316_sty_s01_0_oven_00_oven-0009-ILSVRC2012-val-00007132.png
subject-01,1,317,0.485747098922729,cat,cat,0,0317_sty_s01_0_cat_00_cat-0147-ILSVRC2012-val-00041347.png
subject-01,1,318,0.58753490447998,bicycle,elephant,0,0318_sty_s01_0_elephant_00_elephant-0073-ILSVRC2012-val-00021807.png
subject-01,1,319,0.697793960571289,keyboard,boat,0,0319_sty_s01_0_boat_00_boat-0079-ILSVRC2012-val-00025681.png
subject-01,1,320,1.0215950012207,elephant,chair,0,0320_sty_s01_0_chair_00_chair-0072-ILSVRC2012-val-00015559.png
subject-01,1,321,0.671003103256226,elephant,elephant,0,0321_sty_s01_0_elephant_00_elephant-0065-ILSVRC2012-val-00010619.png
subject-01,1,322,1.1088969707489,oven,boat,0,0322_sty_s01_0_boat_00_boat-0005-ILSVRC2012-val-00004909.png
subject-01,1,323,0.840613842010498,elephant,airplane,0,0323_sty_s01_0_airplane_00_airplane-0006-ILSVRC2012-val-00008292.png
subject-01,1,324,0.884518146514893,bird,bird,0,0324_sty_s01_0_bird_00_bird-2410-ILSVRC2012-val-00010355.png
subject-01,1,325,0.626271963119507,oven,clock,0,0325_sty_s01_0_clock_00_clock-0062-ILSVRC2012-val-00014987.png
subject-01,1,326,0.746414184570312,boat,bicycle,0,0326_sty_s01_0_bicycle_00_bicycle-0081-ILSVRC2012-val-00032967.png
subject-01,1,327,0.591932058334351,car,car,0,0327_sty_s01_0_car_00_car-0021-ILSVRC2012-val-00019695.png
subject-01,1,328,0.695707082748413,keyboard,keyboard,0,0328_sty_s01_0_keyboard_00_keyboard-0022-ILSVRC2012-val-00021913.png
subject-01,1,329,0.781531095504761,bicycle,bicycle,0,0329_sty_s01_0_bicycle_00_bicycle-0020-ILSVRC2012-val-00022027.png
subject-01,1,330,0.541738986968994,oven,oven,0,0330_sty_s01_0_oven_00_oven-0033-ILSVRC2012-val-00031595.png
subject-01,1,331,0.777047157287598,dog,dog,0,0331_sty_s01_0_dog_00_dog-2535-ILSVRC2012-val-00038253.png
subject-01,1,332,0.608908891677856,bottle,bottle,0,0332_sty_s01_0_bottle_00_bottle-0331-ILSVRC2012-val-00033990.png
subject-01,1,333,0.868772029876709,bird,bird,0,0333_sty_s01_0_bird_00_bird-0752-ILSVRC2012-val-00001596.png
subject-01,1,334,0.818480968475342,oven,bicycle,0,0334_sty_s01_0_bicycle_00_bicycle-0005-ILSVRC2012-val-00005274.png
subject-01,1,335,0.63447117805481,bird,bird,0,0335_sty_s01_0_bird_00_bird-0122-ILSVRC2012-val-00019236.png
subject-01,1,336,0.524419069290161,cat,cat,0,0336_sty_s01_0_cat_00_cat-0137-ILSVRC2012-val-00027906.png
subject-01,1,337,0.8261399269104,elephant,chair,0,0337_sty_s01_0_chair_00_chair-0122-ILSVRC2012-val-00019867.png
subject-01,1,338,0.576370000839233,oven,oven,0,0338_sty_s01_0_oven_00_oven-0020-ILSVRC2012-val-00019568.png
subject-01,1,339,0.777629137039185,keyboard,truck,0,0339_sty_s01_0_truck_00_truck-0028-ILSVRC2012-val-00028536.png
subject-01,1,340,1.05353212356567,truck,knife,0,0340_sty_s01_0_knife_00_knife-0035-ILSVRC2012-val-00029833.png
subject-01,1,341,0.481459140777588,car,car,0,0341_sty_s01_0_car_00_car-0066-ILSVRC2012-val-00018249.png
subject-01,1,342,0.847146034240723,bird,bird,0,0342_sty_s01_0_bird_00_bird-1052-ILSVRC2012-val-00003884.png
subject-01,1,343,1.19679498672485,dog,cat,0,0343_sty_s01_0_cat_00_cat-0160-ILSVRC2012-val-00011528.png
subject-01,1,344,0.542635202407837,bicycle,bicycle,0,0344_sty_s01_0_bicycle_00_bicycle-0018-ILSVRC2012-val-00018975.png
subject-01,1,345,1.09498000144958,dog,bear,0,0345_sty_s01_0_bear_00_bear-0164-ILSVRC2012-val-00018303.png
subject-01,1,346,0.740291833877563,bottle,bottle,0,0346_sty_s01_0_bottle_00_bottle-0204-ILSVRC2012-val-00002597.png
subject-01,1,347,1.09005999565125,dog,bicycle,0,0347_sty_s01_0_bicycle_00_bicycle-0073-ILSVRC2012-val-00027449.png
subject-01,1,348,0.852051973342896,dog,chair,0,0348_sty_s01_0_chair_00_chair-0170-ILSVRC2012-val-00022051.png
subject-01,1,349,1.03564310073853,cat,knife,0,0349_sty_s01_0_knife_00_knife-0013-ILSVRC2012-val-00010577.png
subject-01,1,350,0.807501077651978,dog,knife,0,0350_sty_s01_0_knife_00_knife-0009-ILSVRC2012-val-00008526.png
subject-01,1,351,0.57328200340271,cat,elephant,0,0351_sty_s01_0_elephant_00_elephant-0013-ILSVRC2012-val-00014219.png
subject-01,1,352,0.531259059906006,bicycle,bicycle,0,0352_sty_s01_0_bicycle_00_bicycle-0080-ILSVRC2012-val-00032009.png
subject-01,1,353,0.673333883285522,airplane,airplane,0,0353_sty_s01_0_airplane_00_airplane-0016-ILSVRC2012-val-00018685.png
subject-01,1,354,1.04484891891479,dog,dog,0,0354_sty_s01_0_dog_00_dog-2094-ILSVRC2012-val-00044284.png
subject-01,1,355,0.6787109375,keyboard,oven,0,0355_sty_s01_0_oven_00_oven-0010-ILSVRC2012-val-00010367.png
subject-01,1,356,0.924599885940552,car,car,0,0356_sty_s01_0_car_00_car-0086-ILSVRC2012-val-00029454.png
subject-01,1,357,0.842097997665405,oven,oven,0,0357_sty_s01_0_oven_00_oven-0026-ILSVRC2012-val-00022397.png
subject-01,1,358,0.690006971359253,bear,bear,0,0358_sty_s01_0_bear_00_bear-0010-ILSVRC2012-val-00013390.png
subject-01,1,359,0.623926162719727,car,truck,0,0359_sty_s01_0_truck_00_truck-0315-ILSVRC2012-val-00021882.png
subject-01,1,360,0.605710983276367,cat,cat,0,0360_sty_s01_0_cat_00_cat-0185-ILSVRC2012-val-00038168.png
subject-01,1,361,0.711699962615967,oven,boat,0,0361_sty_s01_0_boat_00_boat-0039-ILSVRC2012-val-00033883.png
subject-01,1,362,0.717211961746216,bear,bear,0,0362_sty_s01_0_bear_00_bear-0168-ILSVRC2012-val-00022698.png
subject-01,1,363,0.835171937942505,bottle,bottle,0,0363_sty_s01_0_bottle_00_bottle-0345-ILSVRC2012-val-00044614.png
subject-01,1,364,0.55107593536377,cat,cat,0,0364_sty_s01_0_cat_00_cat-0045-ILSVRC2012-val-00041570.png
subject-01,1,365,0.850638866424561,elephant,chair,0,0365_sty_s01_0_chair_00_chair-0188-ILSVRC2012-val-00041720.png
subject-01,1,366,0.574587106704712,cat,cat,0,0366_sty_s01_0_cat_00_cat-0270-ILSVRC2012-val-00017189.png
subject-01,1,367,0.578407049179077,bicycle,bicycle,0,0367_sty_s01_0_bicycle_00_bicycle-0013-ILSVRC2012-val-00012667.png
subject-01,1,368,0.530225038528442,bottle,keyboard,0,0368_sty_s01_0_keyboard_00_keyboard-0081-ILSVRC2012-val-00028754.png
subject-01,1,369,0.729953050613403,dog,bird,0,0369_sty_s01_0_bird_00_bird-2433-ILSVRC2012-val-00028670.png
subject-01,1,370,0.645671844482422,dog,bear,0,0370_sty_s01_0_bear_00_bear-0143-ILSVRC2012-val-00044126.png
subject-01,1,371,1.15551090240479,cat,elephant,0,0371_sty_s01_0_elephant_00_elephant-0004-ILSVRC2012-val-00004882.png
subject-01,1,372,0.515542030334473,cat,oven,0,0372_sty_s01_0_oven_00_oven-0040-ILSVRC2012-val-00038775.png
subject-01,1,373,0.987375974655151,oven,truck,0,0373_sty_s01_0_truck_00_truck-0368-ILSVRC2012-val-00016410.png
subject-01,1,374,0.916958093643188,oven,knife,0,0374_sty_s01_0_knife_00_knife-0046-ILSVRC2012-val-00045197.png
subject-01,1,375,0.934785127639771,bottle,bottle,0,0375_sty_s01_0_bottle_00_bottle-0037-ILSVRC2012-val-00036359.png
subject-01,1,376,0.656671047210693,airplane,airplane,0,0376_sty_s01_0_airplane_00_airplane-0003-ILSVRC2012-val-00001506.png
subject-01,1,377,0.848546028137207,bear,bear,0,0377_sty_s01_0_bear_00_bear-0163-ILSVRC2012-val-00016513.png
subject-01,1,378,0.786345958709717,truck,car,0,0378_sty_s01_0_car_00_car-0082-ILSVRC2012-val-00027293.png
subject-01,1,379,1.10626602172852,oven,boat,0,0379_sty_s01_0_boat_00_boat-0061-ILSVRC2012-val-00011292.png
subject-01,1,380,0.811861991882324,elephant,elephant,0,0380_sty_s01_0_elephant_00_elephant-0083-ILSVRC2012-val-00033235.png
subject-01,1,381,0.549705982208252,keyboard,keyboard,0,0381_sty_s01_0_keyboard_00_keyboard-0015-ILSVRC2012-val-00012808.png
subject-01,1,382,0.791674852371216,elephant,elephant,0,0382_sty_s01_0_elephant_00_elephant-0080-ILSVRC2012-val-00030840.png
subject-01,1,383,0.491410970687866,oven,oven,0,0383_sty_s01_0_oven_00_oven-0007-ILSVRC2012-val-00005817.png
subject-01,1,384,0.779150009155273,truck,truck,0,0384_sty_s01_0_truck_00_truck-0192-ILSVRC2012-val-00042157.png
subject-01,1,385,1.30090403556824,keyboard,knife,0,0385_sty_s01_0_knife_00_knife-0008-ILSVRC2012-val-00006102.png
subject-01,1,386,0.641146898269653,bottle,airplane,0,0386_sty_s01_0_airplane_00_airplane-0041-ILSVRC2012-val-00040136.png
subject-01,1,387,0.922915935516357,elephant,boat,0,0387_sty_s01_0_boat_00_boat-0181-ILSVRC2012-val-00031072.png
subject-01,1,388,0.798839092254639,bear,bottle,0,0388_sty_s01_0_bottle_00_bottle-0039-ILSVRC2012-val-00038570.png
subject-01,1,389,0.65618109703064,bicycle,bicycle,0,0389_sty_s01_0_bicycle_00_bicycle-0078-ILSVRC2012-val-00030892.png
subject-01,1,390,1.11595797538757,bear,bear,0,0390_sty_s01_0_bear_00_bear-0106-ILSVRC2012-val-00007578.png
subject-01,1,391,0.897932052612305,bottle,keyboard,0,0391_sty_s01_0_keyboard_00_keyboard-0065-ILSVRC2012-val-00012212.png
subject-01,1,392,0.535840034484863,bear,bear,0,0392_sty_s01_0_bear_00_bear-0191-ILSVRC2012-val-00044349.png
subject-01,1,393,0.543448925018311,bear,bear,0,0393_sty_s01_0_bear_00_bear-0180-ILSVRC2012-val-00034637.png
subject-01,1,394,0.64729905128479,bicycle,bicycle,0,0394_sty_s01_0_bicycle_00_bicycle-0064-ILSVRC2012-val-00017103.png
subject-01,1,395,0.527115821838379,clock,clock,0,0395_sty_s01_0_clock_00_clock-0018-ILSVRC2012-val-00015871.png
subject-01,1,396,0.656916856765747,bear,bear,0,0396_sty_s01_0_bear_00_bear-0049-ILSVRC2012-val-00049822.png
subject-01,1,397,0.668776035308838,elephant,bottle,0,0397_sty_s01_0_bottle_00_bottle-0214-ILSVRC2012-val-00012572.png
subject-01,1,398,0.64251708984375,bottle,bottle,0,0398_sty_s01_0_bottle_00_bottle-0294-ILSVRC2012-val-00044222.png
subject-01,1,399,0.39636492729187,clock,clock,0,0399_sty_s01_0_clock_00_clock-0028-ILSVRC2012-val-00021179.png
subject-01,1,400,1.41219091415405,bear,bear,0,0400_sty_s01_0_bear_00_bear-0195-ILSVRC2012-val-00045672.png
subject-01,1,401,0.602192878723145,airplane,airplane,0,0401_sty_s01_0_airplane_00_airplane-0005-ILSVRC2012-val-00003960.png
subject-01,1,402,0.825675964355469,bear,chair,0,0402_sty_s01_0_chair_00_chair-0159-ILSVRC2012-val-00011028.png
subject-01,1,403,0.971987962722778,bear,elephant,0,0403_sty_s01_0_elephant_00_elephant-0074-ILSVRC2012-val-00022907.png
subject-01,1,404,0.64143180847168,cat,chair,0,0404_sty_s01_0_chair_00_chair-0138-ILSVRC2012-val-00038750.png
subject-01,1,405,0.795552015304565,bear,elephant,0,0405_sty_s01_0_elephant_00_elephant-0041-ILSVRC2012-val-00038720.png
subject-01,1,406,1.01502108573914,bird,bird,0,0406_sty_s01_0_bird_00_bird-0822-ILSVRC2012-val-00025200.png
subject-01,1,407,0.822829008102417,clock,clock,0,0407_sty_s01_0_clock_00_clock-0086-ILSVRC2012-val-00041483.png
subject-01,1,408,0.766674995422363,airplane,airplane,0,0408_sty_s01_0_airplane_00_airplane-0022-ILSVRC2012-val-00023781.png
subject-01,1,409,0.770447015762329,airplane,airplane,0,0409_sty_s01_0_airplane_00_airplane-0013-ILSVRC2012-val-00015636.png
subject-01,1,410,1.19828391075134,dog,cat,0,0410_sty_s01_0_cat_00_cat-0284-ILSVRC2012-val-00027069.png
subject-01,1,411,0.818146944046021,airplane,car,0,0411_sty_s01_0_car_00_car-0054-ILSVRC2012-val-00005500.png
subject-01,1,412,0.839946985244751,bicycle,bicycle,0,0412_sty_s01_0_bicycle_00_bicycle-0079-ILSVRC2012-val-00031485.png
subject-01,1,413,0.867838144302368,knife,boat,0,0413_sty_s01_0_boat_00_boat-0073-ILSVRC2012-val-00018158.png
subject-01,1,414,1.07392811775208,knife,chair,0,0414_sty_s01_0_chair_00_chair-0193-ILSVRC2012-val-00044295.png
subject-01,1,415,0.637370824813843,keyboard,keyboard,0,0415_sty_s01_0_keyboard_00_keyboard-0012-ILSVRC2012-val-00009502.png
subject-01,1,416,0.673079967498779,elephant,elephant,0,0416_sty_s01_0_elephant_00_elephant-0045-ILSVRC2012-val-00043193.png
subject-01,1,417,0.913198947906494,truck,knife,0,0417_sty_s01_0_knife_00_knife-0045-ILSVRC2012-val-00041660.png
subject-01,1,418,0.742655992507935,bird,bottle,0,0418_sty_s01_0_bottle_00_bottle-0138-ILSVRC2012-val-00032559.png
subject-01,1,419,0.496806144714355,bicycle,bicycle,0,0419_sty_s01_0_bicycle_00_bicycle-0035-ILSVRC2012-val-00033559.png
subject-01,1,420,0.570579051971436,bear,elephant,0,0420_sty_s01_0_elephant_00_elephant-0035-ILSVRC2012-val-00034035.png
subject-01,1,421,0.568090915679932,boat,boat,0,0421_sty_s01_0_boat_00_boat-0077-ILSVRC2012-val-00021948.png
subject-01,1,422,0.909997940063477,bear,dog,0,0422_sty_s01_0_dog_00_dog-3425-ILSVRC2012-val-00027086.png
subject-01,1,423,0.896227121353149,bicycle,oven,0,0423_sty_s01_0_oven_00_oven-0048-ILSVRC2012-val-00048271.png
subject-01,1,424,0.987498998641968,cat,oven,0,0424_sty_s01_0_oven_00_oven-0012-ILSVRC2012-val-00010756.png
subject-01,1,425,0.789690017700195,car,car,0,0425_sty_s01_0_car_00_car-0058-ILSVRC2012-val-00010676.png
subject-01,1,426,0.501672029495239,boat,boat,0,0426_sty_s01_0_boat_00_boat-0215-ILSVRC2012-val-00013403.png
subject-01,1,427,0.655065059661865,keyboard,car,0,0427_sty_s01_0_car_00_car-0001-ILSVRC2012-val-00000175.png
subject-01,1,428,0.590934991836548,bear,dog,0,0428_sty_s01_0_dog_00_dog-0247-ILSVRC2012-val-00045683.png
subject-01,1,429,0.554769992828369,bicycle,bicycle,0,0429_sty_s01_0_bicycle_00_bicycle-0038-ILSVRC2012-val-00036903.png
subject-01,1,430,0.614675998687744,bird,bird,0,0430_sty_s01_0_bird_00_bird-1326-ILSVRC2012-val-00025658.png
subject-01,1,431,0.5762619972229,car,car,0,0431_sty_s01_0_car_00_car-0145-ILSVRC2012-val-00041626.png
subject-01,1,432,0.542026042938232,elephant,elephant,0,0432_sty_s01_0_elephant_00_elephant-0024-ILSVRC2012-val-00022921.png
subject-01,1,433,0.563935041427612,elephant,elephant,0,0433_sty_s01_0_elephant_00_elephant-0081-ILSVRC2012-val-00032404.png
subject-01,1,434,0.61583399772644,cat,dog,0,0434_sty_s01_0_dog_00_dog-4689-ILSVRC2012-val-00034291.png
subject-01,1,435,0.597655057907104,bicycle,bicycle,0,0435_sty_s01_0_bicycle_00_bicycle-0048-ILSVRC2012-val-00045400.png
subject-01,1,436,0.525573015213013,bird,bird,0,0436_sty_s01_0_bird_00_bird-2322-ILSVRC2012-val-00023492.png
subject-01,1,437,1.17329788208008,clock,bottle,0,0437_sty_s01_0_bottle_00_bottle-0347-ILSVRC2012-val-00048539.png
subject-01,1,438,0.582865953445435,cat,cat,0,0438_sty_s01_0_cat_00_cat-0264-ILSVRC2012-val-00010823.png
subject-01,1,439,0.682710886001587,elephant,oven,0,0439_sty_s01_0_oven_00_oven-0027-ILSVRC2012-val-00024603.png
subject-01,1,440,0.910689115524292,elephant,bottle,0,0440_sty_s01_0_bottle_00_bottle-0154-ILSVRC2012-val-00003340.png
subject-01,1,441,1.07060098648071,oven,airplane,0,0441_sty_s01_0_airplane_00_airplane-0021-ILSVRC2012-val-00023316.png
subject-01,1,442,1.21623301506042,bicycle,bottle,0,0442_sty_s01_0_bottle_00_bottle-0153-ILSVRC2012-val-00003318.png
subject-01,1,443,0.862154006958008,bicycle,boat,0,0443_sty_s01_0_boat_00_boat-0170-ILSVRC2012-val-00020353.png
subject-01,1,444,0.909958839416504,keyboard,knife,0,0444_sty_s01_0_knife_00_knife-0031-ILSVRC2012-val-00027474.png
subject-01,1,445,0.479825019836426,cat,cat,0,0445_sty_s01_0_cat_00_cat-0073-ILSVRC2012-val-00020140.png
subject-01,1,446,0.805490970611572,clock,knife,0,0446_sty_s01_0_knife_00_knife-0048-ILSVRC2012-val-00048029.png
subject-01,1,447,0.645171165466309,clock,dog,0,0447_sty_s01_0_dog_00_dog-2876-ILSVRC2012-val-00027038.png
subject-01,1,448,0.749422073364258,bird,bird,0,0448_sty_s01_0_bird_00_bird-1646-ILSVRC2012-val-00039398.png
subject-01,1,449,0.714793920516968,bear,bear,0,0449_sty_s01_0_bear_00_bear-0112-ILSVRC2012-val-00016340.png
subject-01,1,450,1.00267791748047,bird,bird,0,0450_sty_s01_0_bird_00_bird-0426-ILSVRC2012-val-00030017.png
subject-01,1,451,1.04862999916077,bird,chair,0,0451_sty_s01_0_chair_00_chair-0172-ILSVRC2012-val-00023378.png
subject-01,1,452,0.674653053283691,cat,bottle,0,0452_sty_s01_0_bottle_00_bottle-0216-ILSVRC2012-val-00013262.png
subject-01,1,453,0.708120822906494,bottle,cat,0,0453_sty_s01_0_cat_00_cat-0165-ILSVRC2012-val-00017325.png
subject-01,1,454,0.646073818206787,car,car,0,0454_sty_s01_0_car_00_car-0010-ILSVRC2012-val-00012600.png
subject-01,1,455,0.655718088150024,elephant,oven,0,0455_sty_s01_0_oven_00_oven-0015-ILSVRC2012-val-00013982.png
subject-01,1,456,0.591629981994629,clock,clock,0,0456_sty_s01_0_clock_00_clock-0073-ILSVRC2012-val-00026298.png
subject-01,1,457,0.629392862319946,bottle,truck,0,0457_sty_s01_0_truck_00_truck-0027-ILSVRC2012-val-00025838.png
subject-01,1,458,0.579326868057251,keyboard,keyboard,0,0458_sty_s01_0_keyboard_00_keyboard-0054-ILSVRC2012-val-00001100.png
subject-01,1,459,0.741291046142578,boat,boat,0,0459_sty_s01_0_boat_00_boat-0011-ILSVRC2012-val-00011563.png
subject-01,1,460,0.718756914138794,bird,bird,0,0460_sty_s01_0_bird_00_bird-2118-ILSVRC2012-val-00021926.png
subject-01,1,461,0.822716951370239,elephant,elephant,0,0461_sty_s01_0_elephant_00_elephant-0033-ILSVRC2012-val-00033715.png
subject-01,1,462,0.590558052062988,keyboard,keyboard,0,0462_sty_s01_0_keyboard_00_keyboard-0083-ILSVRC2012-val-00036727.png
subject-01,1,463,0.960219144821167,bottle,clock,0,0463_sty_s01_0_clock_00_clock-0052-ILSVRC2012-val-00003721.png
subject-01,1,464,0.790074110031128,dog,dog,0,0464_sty_s01_0_dog_00_dog-4865-ILSVRC2012-val-00013670.png
subject-01,1,465,0.533970832824707,clock,clock,0,0465_sty_s01_0_clock_00_clock-0106-ILSVRC2012-val-00009413.png
subject-01,1,466,1.17982888221741,knife,bicycle,0,0466_sty_s01_0_bicycle_00_bicycle-0077-ILSVRC2012-val-00030112.png
subject-01,1,467,0.863707065582275,car,car,0,0467_sty_s01_0_car_00_car-0059-ILSVRC2012-val-00014010.png
subject-01,1,468,0.539434909820557,keyboard,keyboard,0,0468_sty_s01_0_keyboard_00_keyboard-0084-ILSVRC2012-val-00036957.png
subject-01,1,469,0.666980981826782,clock,bird,0,0469_sty_s01_0_bird_00_bird-1188-ILSVRC2012-val-00040014.png
subject-01,1,470,0.948855876922607,oven,oven,0,0470_sty_s01_0_oven_00_oven-0013-ILSVRC2012-val-00011779.png
subject-01,1,471,0.522803068161011,elephant,elephant,0,0471_sty_s01_0_elephant_00_elephant-0030-ILSVRC2012-val-00028996.png
subject-01,1,472,0.666944980621338,elephant,boat,0,0472_sty_s01_0_boat_00_boat-0064-ILSVRC2012-val-00013366.png
subject-01,1,473,0.678560018539429,cat,oven,0,0473_sty_s01_0_oven_00_oven-0038-ILSVRC2012-val-00038011.png
subject-01,1,474,0.902355909347534,elephant,cat,0,0474_sty_s01_0_cat_00_cat-0054-ILSVRC2012-val-00003295.png
subject-01,1,475,0.776281118392944,oven,bird,0,0475_sty_s01_0_bird_00_bird-2178-ILSVRC2012-val-00026510.png
subject-01,1,476,0.694319009780884,boat,airplane,0,0476_sty_s01_0_airplane_00_airplane-0044-ILSVRC2012-val-00043242.png
subject-01,1,477,0.628237962722778,bicycle,bicycle,0,0477_sty_s01_0_bicycle_00_bicycle-0015-ILSVRC2012-val-00015618.png
subject-01,1,478,0.561511993408203,bicycle,bicycle,0,0478_sty_s01_0_bicycle_00_bicycle-0014-ILSVRC2012-val-00015483.png
subject-01,1,479,0.649399042129517,keyboard,keyboard,0,0479_sty_s01_0_keyboard_00_keyboard-0058-ILSVRC2012-val-00007790.png
subject-01,1,480,0.721041917800903,bear,chair,0,0480_sty_s01_0_chair_00_chair-0189-ILSVRC2012-val-00041883.png
subject-01,1,481,0.677235841751099,keyboard,clock,0,0481_sty_s01_0_clock_00_clock-0054-ILSVRC2012-val-00008751.png
subject-01,1,482,0.833117961883545,dog,cat,0,0482_sty_s01_0_cat_00_cat-0236-ILSVRC2012-val-00031185.png
subject-01,1,483,0.604655981063843,keyboard,airplane,0,0483_sty_s01_0_airplane_00_airplane-0019-ILSVRC2012-val-00022532.png
subject-01,1,484,0.850507974624634,bird,bird,0,0484_sty_s01_0_bird_00_bird-0995-ILSVRC2012-val-00046534.png
subject-01,1,485,0.832978010177612,car,car,0,0485_sty_s01_0_car_00_car-0134-ILSVRC2012-val-00032944.png
subject-01,1,486,0.658477067947388,dog,dog,0,0486_sty_s01_0_dog_00_dog-2889-ILSVRC2012-val-00043272.png
subject-01,1,487,0.79597806930542,airplane,chair,0,0487_sty_s01_0_chair_00_chair-0123-ILSVRC2012-val-00020924.png
subject-01,1,488,0.517940998077393,airplane,airplane,0,0488_sty_s01_0_airplane_00_airplane-0038-ILSVRC2012-val-00036394.png
subject-01,1,489,0.623837947845459,knife,knife,0,0489_sty_s01_0_knife_00_knife-0023-ILSVRC2012-val-00020998.png
subject-01,1,490,0.681398868560791,car,car,0,0490_sty_s01_0_car_00_car-0028-ILSVRC2012-val-00027049.png
subject-01,1,491,0.541255950927734,car,truck,0,0491_sty_s01_0_truck_00_truck-0121-ILSVRC2012-val-00018768.png
subject-01,1,492,0.833522081375122,bird,bird,0,0492_sty_s01_0_bird_00_bird-0238-ILSVRC2012-val-00030657.png
subject-01,1,493,0.44684886932373,bicycle,bicycle,0,0493_sty_s01_0_bicycle_00_bicycle-0040-ILSVRC2012-val-00037433.png
subject-01,1,494,0.811176061630249,oven,oven,0,0494_sty_s01_0_oven_00_oven-0003-ILSVRC2012-val-00002864.png
subject-01,1,495,0.560567855834961,clock,clock,0,0495_sty_s01_0_clock_00_clock-0039-ILSVRC2012-val-00033429.png
subject-01,1,496,1.11244010925293,cat,bottle,0,0496_sty_s01_0_bottle_00_bottle-0032-ILSVRC2012-val-00034979.png
subject-01,1,497,0.788280963897705,keyboard,car,0,0497_sty_s01_0_car_00_car-0096-ILSVRC2012-val-00043824.png
subject-01,1,498,0.714087009429932,cat,knife,0,0498_sty_s01_0_knife_00_knife-0006-ILSVRC2012-val-00004379.png
subject-01,1,499,0.868034839630127,elephant,elephant,0,0499_sty_s01_0_elephant_00_elephant-0088-ILSVRC2012-val-00036121.png
subject-01,1,500,0.697606086730957,truck,truck,0,0500_sty_s01_0_truck_00_truck-0060-ILSVRC2012-val-00007519.png
subject-01,1,501,0.613872051239014,keyboard,keyboard,0,0501_sty_s01_0_keyboard_00_keyboard-0057-ILSVRC2012-val-00005863.png
subject-01,1,502,1.10924601554871,keyboard,knife,0,0502_sty_s01_0_knife_00_knife-0016-ILSVRC2012-val-00012885.png
subject-01,1,503,1.30727195739746,knife,boat,0,0503_sty_s01_0_boat_00_boat-0026-ILSVRC2012-val-00026341.png
subject-01,1,504,0.764909982681274,cat,cat,0,0504_sty_s01_0_cat_00_cat-0247-ILSVRC2012-val-00044374.png
subject-01,1,505,0.868602991104126,bear,knife,0,0505_sty_s01_0_knife_00_knife-0050-ILSVRC2012-val-00048891.png
subject-01,1,506,0.872614860534668,bear,bear,0,0506_sty_s01_0_bear_00_bear-0184-ILSVRC2012-val-00038961.png
subject-01,1,507,0.662250995635986,bird,bird,0,0507_sty_s01_0_bird_00_bird-1172-ILSVRC2012-val-00022442.png
subject-01,1,508,0.650126934051514,cat,bottle,0,0508_sty_s01_0_bottle_00_bottle-0283-ILSVRC2012-val-00036864.png
subject-01,1,509,0.750015020370483,elephant,elephant,0,0509_sty_s01_0_elephant_00_elephant-0022-ILSVRC2012-val-00022028.png
subject-01,1,510,0.761698007583618,dog,dog,0,0510_sty_s01_0_dog_00_dog-0397-ILSVRC2012-val-00044140.png
subject-01,1,511,0.816114902496338,dog,dog,0,0511_sty_s01_0_dog_00_dog-3802-ILSVRC2012-val-00003862.png
subject-01,1,512,1.12935614585876,bear,bottle,0,0512_sty_s01_0_bottle_00_bottle-0022-ILSVRC2012-val-00022396.png
subject-01,1,513,0.529612064361572,cat,chair,0,0513_sty_s01_0_chair_00_chair-0050-ILSVRC2012-val-00049050.png
subject-01,1,514,0.723083019256592,car,car,0,0514_sty_s01_0_car_00_car-0053-ILSVRC2012-val-00004685.png
subject-01,1,515,0.704801082611084,elephant,elephant,0,0515_sty_s01_0_elephant_00_elephant-0098-ILSVRC2012-val-00047540.png
subject-01,1,516,1.06867408752441,car,bicycle,0,0516_sty_s01_0_bicycle_00_bicycle-0044-ILSVRC2012-val-00040027.png
subject-01,1,517,0.948394060134888,bear,cat,0,0517_sty_s01_0_cat_00_cat-0056-ILSVRC2012-val-00007676.png
subject-01,1,518,0.872173070907593,airplane,boat,0,0518_sty_s01_0_boat_00_boat-0129-ILSVRC2012-val-00027504.png
subject-01,1,519,0.684023857116699,boat,knife,0,0519_sty_s01_0_knife_00_knife-0040-ILSVRC2012-val-00038348.png
subject-01,1,520,0.673857927322388,cat,dog,0,0520_sty_s01_0_dog_00_dog-2321-ILSVRC2012-val-00015164.png
subject-01,1,521,0.521790981292725,clock,clock,0,0521_sty_s01_0_clock_00_clock-0034-ILSVRC2012-val-00026380.png
subject-01,1,522,0.637726068496704,bear,knife,0,0522_sty_s01_0_knife_00_knife-0042-ILSVRC2012-val-00039665.png
subject-01,1,523,0.575402021408081,car,car,0,0523_sty_s01_0_car_00_car-0110-ILSVRC2012-val-00006285.png
subject-01,1,524,0.839030981063843,dog,knife,0,0524_sty_s01_0_knife_00_knife-0020-ILSVRC2012-val-00015679.png
subject-01,1,525,0.610955953598022,dog,dog,0,0525_sty_s01_0_dog_00_dog-3044-ILSVRC2012-val-00034485.png
subject-01,1,526,0.763169050216675,cat,bird,0,0526_sty_s01_0_bird_00_bird-0486-ILSVRC2012-val-00037420.png
subject-01,1,527,1.12050795555115,elephant,knife,0,0527_sty_s01_0_knife_00_knife-0044-ILSVRC2012-val-00040170.png
subject-01,1,528,0.616384983062744,cat,dog,0,0528_sty_s01_0_dog_00_dog-2211-ILSVRC2012-val-00010402.png
subject-01,1,529,1.12270307540894,bird,bear,0,0529_sty_s01_0_bear_00_bear-0114-ILSVRC2012-val-00017605.png
subject-01,1,530,0.580370187759399,clock,car,0,0530_sty_s01_0_car_00_car-0012-ILSVRC2012-val-00014447.png
subject-01,1,531,0.870408058166504,cat,bottle,0,0531_sty_s01_0_bottle_00_bottle-0222-ILSVRC2012-val-00018657.png
subject-01,1,532,0.685880899429321,oven,keyboard,0,0532_sty_s01_0_keyboard_00_keyboard-0073-ILSVRC2012-val-00019503.png
subject-01,1,533,0.825613021850586,keyboard,boat,0,0533_sty_s01_0_boat_00_boat-0172-ILSVRC2012-val-00020894.png
subject-01,1,534,0.585761785507202,cat,chair,0,0534_sty_s01_0_chair_00_chair-0040-ILSVRC2012-val-00042512.png
subject-01,1,535,0.940924882888794,elephant,oven,0,0535_sty_s01_0_oven_00_oven-0024-ILSVRC2012-val-00021187.png
subject-01,1,536,1.27477407455444,dog,oven,0,0536_sty_s01_0_oven_00_oven-0050-ILSVRC2012-val-00049391.png
subject-01,1,537,0.526649951934814,cat,bear,0,0537_sty_s01_0_bear_00_bear-0113-ILSVRC2012-val-00016459.png
subject-01,1,538,0.672869920730591,keyboard,keyboard,0,0538_sty_s01_0_keyboard_00_keyboard-0010-ILSVRC2012-val-00007754.png
subject-01,1,539,0.438442945480347,boat,boat,0,0539_sty_s01_0_boat_00_boat-0217-ILSVRC2012-val-00015089.png
subject-01,1,540,0.764125823974609,elephant,elephant,0,0540_sty_s01_0_elephant_00_elephant-0051-ILSVRC2012-val-00001177.png
subject-01,1,541,0.96179986000061,airplane,bear,0,0541_sty_s01_0_bear_00_bear-0129-ILSVRC2012-val-00030485.png
subject-01,1,542,0.778090000152588,keyboard,airplane,0,0542_sty_s01_0_airplane_00_airplane-0026-ILSVRC2012-val-00026189.png
subject-01,1,543,0.813650131225586,oven,chair,0,0543_sty_s01_0_chair_00_chair-0098-ILSVRC2012-val-00044181.png
subject-01,1,544,0.521405935287476,car,car,0,0544_sty_s01_0_car_00_car-0005-ILSVRC2012-val-00006220.png
subject-01,1,545,1.0776629447937,airplane,airplane,0,0545_sty_s01_0_airplane_00_airplane-0032-ILSVRC2012-val-00032804.png
subject-01,1,546,0.635173797607422,oven,oven,0,0546_sty_s01_0_oven_00_oven-0005-ILSVRC2012-val-00004125.png
subject-01,1,547,0.586700916290283,bottle,bottle,0,0547_sty_s01_0_bottle_00_bottle-0107-ILSVRC2012-val-00008313.png
subject-01,1,548,0.808603048324585,bottle,chair,0,0548_sty_s01_0_chair_00_chair-0160-ILSVRC2012-val-00012040.png
subject-01,1,549,0.932484865188599,boat,airplane,0,0549_sty_s01_0_airplane_00_airplane-0046-ILSVRC2012-val-00046862.png
subject-01,1,550,0.576163053512573,keyboard,keyboard,0,0550_sty_s01_0_keyboard_00_keyboard-0086-ILSVRC2012-val-00037986.png
subject-01,1,551,0.450142860412598,clock,clock,0,0551_sty_s01_0_clock_00_clock-0023-ILSVRC2012-val-00017973.png
subject-01,1,552,0.66382908821106,boat,bird,0,0552_sty_s01_0_bird_00_bird-0624-ILSVRC2012-val-00024514.png
subject-01,1,553,0.579658031463623,car,truck,0,0553_sty_s01_0_truck_00_truck-0213-ILSVRC2012-val-00016098.png
subject-01,1,554,0.801701068878174,boat,boat,0,0554_sty_s01_0_boat_00_boat-0165-ILSVRC2012-val-00014242.png
subject-01,1,555,0.687278032302856,car,car,0,0555_sty_s01_0_car_00_car-0121-ILSVRC2012-val-00016638.png
subject-01,1,556,0.979041814804077,bear,bear,0,0556_sty_s01_0_bear_00_bear-0094-ILSVRC2012-val-00043648.png
subject-01,1,557,0.66700005531311,elephant,elephant,0,0557_sty_s01_0_elephant_00_elephant-0029-ILSVRC2012-val-00027259.png
subject-01,1,558,0.470803022384644,truck,truck,0,0558_sty_s01_0_truck_00_truck-0079-ILSVRC2012-val-00028914.png
subject-01,1,559,0.680997133255005,cat,cat,0,0559_sty_s01_0_cat_00_cat-0005-ILSVRC2012-val-00005358.png
subject-01,1,560,0.870596170425415,car,truck,0,0560_sty_s01_0_truck_00_truck-0134-ILSVRC2012-val-00035864.png
subject-01,1,561,0.946428060531616,keyboard,knife,0,0561_sty_s01_0_knife_00_knife-0018-ILSVRC2012-val-00014608.png
subject-01,1,562,0.912431955337524,airplane,bird,0,0562_sty_s01_0_bird_00_bird-0896-ILSVRC2012-val-00046621.png
subject-01,1,563,0.634289026260376,bear,bear,0,0563_sty_s01_0_bear_00_bear-0009-ILSVRC2012-val-00011967.png
subject-01,1,564,0.897686004638672,boat,chair,0,0564_sty_s01_0_chair_00_chair-0116-ILSVRC2012-val-00017447.png
subject-01,1,565,0.565769195556641,boat,boat,0,0565_sty_s01_0_boat_00_boat-0107-ILSVRC2012-val-00004492.png
subject-01,1,566,0.633218050003052,car,truck,0,0566_sty_s01_0_truck_00_truck-0196-ILSVRC2012-val-00044805.png
subject-01,1,567,0.899271011352539,dog,dog,0,0567_sty_s01_0_dog_00_dog-4933-ILSVRC2012-val-00033357.png
subject-01,1,568,0.62112283706665,car,truck,0,0568_sty_s01_0_truck_00_truck-0112-ILSVRC2012-val-00013466.png
subject-01,1,569,0.528548002243042,cat,cat,0,0569_sty_s01_0_cat_00_cat-0243-ILSVRC2012-val-00040600.png
subject-01,1,570,0.790478944778442,truck,bear,0,0570_sty_s01_0_bear_00_bear-0003-ILSVRC2012-val-00003044.png
subject-01,1,571,1.21817898750305,airplane,elephant,0,0571_sty_s01_0_elephant_00_elephant-0096-ILSVRC2012-val-00046061.png
subject-01,1,572,0.630264043807983,keyboard,boat,0,0572_sty_s01_0_boat_00_boat-0169-ILSVRC2012-val-00019970.png
subject-01,1,573,0.79610800743103,boat,boat,0,0573_sty_s01_0_boat_00_boat-0053-ILSVRC2012-val-00005918.png
subject-01,1,574,0.53165602684021,car,car,0,0574_sty_s01_0_car_00_car-0087-ILSVRC2012-val-00031558.png
subject-01,1,575,0.739630222320557,car,bicycle,0,0575_sty_s01_0_bicycle_00_bicycle-0008-ILSVRC2012-val-00008007.png
subject-01,1,576,0.513386011123657,boat,boat,0,0576_sty_s01_0_boat_00_boat-0179-ILSVRC2012-val-00026763.png
subject-01,1,577,0.863642930984497,airplane,boat,0,0577_sty_s01_0_boat_00_boat-0086-ILSVRC2012-val-00039559.png
subject-01,1,578,1.0972740650177,bottle,bottle,0,0578_sty_s01_0_bottle_00_bottle-0243-ILSVRC2012-val-00040157.png
subject-01,1,579,0.936651945114136,dog,dog,0,0579_sty_s01_0_dog_00_dog-1191-ILSVRC2012-val-00037989.png
subject-01,1,580,0.572516918182373,boat,airplane,0,0580_sty_s01_0_airplane_00_airplane-0028-ILSVRC2012-val-00028019.png
subject-01,1,581,1.34063601493835,bottle,keyboard,0,0581_sty_s01_0_keyboard_00_keyboard-0016-ILSVRC2012-val-00014436.png
subject-01,1,582,0.586163997650146,bottle,bottle,0,0582_sty_s01_0_bottle_00_bottle-0126-ILSVRC2012-val-00022079.png
subject-01,1,583,1.43993306159973,elephant,bear,0,0583_sty_s01_0_bear_00_bear-0166-ILSVRC2012-val-00022111.png
subject-01,1,584,1.18795204162598,airplane,oven,0,0584_sty_s01_0_oven_00_oven-0047-ILSVRC2012-val-00047123.png
subject-01,1,585,0.80772590637207,keyboard,knife,0,0585_sty_s01_0_knife_00_knife-0034-ILSVRC2012-val-00029248.png
subject-01,1,586,0.497425079345703,keyboard,keyboard,0,0586_sty_s01_0_keyboard_00_keyboard-0055-ILSVRC2012-val-00001330.png
subject-01,1,587,0.631760835647583,oven,boat,0,0587_sty_s01_0_boat_00_boat-0066-ILSVRC2012-val-00013961.png
subject-01,1,588,0.706973075866699,car,car,0,0588_sty_s01_0_car_00_car-0139-ILSVRC2012-val-00037952.png
subject-01,1,589,0.736886024475098,car,truck,0,0589_sty_s01_0_truck_00_truck-0274-ILSVRC2012-val-00021717.png
subject-01,1,590,0.725231170654297,car,truck,0,0590_sty_s01_0_truck_00_truck-0301-ILSVRC2012-val-00000671.png
subject-01,1,591,0.626784801483154,dog,dog,0,0591_sty_s01_0_dog_00_dog-0158-ILSVRC2012-val-00004081.png
subject-01,1,592,1.05267405509949,dog,dog,0,0592_sty_s01_0_dog_00_dog-0386-ILSVRC2012-val-00034616.png
subject-01,1,593,0.644271850585938,oven,oven,0,0593_sty_s01_0_oven_00_oven-0031-ILSVRC2012-val-00029125.png
subject-01,1,594,0.714108943939209,elephant,chair,0,0594_sty_s01_0_chair_00_chair-0181-ILSVRC2012-val-00033160.png
subject-01,1,595,0.805962085723877,keyboard,chair,0,0595_sty_s01_0_chair_00_chair-0196-ILSVRC2012-val-00045844.png
subject-01,1,596,0.617619037628174,bird,bird,0,0596_sty_s01_0_bird_00_bird-0045-ILSVRC2012-val-00045547.png
subject-01,1,597,0.947792053222656,bear,bear,0,0597_sty_s01_0_bear_00_bear-0160-ILSVRC2012-val-00013052.png
subject-01,1,598,1.06712508201599,bird,bird,0,0598_sty_s01_0_bird_00_bird-0522-ILSVRC2012-val-00020730.png
subject-01,1,599,0.743415832519531,bird,bird,0,0599_sty_s01_0_bird_00_bird-1551-ILSVRC2012-val-00000690.png
subject-01,1,600,0.67094898223877,bottle,bottle,0,0600_sty_s01_0_bottle_00_bottle-0205-ILSVRC2012-val-00003263.png
subject-01,1,601,0.944566011428833,car,bicycle,0,0601_sty_s01_0_bicycle_00_bicycle-0037-ILSVRC2012-val-00036009.png
subject-01,1,602,0.696432113647461,car,car,0,0602_sty_s01_0_car_00_car-0045-ILSVRC2012-val-00042416.png
subject-01,1,603,0.898386001586914,bicycle,bicycle,0,0603_sty_s01_0_bicycle_00_bicycle-0060-ILSVRC2012-val-00011330.png
subject-01,1,604,0.835962057113647,elephant,elephant,0,0604_sty_s01_0_elephant_00_elephant-0026-ILSVRC2012-val-00023589.png
subject-01,1,605,0.678098917007446,cat,knife,0,0605_sty_s01_0_knife_00_knife-0012-ILSVRC2012-val-00009369.png
subject-01,1,606,0.717691898345947,keyboard,cat,0,0606_sty_s01_0_cat_00_cat-0108-ILSVRC2012-val-00002967.png
subject-01,1,607,0.671716928482056,cat,bird,0,0607_sty_s01_0_bird_00_bird-2248-ILSVRC2012-val-00044992.png
subject-01,1,608,0.887403011322021,bicycle,bicycle,0,0608_sty_s01_0_bicycle_00_bicycle-0016-ILSVRC2012-val-00016532.png
subject-01,1,609,0.989229917526245,boat,knife,0,0609_sty_s01_0_knife_00_knife-0025-ILSVRC2012-val-00022700.png
subject-01,1,610,0.942888975143433,elephant,chair,0,0610_sty_s01_0_chair_00_chair-0045-ILSVRC2012-val-00044898.png
subject-01,1,611,0.817214965820312,bear,boat,0,0611_sty_s01_0_boat_00_boat-0100-ILSVRC2012-val-00048371.png
subject-01,1,612,0.652592897415161,car,car,0,0612_sty_s01_0_car_00_car-0146-ILSVRC2012-val-00043297.png
subject-01,1,613,0.718780994415283,bicycle,bird,0,0613_sty_s01_0_bird_00_bird-2222-ILSVRC2012-val-00015392.png
subject-01,1,614,0.750153064727783,knife,bottle,0,0614_sty_s01_0_bottle_00_bottle-0189-ILSVRC2012-val-00040070.png
subject-01,1,615,0.73599910736084,airplane,airplane,0,0615_sty_s01_0_airplane_00_airplane-0004-ILSVRC2012-val-00001952.png
subject-01,1,616,0.905757904052734,bear,cat,0,0616_sty_s01_0_cat_00_cat-0258-ILSVRC2012-val-00006112.png
subject-01,1,617,0.749541044235229,bear,bear,0,0617_sty_s01_0_bear_00_bear-0132-ILSVRC2012-val-00036763.png
subject-01,1,618,0.841710090637207,bird,bird,0,0618_sty_s01_0_bird_00_bird-0157-ILSVRC2012-val-00005336.png
subject-01,1,619,0.513370990753174,cat,cat,0,0619_sty_s01_0_cat_00_cat-0031-ILSVRC2012-val-00030706.png
subject-01,1,620,0.515229225158691,bicycle,bird,0,0620_sty_s01_0_bird_00_bird-0228-ILSVRC2012-val-00017712.png
subject-01,1,621,0.616973876953125,boat,boat,0,0621_sty_s01_0_boat_00_boat-0236-ILSVRC2012-val-00032584.png
subject-01,1,622,0.822638988494873,bird,knife,0,0622_sty_s01_0_knife_00_knife-0014-ILSVRC2012-val-00010886.png
subject-01,1,623,1.14105296134949,cat,clock,0,0623_sty_s01_0_clock_00_clock-0092-ILSVRC2012-val-00044168.png
subject-01,1,624,0.534304857254028,bird,bird,0,0624_sty_s01_0_bird_00_bird-1198-ILSVRC2012-val-00048142.png
subject-01,1,625,0.596511125564575,bicycle,bicycle,0,0625_sty_s01_0_bicycle_00_bicycle-0085-ILSVRC2012-val-00037438.png
subject-01,1,626,0.699810981750488,oven,oven,0,0626_sty_s01_0_oven_00_oven-0030-ILSVRC2012-val-00028507.png
subject-01,1,627,0.679725885391235,bear,chair,0,0627_sty_s01_0_chair_00_chair-0033-ILSVRC2012-val-00031805.png
subject-01,1,628,0.781572103500366,bottle,chair,0,0628_sty_s01_0_chair_00_chair-0030-ILSVRC2012-val-00026896.png
subject-01,1,629,0.551411151885986,bear,bear,0,0629_sty_s01_0_bear_00_bear-0035-ILSVRC2012-val-00042274.png
subject-01,1,630,0.611287117004395,oven,oven,0,0630_sty_s01_0_oven_00_oven-0032-ILSVRC2012-val-00029341.png
subject-01,1,631,0.545510053634644,clock,knife,0,0631_sty_s01_0_knife_00_knife-0049-ILSVRC2012-val-00048820.png
subject-01,1,632,0.894860029220581,bear,dog,0,0632_sty_s01_0_dog_00_dog-4954-ILSVRC2012-val-00002882.png
subject-01,1,633,0.692488193511963,clock,clock,0,0633_sty_s01_0_clock_00_clock-0084-ILSVRC2012-val-00034426.png
subject-01,1,634,0.66227912902832,elephant,elephant,0,0634_sty_s01_0_elephant_00_elephant-0084-ILSVRC2012-val-00033832.png
subject-01,1,635,0.810407876968384,bicycle,truck,0,0635_sty_s01_0_truck_00_truck-0184-ILSVRC2012-val-00032494.png
subject-01,1,636,1.19416880607605,bicycle,bicycle,0,0636_sty_s01_0_bicycle_00_bicycle-0092-ILSVRC2012-val-00043207.png
subject-01,1,637,0.809762954711914,bear,airplane,0,0637_sty_s01_0_airplane_00_airplane-0043-ILSVRC2012-val-00041518.png
subject-01,1,638,0.549703121185303,bicycle,bicycle,0,0638_sty_s01_0_bicycle_00_bicycle-0067-ILSVRC2012-val-00018304.png
subject-01,1,639,0.767637014389038,dog,dog,0,0639_sty_s01_0_dog_00_dog-2368-ILSVRC2012-val-00011895.png
subject-01,1,640,0.579324960708618,cat,cat,0,0640_sty_s01_0_cat_00_cat-0150-ILSVRC2012-val-00049996.png
subject-01,1,641,0.609766960144043,keyboard,keyboard,0,0641_sty_s01_0_keyboard_00_keyboard-0076-ILSVRC2012-val-00022077.png
subject-01,1,642,0.561599016189575,bear,cat,0,0642_sty_s01_0_cat_00_cat-0062-ILSVRC2012-val-00013788.png
subject-01,1,643,0.561507940292358,car,car,0,0643_sty_s01_0_car_00_car-0067-ILSVRC2012-val-00018569.png
subject-01,1,644,0.817255020141602,dog,dog,0,0644_sty_s01_0_dog_00_dog-4914-ILSVRC2012-val-00011316.png
subject-01,1,645,0.631099939346313,keyboard,keyboard,0,0645_sty_s01_0_keyboard_00_keyboard-0006-ILSVRC2012-val-00002499.png
subject-01,1,646,0.61280083656311,keyboard,keyboard,0,0646_sty_s01_0_keyboard_00_keyboard-0047-ILSVRC2012-val-00046306.png
subject-01,1,647,0.444622993469238,clock,clock,0,0647_sty_s01_0_clock_00_clock-0001-ILSVRC2012-val-00001011.png
subject-01,1,648,0.696415901184082,cat,cat,0,0648_sty_s01_0_cat_00_cat-0012-ILSVRC2012-val-00012377.png
subject-01,1,649,1.17612314224243,keyboard,bottle,0,0649_sty_s01_0_bottle_00_bottle-0059-ILSVRC2012-val-00008984.png
subject-01,1,650,1.03198385238647,truck,truck,0,0650_sty_s01_0_truck_00_truck-0022-ILSVRC2012-val-00023423.png
subject-01,1,651,0.694010019302368,bird,bird,0,0651_sty_s01_0_bird_00_bird-1256-ILSVRC2012-val-00005779.png
subject-01,1,652,0.747911930084229,cat,cat,0,0652_sty_s01_0_cat_00_cat-0118-ILSVRC2012-val-00010218.png
subject-01,1,653,0.891460180282593,clock,clock,0,0653_sty_s01_0_clock_00_clock-0032-ILSVRC2012-val-00024425.png
subject-01,1,654,0.775228023529053,cat,chair,0,0654_sty_s01_0_chair_00_chair-0039-ILSVRC2012-val-00041772.png
subject-01,1,655,0.7672278881073,bottle,bottle,0,0655_sty_s01_0_bottle_00_bottle-0030-ILSVRC2012-val-00032921.png
subject-01,1,656,0.9650559425354,knife,bird,0,0656_sty_s01_0_bird_00_bird-2184-ILSVRC2012-val-00034910.png
subject-01,1,657,0.778653144836426,truck,truck,0,0657_sty_s01_0_truck_00_truck-0094-ILSVRC2012-val-00042802.png
subject-01,1,658,1.19847297668457,dog,elephant,0,0658_sty_s01_0_elephant_00_elephant-0090-ILSVRC2012-val-00037659.png
subject-01,1,659,0.776441097259521,boat,airplane,0,0659_sty_s01_0_airplane_00_airplane-0037-ILSVRC2012-val-00035783.png
subject-01,1,660,0.692529916763306,clock,knife,0,0660_sty_s01_0_knife_00_knife-0027-ILSVRC2012-val-00025279.png
subject-01,1,661,0.699882030487061,car,truck,0,0661_sty_s01_0_truck_00_truck-0107-ILSVRC2012-val-00007374.png
subject-01,1,662,0.651765108108521,bottle,bottle,0,0662_sty_s01_0_bottle_00_bottle-0127-ILSVRC2012-val-00023580.png
subject-01,1,663,0.549691915512085,bicycle,bicycle,0,0663_sty_s01_0_bicycle_00_bicycle-0043-ILSVRC2012-val-00038415.png
subject-01,1,664,0.491514921188354,chair,chair,0,0664_sty_s01_0_chair_00_chair-0087-ILSVRC2012-val-00037905.png
subject-01,1,665,0.863093137741089,bird,bird,0,0665_sty_s01_0_bird_00_bird-0513-ILSVRC2012-val-00013223.png
subject-01,1,666,0.756879091262817,elephant,elephant,0,0666_sty_s01_0_elephant_00_elephant-0057-ILSVRC2012-val-00004013.png
subject-01,1,667,0.936891078948975,dog,oven,0,0667_sty_s01_0_oven_00_oven-0004-ILSVRC2012-val-00003075.png
subject-01,1,668,0.588670015335083,bottle,bottle,0,0668_sty_s01_0_bottle_00_bottle-0086-ILSVRC2012-val-00036795.png
subject-01,1,669,0.640455007553101,car,car,0,0669_sty_s01_0_car_00_car-0149-ILSVRC2012-val-00049427.png
subject-01,1,670,0.91433310508728,cat,chair,0,0670_sty_s01_0_chair_00_chair-0058-ILSVRC2012-val-00005926.png
subject-01,1,671,0.838157892227173,cat,cat,0,0671_sty_s01_0_cat_00_cat-0186-ILSVRC2012-val-00039580.png
subject-01,1,672,0.87187385559082,car,car,0,0672_sty_s01_0_car_00_car-0091-ILSVRC2012-val-00036091.png
subject-01,1,673,0.773875951766968,boat,keyboard,0,0673_sty_s01_0_keyboard_00_keyboard-0004-ILSVRC2012-val-00001089.png
subject-01,1,674,0.543382883071899,keyboard,keyboard,0,0674_sty_s01_0_keyboard_00_keyboard-0085-ILSVRC2012-val-00037048.png
subject-01,1,675,0.745449066162109,cat,knife,0,0675_sty_s01_0_knife_00_knife-0017-ILSVRC2012-val-00014528.png
subject-01,1,676,1.46701908111572,bear,dog,0,0676_sty_s01_0_dog_00_dog-3841-ILSVRC2012-val-00038789.png
subject-01,1,677,1.40094614028931,oven,knife,0,0677_sty_s01_0_knife_00_knife-0005-ILSVRC2012-val-00003462.png
subject-01,1,678,0.555261135101318,elephant,elephant,0,0678_sty_s01_0_elephant_00_elephant-0091-ILSVRC2012-val-00038578.png
subject-01,1,679,0.538566112518311,clock,clock,0,0679_sty_s01_0_clock_00_clock-0076-ILSVRC2012-val-00028203.png
subject-01,1,680,0.602579116821289,bottle,bottle,0,0680_sty_s01_0_bottle_00_bottle-0172-ILSVRC2012-val-00021707.png
subject-01,1,681,0.552207946777344,elephant,elephant,0,0681_sty_s01_0_elephant_00_elephant-0036-ILSVRC2012-val-00034664.png
subject-01,1,682,0.791897058486938,car,truck,0,0682_sty_s01_0_truck_00_truck-0142-ILSVRC2012-val-00043939.png
subject-01,1,683,0.523958921432495,keyboard,keyboard,0,0683_sty_s01_0_keyboard_00_keyboard-0024-ILSVRC2012-val-00025409.png
subject-01,1,684,0.559685945510864,airplane,airplane,0,0684_sty_s01_0_airplane_00_airplane-0050-ILSVRC2012-val-00049097.png
subject-01,1,685,0.907516956329346,keyboard,oven,0,0685_sty_s01_0_oven_00_oven-0022-ILSVRC2012-val-00020361.png
subject-01,1,686,0.679142951965332,airplane,airplane,0,0686_sty_s01_0_airplane_00_airplane-0017-ILSVRC2012-val-00019179.png
subject-01,1,687,0.593148946762085,bear,dog,0,0687_sty_s01_0_dog_00_dog-0303-ILSVRC2012-val-00002521.png
subject-01,1,688,0.586895942687988,keyboard,keyboard,0,0688_sty_s01_0_keyboard_00_keyboard-0067-ILSVRC2012-val-00013266.png
subject-01,1,689,0.764827966690063,car,chair,0,0689_sty_s01_0_chair_00_chair-0133-ILSVRC2012-val-00033406.png
subject-01,1,690,0.784543037414551,airplane,airplane,0,0690_sty_s01_0_airplane_00_airplane-0009-ILSVRC2012-val-00011168.png
subject-01,1,691,0.944307088851929,dog,boat,0,0691_sty_s01_0_boat_00_boat-0225-ILSVRC2012-val-00022075.png
subject-01,1,692,0.514214038848877,cat,cat,0,0692_sty_s01_0_cat_00_cat-0242-ILSVRC2012-val-00040192.png
subject-01,1,693,0.808355093002319,oven,boat,0,0693_sty_s01_0_boat_00_boat-0218-ILSVRC2012-val-00015121.png
subject-01,1,694,0.927852153778076,knife,bicycle,0,0694_sty_s01_0_bicycle_00_bicycle-0062-ILSVRC2012-val-00015867.png
subject-01,1,695,1.26147198677063,clock,bottle,0,0695_sty_s01_0_bottle_00_bottle-0195-ILSVRC2012-val-00045644.png
subject-01,1,696,0.981629848480225,boat,boat,0,0696_sty_s01_0_boat_00_boat-0195-ILSVRC2012-val-00042203.png
subject-01,1,697,0.611372947692871,chair,chair,0,0697_sty_s01_0_chair_00_chair-0022-ILSVRC2012-val-00016403.png
subject-01,1,698,0.831171989440918,airplane,clock,0,0698_sty_s01_0_clock_00_clock-0143-ILSVRC2012-val-00041547.png
subject-01,1,699,0.626964092254639,keyboard,knife,0,0699_sty_s01_0_knife_00_knife-0001-ILSVRC2012-val-00000564.png
subject-01,1,700,1.0504732131958,airplane,oven,0,0700_sty_s01_0_oven_00_oven-0017-ILSVRC2012-val-00015514.png
subject-01,1,701,0.868560075759888,boat,clock,0,0701_sty_s01_0_clock_00_clock-0089-ILSVRC2012-val-00042911.png
subject-01,1,702,0.77420711517334,bear,knife,0,0702_sty_s01_0_knife_00_knife-0022-ILSVRC2012-val-00019358.png
subject-01,1,703,0.622097015380859,clock,clock,0,0703_sty_s01_0_clock_00_clock-0129-ILSVRC2012-val-00031861.png
subject-01,1,704,0.601969957351685,airplane,airplane,0,0704_sty_s01_0_airplane_00_airplane-0040-ILSVRC2012-val-00039213.png
subject-01,1,705,0.897729873657227,clock,clock,0,0705_sty_s01_0_clock_00_clock-0046-ILSVRC2012-val-00044049.png
subject-01,1,706,1.46559309959412,truck,knife,0,0706_sty_s01_0_knife_00_knife-0015-ILSVRC2012-val-00011081.png
subject-01,1,707,0.659252882003784,airplane,airplane,0,0707_sty_s01_0_airplane_00_airplane-0039-ILSVRC2012-val-00037801.png
subject-01,1,708,1.00921678543091,airplane,boat,0,0708_sty_s01_0_boat_00_boat-0044-ILSVRC2012-val-00041227.png
subject-01,1,709,0.840910911560059,bird,bottle,0,0709_sty_s01_0_bottle_00_bottle-0108-ILSVRC2012-val-00008437.png
subject-01,1,710,0.916744947433472,boat,knife,0,0710_sty_s01_0_knife_00_knife-0024-ILSVRC2012-val-00021297.png
subject-01,1,711,1.01053810119629,boat,chair,0,0711_sty_s01_0_chair_00_chair-0051-ILSVRC2012-val-00001616.png
subject-01,1,712,0.722305059432983,bottle,bottle,0,0712_sty_s01_0_bottle_00_bottle-0006-ILSVRC2012-val-00004888.png
subject-01,1,713,1.13457894325256,dog,elephant,0,0713_sty_s01_0_elephant_00_elephant-0011-ILSVRC2012-val-00011247.png
subject-01,1,714,0.85411810874939,bottle,car,0,0714_sty_s01_0_car_00_car-0052-ILSVRC2012-val-00004387.png
subject-01,1,715,0.897902011871338,bear,bear,0,0715_sty_s01_0_bear_00_bear-0069-ILSVRC2012-val-00018788.png
subject-01,1,716,1.32559585571289,keyboard,keyboard,0,0716_sty_s01_0_keyboard_00_keyboard-0023-ILSVRC2012-val-00023014.png
subject-01,1,717,0.991289854049683,bear,bottle,0,0717_sty_s01_0_bottle_00_bottle-0218-ILSVRC2012-val-00013667.png
subject-01,1,718,0.937433958053589,cat,keyboard,0,0718_sty_s01_0_keyboard_00_keyboard-0062-ILSVRC2012-val-00008632.png
subject-01,1,719,0.657165050506592,boat,chair,0,0719_sty_s01_0_chair_00_chair-0124-ILSVRC2012-val-00022208.png
subject-01,1,720,0.56692910194397,cat,chair,0,0720_sty_s01_0_chair_00_chair-0183-ILSVRC2012-val-00035142.png
subject-01,1,721,0.696796894073486,cat,truck,0,0721_sty_s01_0_truck_00_truck-0358-ILSVRC2012-val-00010556.png
subject-01,1,722,0.844529867172241,bear,bear,0,0722_sty_s01_0_bear_00_bear-0058-ILSVRC2012-val-00011726.png
subject-01,1,723,0.520246982574463,cat,cat,0,0723_sty_s01_0_cat_00_cat-0096-ILSVRC2012-val-00045420.png
subject-01,1,724,0.616176843643188,bird,bird,0,0724_sty_s01_0_bird_00_bird-0754-ILSVRC2012-val-00002846.png
subject-01,1,725,0.604193925857544,clock,knife,0,0725_sty_s01_0_knife_00_knife-0010-ILSVRC2012-val-00009160.png
subject-01,1,726,0.767861843109131,oven,oven,0,0726_sty_s01_0_oven_00_oven-0042-ILSVRC2012-val-00039873.png
subject-01,1,727,0.89972710609436,bear,bird,0,0727_sty_s01_0_bird_00_bird-1093-ILSVRC2012-val-00044082.png
subject-01,1,728,0.647439956665039,car,car,0,0728_sty_s01_0_car_00_car-0106-ILSVRC2012-val-00004868.png
subject-01,1,729,0.859053134918213,keyboard,clock,0,0729_sty_s01_0_clock_00_clock-0110-ILSVRC2012-val-00014035.png
subject-01,1,730,1.02107095718384,keyboard,boat,0,0730_sty_s01_0_boat_00_boat-0196-ILSVRC2012-val-00042675.png
subject-01,1,731,0.772769927978516,oven,clock,0,0731_sty_s01_0_clock_00_clock-0127-ILSVRC2012-val-00030330.png
subject-01,1,732,0.766603946685791,cat,knife,0,0732_sty_s01_0_knife_00_knife-0003-ILSVRC2012-val-00001964.png
subject-01,1,733,1.48690414428711,knife,chair,0,0733_sty_s01_0_chair_00_chair-0059-ILSVRC2012-val-00006022.png
subject-01,1,734,0.456315040588379,cat,cat,0,0734_sty_s01_0_cat_00_cat-0113-ILSVRC2012-val-00007808.png
subject-01,1,735,0.562176942825317,bear,bear,0,0735_sty_s01_0_bear_00_bear-0062-ILSVRC2012-val-00014029.png
subject-01,1,736,0.833735942840576,cat,oven,0,0736_sty_s01_0_oven_00_oven-0041-ILSVRC2012-val-00039789.png
subject-01,1,737,0.487552881240845,cat,cat,0,0737_sty_s01_0_cat_00_cat-0294-ILSVRC2012-val-00037633.png
subject-01,1,738,0.673574924468994,bottle,car,0,0738_sty_s01_0_car_00_car-0111-ILSVRC2012-val-00007125.png
subject-01,1,739,0.575353860855103,car,car,0,0739_sty_s01_0_car_00_car-0118-ILSVRC2012-val-00012327.png
subject-01,1,740,0.615203857421875,keyboard,keyboard,0,0740_sty_s01_0_keyboard_00_keyboard-0020-ILSVRC2012-val-00020212.png
subject-01,1,741,0.6388840675354,cat,cat,0,0741_sty_s01_0_cat_00_cat-0169-ILSVRC2012-val-00020688.png
subject-01,1,742,0.589311122894287,bear,bear,0,0742_sty_s01_0_bear_00_bear-0091-ILSVRC2012-val-00041813.png
subject-01,1,743,0.620673894882202,boat,bicycle,0,0743_sty_s01_0_bicycle_00_bicycle-0047-ILSVRC2012-val-00043435.png
subject-01,1,744,0.810473918914795,cat,airplane,0,0744_sty_s01_0_airplane_00_airplane-0027-ILSVRC2012-val-00026859.png
subject-01,1,745,1.09626007080078,elephant,bear,0,0745_sty_s01_0_bear_00_bear-0149-ILSVRC2012-val-00048105.png
subject-01,1,746,0.918042898178101,car,car,0,0746_sty_s01_0_car_00_car-0083-ILSVRC2012-val-00027508.png
subject-01,1,747,1.10781812667847,airplane,oven,0,0747_sty_s01_0_oven_00_oven-0046-ILSVRC2012-val-00046020.png
subject-01,1,748,0.671663045883179,car,bear,0,0748_sty_s01_0_bear_00_bear-0116-ILSVRC2012-val-00020332.png
subject-01,1,749,0.715475082397461,boat,boat,0,0749_sty_s01_0_boat_00_boat-0082-ILSVRC2012-val-00027612.png
subject-01,1,750,0.703567028045654,truck,clock,0,0750_sty_s01_0_clock_00_clock-0100-ILSVRC2012-val-00049759.png
subject-01,1,751,1.00507402420044,cat,bicycle,0,0751_sty_s01_0_bicycle_00_bicycle-0024-ILSVRC2012-val-00025915.png
subject-01,1,752,0.825325012207031,boat,truck,0,0752_sty_s01_0_truck_00_truck-0034-ILSVRC2012-val-00034340.png
subject-01,1,753,0.736757040023804,airplane,airplane,0,0753_sty_s01_0_airplane_00_airplane-0047-ILSVRC2012-val-00046971.png
subject-01,1,754,0.576438188552856,airplane,airplane,0,0754_sty_s01_0_airplane_00_airplane-0049-ILSVRC2012-val-00048111.png
subject-01,1,755,0.800384044647217,elephant,elephant,0,0755_sty_s01_0_elephant_00_elephant-0021-ILSVRC2012-val-00021618.png
subject-01,1,756,0.782150983810425,keyboard,clock,0,0756_sty_s01_0_clock_00_clock-0112-ILSVRC2012-val-00014635.png
subject-01,1,757,0.685973882675171,chair,chair,0,0757_sty_s01_0_chair_00_chair-0127-ILSVRC2012-val-00024620.png
subject-01,1,758,0.687748908996582,bicycle,bicycle,0,0758_sty_s01_0_bicycle_00_bicycle-0039-ILSVRC2012-val-00037292.png
subject-01,1,759,0.733500003814697,airplane,airplane,0,0759_sty_s01_0_airplane_00_airplane-0034-ILSVRC2012-val-00033441.png
subject-01,1,760,0.847259044647217,bear,boat,0,0760_sty_s01_0_boat_00_boat-0083-ILSVRC2012-val-00034455.png
subject-01,1,761,1.33705806732178,bear,bird,0,0761_sty_s01_0_bird_00_bird-1452-ILSVRC2012-val-00002997.png
subject-01,1,762,0.493486166000366,keyboard,keyboard,0,0762_sty_s01_0_keyboard_00_keyboard-0007-ILSVRC2012-val-00002755.png
subject-01,1,763,0.644755840301514,car,car,0,0763_sty_s01_0_car_00_car-0029-ILSVRC2012-val-00027081.png
subject-01,1,764,1.02064800262451,keyboard,keyboard,0,0764_sty_s01_0_keyboard_00_keyboard-0025-ILSVRC2012-val-00026405.png
subject-01,1,765,1.12430095672607,dog,dog,0,0765_sty_s01_0_dog_00_dog-3917-ILSVRC2012-val-00016908.png
subject-01,1,766,0.522350072860718,bear,bear,0,0766_sty_s01_0_bear_00_bear-0078-ILSVRC2012-val-00030951.png
subject-01,1,767,0.59987998008728,airplane,airplane,0,0767_sty_s01_0_airplane_00_airplane-0042-ILSVRC2012-val-00040547.png
subject-01,1,768,0.580206871032715,airplane,airplane,0,0768_sty_s01_0_airplane_00_airplane-0001-ILSVRC2012-val-00000631.png
subject-01,1,769,0.863577842712402,truck,car,0,0769_sty_s01_0_car_00_car-0050-ILSVRC2012-val-00048556.png
subject-01,1,770,0.825433015823364,airplane,truck,0,0770_sty_s01_0_truck_00_truck-0310-ILSVRC2012-val-00016077.png
subject-01,1,771,0.887433052062988,airplane,bird,0,0771_sty_s01_0_bird_00_bird-2144-ILSVRC2012-val-00044377.png
subject-01,1,772,0.829128980636597,oven,boat,0,0772_sty_s01_0_boat_00_boat-0142-ILSVRC2012-val-00040889.png
subject-01,1,773,0.828938007354736,airplane,boat,0,0773_sty_s01_0_boat_00_boat-0153-ILSVRC2012-val-00002696.png
subject-01,1,774,0.424836158752441,clock,clock,0,0774_sty_s01_0_clock_00_clock-0025-ILSVRC2012-val-00019663.png
subject-01,1,775,1.16840410232544,truck,bicycle,0,0775_sty_s01_0_bicycle_00_bicycle-0022-ILSVRC2012-val-00023266.png
subject-01,1,776,0.914716005325317,bear,cat,0,0776_sty_s01_0_cat_00_cat-0298-ILSVRC2012-val-00042529.png
subject-01,1,777,0.894350051879883,bear,bear,0,0777_sty_s01_0_bear_00_bear-0131-ILSVRC2012-val-00031877.png
subject-01,1,778,1.299880027771,bear,bottle,0,0778_sty_s01_0_bottle_00_bottle-0005-ILSVRC2012-val-00004521.png
subject-01,1,779,0.874297142028809,bottle,chair,0,0779_sty_s01_0_chair_00_chair-0053-ILSVRC2012-val-00001855.png
subject-01,1,780,0.713481903076172,airplane,airplane,0,0780_sty_s01_0_airplane_00_airplane-0025-ILSVRC2012-val-00024747.png
subject-01,1,781,1.28952097892761,bear,clock,0,0781_sty_s01_0_clock_00_clock-0063-ILSVRC2012-val-00015628.png
subject-01,1,782,0.631263971328735,car,car,0,0782_sty_s01_0_car_00_car-0103-ILSVRC2012-val-00003478.png
subject-01,1,783,0.772969961166382,oven,cat,0,0783_sty_s01_0_cat_00_cat-0291-ILSVRC2012-val-00035821.png
subject-01,1,784,0.722708940505981,bear,bear,0,0784_sty_s01_0_bear_00_bear-0125-ILSVRC2012-val-00028222.png
subject-01,1,785,0.862745046615601,keyboard,bicycle,0,0785_sty_s01_0_bicycle_00_bicycle-0030-ILSVRC2012-val-00027620.png
subject-01,1,786,0.612375974655151,airplane,airplane,0,0786_sty_s01_0_airplane_00_airplane-0036-ILSVRC2012-val-00034342.png
subject-01,1,787,0.686156988143921,keyboard,keyboard,0,0787_sty_s01_0_keyboard_00_keyboard-0077-ILSVRC2012-val-00025109.png
subject-01,1,788,0.668175935745239,truck,truck,0,0788_sty_s01_0_truck_00_truck-0120-ILSVRC2012-val-00018360.png
subject-01,1,789,0.708057165145874,bear,dog,0,0789_sty_s01_0_dog_00_dog-5044-ILSVRC2012-val-00043270.png
subject-01,1,790,0.731696844100952,chair,chair,0,0790_sty_s01_0_chair_00_chair-0195-ILSVRC2012-val-00045464.png
subject-01,1,791,0.671665906906128,keyboard,oven,0,0791_sty_s01_0_oven_00_oven-0049-ILSVRC2012-val-00048848.png
subject-01,1,792,0.717212915420532,bear,chair,0,0792_sty_s01_0_chair_00_chair-0141-ILSVRC2012-val-00040076.png
subject-01,1,793,0.62114691734314,car,car,0,0793_sty_s01_0_car_00_car-0079-ILSVRC2012-val-00025028.png
subject-01,1,794,0.998855113983154,cat,cat,0,0794_sty_s01_0_cat_00_cat-0238-ILSVRC2012-val-00033582.png
subject-01,1,795,0.466768026351929,clock,clock,0,0795_sty_s01_0_clock_00_clock-0020-ILSVRC2012-val-00016889.png
subject-01,1,796,0.706861019134521,bear,bear,0,0796_sty_s01_0_bear_00_bear-0167-ILSVRC2012-val-00022112.png
subject-01,1,797,0.696477890014648,car,car,0,0797_sty_s01_0_car_00_car-0032-ILSVRC2012-val-00030834.png
subject-01,1,798,0.654096126556396,bear,bird,0,0798_sty_s01_0_bird_00_bird-2221-ILSVRC2012-val-00014977.png
subject-01,1,799,0.611916065216064,bear,bear,0,0799_sty_s01_0_bear_00_bear-0071-ILSVRC2012-val-00020050.png
subject-01,1,800,0.591701030731201,keyboard,keyboard,0,0800_sty_s01_0_keyboard_00_keyboard-0059-ILSVRC2012-val-00007856.png
