subj,session,trial,rt,object_response,category,condition,imagename
subject-04,1,1,1.04218292236328,oven,airplane,0,0001_sty_s04_0_airplane_00_airplane-0013-ILSVRC2012-val-00015636.png
subject-04,1,2,1.16436386108398,bear,bear,0,0002_sty_s04_0_bear_00_bear-0160-ILSVRC2012-val-00013052.png
subject-04,1,3,1.20373892784119,airplane,truck,0,0003_sty_s04_0_truck_00_truck-0096-ILSVRC2012-val-00044888.png
subject-04,1,4,1.12362909317017,oven,keyboard,0,0004_sty_s04_0_keyboard_00_keyboard-0024-ILSVRC2012-val-00025409.png
subject-04,1,5,0.631907939910889,car,truck,0,0005_sty_s04_0_truck_00_truck-0107-ILSVRC2012-val-00007374.png
subject-04,1,6,1.08322978019714,knife,knife,0,0006_sty_s04_0_knife_00_knife-0023-ILSVRC2012-val-00020998.png
subject-04,1,7,0.999051809310913,oven,keyboard,0,0007_sty_s04_0_keyboard_00_keyboard-0090-ILSVRC2012-val-00044306.png
subject-04,1,8,1.20479989051819,knife,knife,0,0008_sty_s04_0_knife_00_knife-0045-ILSVRC2012-val-00041660.png
subject-04,1,9,0.784639120101929,bear,bear,0,0009_sty_s04_0_bear_00_bear-0035-ILSVRC2012-val-00042274.png
subject-04,1,10,0.812542915344238,car,truck,0,0010_sty_s04_0_truck_00_truck-0329-ILSVRC2012-val-00029413.png
subject-04,1,11,0.836203098297119,airplane,airplane,0,0011_sty_s04_0_airplane_00_airplane-0049-ILSVRC2012-val-00048111.png
subject-04,1,12,NaN,na,boat,0,0012_sty_s04_0_boat_00_boat-0073-ILSVRC2012-val-00018158.png
subject-04,1,13,0.702035188674927,clock,car,0,0013_sty_s04_0_car_00_car-0012-ILSVRC2012-val-00014447.png
subject-04,1,14,0.753757953643799,elephant,elephant,0,0014_sty_s04_0_elephant_00_elephant-0088-ILSVRC2012-val-00036121.png
subject-04,1,15,0.741595029830933,car,truck,0,0015_sty_s04_0_truck_00_truck-0301-ILSVRC2012-val-00000671.png
subject-04,1,16,1.36521196365356,bicycle,bicycle,0,0016_sty_s04_0_bicycle_00_bicycle-0096-ILSVRC2012-val-00045152.png
subject-04,1,17,0.745173931121826,keyboard,keyboard,0,0017_sty_s04_0_keyboard_00_keyboard-0038-ILSVRC2012-val-00038711.png
subject-04,1,18,0.871113061904907,bicycle,bicycle,0,0018_sty_s04_0_bicycle_00_bicycle-0048-ILSVRC2012-val-00045400.png
subject-04,1,19,1.06075692176819,bear,bear,0,0019_sty_s04_0_bear_00_bear-0056-ILSVRC2012-val-00007093.png
subject-04,1,20,1.50005102157593,boat,boat,0,0020_sty_s04_0_boat_00_boat-0181-ILSVRC2012-val-00031072.png
subject-04,1,21,0.786386013031006,boat,airplane,0,0021_sty_s04_0_airplane_00_airplane-0033-ILSVRC2012-val-00033161.png
subject-04,1,22,0.654199123382568,boat,boat,0,0022_sty_s04_0_boat_00_boat-0160-ILSVRC2012-val-00008630.png
subject-04,1,23,1.31598305702209,bottle,oven,0,0023_sty_s04_0_oven_00_oven-0021-ILSVRC2012-val-00019775.png
subject-04,1,24,0.691965103149414,oven,clock,0,0024_sty_s04_0_clock_00_clock-0098-ILSVRC2012-val-00048682.png
subject-04,1,25,0.747524976730347,clock,oven,0,0025_sty_s04_0_oven_00_oven-0035-ILSVRC2012-val-00034788.png
subject-04,1,26,1.36159420013428,car,elephant,0,0026_sty_s04_0_elephant_00_elephant-0015-ILSVRC2012-val-00015520.png
subject-04,1,27,0.89322304725647,cat,dog,0,0027_sty_s04_0_dog_00_dog-2539-ILSVRC2012-val-00041157.png
subject-04,1,28,0.695020914077759,keyboard,keyboard,0,0028_sty_s04_0_keyboard_00_keyboard-0060-ILSVRC2012-val-00008319.png
subject-04,1,29,0.749212980270386,bicycle,knife,0,0029_sty_s04_0_knife_00_knife-0012-ILSVRC2012-val-00009369.png
subject-04,1,30,0.860755920410156,keyboard,keyboard,0,0030_sty_s04_0_keyboard_00_keyboard-0055-ILSVRC2012-val-00001330.png
subject-04,1,31,1.43662595748901,bird,bird,0,0031_sty_s04_0_bird_00_bird-0513-ILSVRC2012-val-00013223.png
subject-04,1,32,1.01267194747925,keyboard,keyboard,0,0032_sty_s04_0_keyboard_00_keyboard-0086-ILSVRC2012-val-00037986.png
subject-04,1,33,1.4505021572113,boat,bird,0,0033_sty_s04_0_bird_00_bird-2184-ILSVRC2012-val-00034910.png
subject-04,1,34,0.945966005325317,cat,cat,0,0034_sty_s04_0_cat_00_cat-0238-ILSVRC2012-val-00033582.png
subject-04,1,35,1.10773897171021,chair,boat,0,0035_sty_s04_0_boat_00_boat-0196-ILSVRC2012-val-00042675.png
subject-04,1,36,1.0597128868103,keyboard,knife,0,0036_sty_s04_0_knife_00_knife-0004-ILSVRC2012-val-00002212.png
subject-04,1,37,1.38556694984436,airplane,airplane,0,0037_sty_s04_0_airplane_00_airplane-0001-ILSVRC2012-val-00000631.png
subject-04,1,38,0.935492992401123,bicycle,truck,0,0038_sty_s04_0_truck_00_truck-0184-ILSVRC2012-val-00032494.png
subject-04,1,39,0.871170997619629,bottle,bottle,0,0039_sty_s04_0_bottle_00_bottle-0224-ILSVRC2012-val-00020102.png
subject-04,1,40,1.07878303527832,dog,dog,0,0040_sty_s04_0_dog_00_dog-3802-ILSVRC2012-val-00003862.png
subject-04,1,41,0.958554029464722,car,bear,0,0041_sty_s04_0_bear_00_bear-0129-ILSVRC2012-val-00030485.png
subject-04,1,42,NaN,na,keyboard,0,0042_sty_s04_0_keyboard_00_keyboard-0088-ILSVRC2012-val-00041420.png
subject-04,1,43,0.762417078018188,keyboard,chair,0,0043_sty_s04_0_chair_00_chair-0050-ILSVRC2012-val-00049050.png
subject-04,1,44,0.884323120117188,dog,dog,0,0044_sty_s04_0_dog_00_dog-1613-ILSVRC2012-val-00015923.png
subject-04,1,45,0.762024164199829,truck,truck,0,0045_sty_s04_0_truck_00_truck-0079-ILSVRC2012-val-00028914.png
subject-04,1,46,0.861669063568115,airplane,airplane,0,0046_sty_s04_0_airplane_00_airplane-0042-ILSVRC2012-val-00040547.png
subject-04,1,47,0.919492959976196,truck,truck,0,0047_sty_s04_0_truck_00_truck-0065-ILSVRC2012-val-00013925.png
subject-04,1,48,0.591565847396851,cat,cat,0,0048_sty_s04_0_cat_00_cat-0247-ILSVRC2012-val-00044374.png
subject-04,1,49,1.37715697288513,car,clock,0,0049_sty_s04_0_clock_00_clock-0076-ILSVRC2012-val-00028203.png
subject-04,1,50,0.853065967559814,car,car,0,0050_sty_s04_0_car_00_car-0018-ILSVRC2012-val-00018138.png
subject-04,1,51,1.24878883361816,car,oven,0,0051_sty_s04_0_oven_00_oven-0042-ILSVRC2012-val-00039873.png
subject-04,1,52,0.66656494140625,cat,airplane,0,0052_sty_s04_0_airplane_00_airplane-0016-ILSVRC2012-val-00018685.png
subject-04,1,53,0.992398023605347,dog,dog,0,0053_sty_s04_0_dog_00_dog-3425-ILSVRC2012-val-00027086.png
subject-04,1,54,0.816086053848267,bird,bird,0,0054_sty_s04_0_bird_00_bird-1551-ILSVRC2012-val-00000690.png
subject-04,1,55,1.23007297515869,airplane,clock,0,0055_sty_s04_0_clock_00_clock-0143-ILSVRC2012-val-00041547.png
subject-04,1,56,0.840240001678467,elephant,elephant,0,0056_sty_s04_0_elephant_00_elephant-0087-ILSVRC2012-val-00034562.png
subject-04,1,57,0.611991882324219,truck,truck,0,0057_sty_s04_0_truck_00_truck-0120-ILSVRC2012-val-00018360.png
subject-04,1,58,1.34551811218262,boat,bird,0,0058_sty_s04_0_bird_00_bird-2082-ILSVRC2012-val-00036457.png
subject-04,1,59,1.02924013137817,bird,oven,0,0059_sty_s04_0_oven_00_oven-0005-ILSVRC2012-val-00004125.png
subject-04,1,60,0.951048135757446,keyboard,keyboard,0,0060_sty_s04_0_keyboard_00_keyboard-0076-ILSVRC2012-val-00022077.png
subject-04,1,61,0.854935884475708,bottle,keyboard,0,0061_sty_s04_0_keyboard_00_keyboard-0059-ILSVRC2012-val-00007856.png
subject-04,1,62,0.870620012283325,airplane,airplane,0,0062_sty_s04_0_airplane_00_airplane-0020-ILSVRC2012-val-00022975.png
subject-04,1,63,0.922653913497925,airplane,airplane,0,0063_sty_s04_0_airplane_00_airplane-0015-ILSVRC2012-val-00018616.png
subject-04,1,64,1.00431203842163,clock,clock,0,0064_sty_s04_0_clock_00_clock-0118-ILSVRC2012-val-00018443.png
subject-04,1,65,0.660278081893921,bicycle,bicycle,0,0065_sty_s04_0_bicycle_00_bicycle-0059-ILSVRC2012-val-00011329.png
subject-04,1,66,0.999876022338867,elephant,elephant,0,0066_sty_s04_0_elephant_00_elephant-0030-ILSVRC2012-val-00028996.png
subject-04,1,67,1.30973696708679,oven,keyboard,0,0067_sty_s04_0_keyboard_00_keyboard-0041-ILSVRC2012-val-00041349.png
subject-04,1,68,1.11160182952881,clock,bicycle,0,0068_sty_s04_0_bicycle_00_bicycle-0043-ILSVRC2012-val-00038415.png
subject-04,1,69,1.50004291534424,boat,bird,0,0069_sty_s04_0_bird_00_bird-1646-ILSVRC2012-val-00039398.png
subject-04,1,70,0.913095951080322,bird,airplane,0,0070_sty_s04_0_airplane_00_airplane-0035-ILSVRC2012-val-00033920.png
subject-04,1,71,0.717053890228271,bird,bird,0,0071_sty_s04_0_bird_00_bird-0045-ILSVRC2012-val-00045547.png
subject-04,1,72,0.888681173324585,cat,cat,0,0072_sty_s04_0_cat_00_cat-0186-ILSVRC2012-val-00039580.png
subject-04,1,73,1.20676493644714,cat,bear,0,0073_sty_s04_0_bear_00_bear-0154-ILSVRC2012-val-00003499.png
subject-04,1,74,0.962423086166382,clock,airplane,0,0074_sty_s04_0_airplane_00_airplane-0040-ILSVRC2012-val-00039213.png
subject-04,1,75,0.632294893264771,oven,oven,0,0075_sty_s04_0_oven_00_oven-0025-ILSVRC2012-val-00022348.png
subject-04,1,76,0.907970905303955,airplane,boat,0,0076_sty_s04_0_boat_00_boat-0222-ILSVRC2012-val-00019246.png
subject-04,1,77,0.691854000091553,bottle,bottle,0,0077_sty_s04_0_bottle_00_bottle-0172-ILSVRC2012-val-00021707.png
subject-04,1,78,1.49999284744263,chair,bottle,0,0078_sty_s04_0_bottle_00_bottle-0222-ILSVRC2012-val-00018657.png
subject-04,1,79,1.0797119140625,elephant,boat,0,0079_sty_s04_0_boat_00_boat-0053-ILSVRC2012-val-00005918.png
subject-04,1,80,1.07522106170654,bottle,bear,0,0080_sty_s04_0_bear_00_bear-0043-ILSVRC2012-val-00046763.png
subject-04,1,81,0.785190105438232,oven,airplane,0,0081_sty_s04_0_airplane_00_airplane-0039-ILSVRC2012-val-00037801.png
subject-04,1,82,0.758898973464966,boat,elephant,0,0082_sty_s04_0_elephant_00_elephant-0065-ILSVRC2012-val-00010619.png
subject-04,1,83,0.918637990951538,bicycle,bicycle,0,0083_sty_s04_0_bicycle_00_bicycle-0008-ILSVRC2012-val-00008007.png
subject-04,1,84,0.886522054672241,elephant,elephant,0,0084_sty_s04_0_elephant_00_elephant-0009-ILSVRC2012-val-00010713.png
subject-04,1,85,1.39048910140991,dog,dog,0,0085_sty_s04_0_dog_00_dog-2094-ILSVRC2012-val-00044284.png
subject-04,1,86,0.71625280380249,bottle,bottle,0,0086_sty_s04_0_bottle_00_bottle-0005-ILSVRC2012-val-00004521.png
subject-04,1,87,1.12207508087158,keyboard,keyboard,0,0087_sty_s04_0_keyboard_00_keyboard-0006-ILSVRC2012-val-00002499.png
subject-04,1,88,0.535789966583252,truck,truck,0,0088_sty_s04_0_truck_00_truck-0094-ILSVRC2012-val-00042802.png
subject-04,1,89,1.50012397766113,airplane,airplane,0,0089_sty_s04_0_airplane_00_airplane-0030-ILSVRC2012-val-00030411.png
subject-04,1,90,0.791399955749512,clock,clock,0,0090_sty_s04_0_clock_00_clock-0091-ILSVRC2012-val-00044029.png
subject-04,1,91,1.05344104766846,cat,cat,0,0091_sty_s04_0_cat_00_cat-0110-ILSVRC2012-val-00004411.png
subject-04,1,92,1.50010704994202,bird,bird,0,0092_sty_s04_0_bird_00_bird-1256-ILSVRC2012-val-00005779.png
subject-04,1,93,0.974806785583496,bear,bear,0,0093_sty_s04_0_bear_00_bear-0066-ILSVRC2012-val-00016621.png
subject-04,1,94,0.924721002578735,cat,bottle,0,0094_sty_s04_0_bottle_00_bottle-0002-ILSVRC2012-val-00002968.png
subject-04,1,95,0.812474012374878,bottle,knife,0,0095_sty_s04_0_knife_00_knife-0019-ILSVRC2012-val-00014960.png
subject-04,1,96,0.594223022460938,oven,oven,0,0096_sty_s04_0_oven_00_oven-0024-ILSVRC2012-val-00021187.png
subject-04,1,97,0.958518028259277,car,car,0,0097_sty_s04_0_car_00_car-0019-ILSVRC2012-val-00018335.png
subject-04,1,98,0.979902029037476,clock,bottle,0,0098_sty_s04_0_bottle_00_bottle-0052-ILSVRC2012-val-00000252.png
subject-04,1,99,0.923853874206543,oven,oven,0,0099_sty_s04_0_oven_00_oven-0019-ILSVRC2012-val-00017971.png
subject-04,1,100,0.909776926040649,bottle,bottle,0,0100_sty_s04_0_bottle_00_bottle-0039-ILSVRC2012-val-00038570.png
subject-04,1,101,0.671715974807739,cat,cat,0,0101_sty_s04_0_cat_00_cat-0189-ILSVRC2012-val-00040854.png
subject-04,1,102,0.757241010665894,dog,dog,0,0102_sty_s04_0_dog_00_dog-1734-ILSVRC2012-val-00031377.png
subject-04,1,103,0.729122877120972,bird,bird,0,0103_sty_s04_0_bird_00_bird-1198-ILSVRC2012-val-00048142.png
subject-04,1,104,0.710838079452515,bicycle,bicycle,0,0104_sty_s04_0_bicycle_00_bicycle-0077-ILSVRC2012-val-00030112.png
subject-04,1,105,0.858592987060547,clock,clock,0,0105_sty_s04_0_clock_00_clock-0119-ILSVRC2012-val-00018797.png
subject-04,1,106,1.11448383331299,car,car,0,0106_sty_s04_0_car_00_car-0001-ILSVRC2012-val-00000175.png
subject-04,1,107,0.972436904907227,dog,bear,0,0107_sty_s04_0_bear_00_bear-0164-ILSVRC2012-val-00018303.png
subject-04,1,108,0.889987945556641,bird,bird,0,0108_sty_s04_0_bird_00_bird-0754-ILSVRC2012-val-00002846.png
subject-04,1,109,1.34189581871033,elephant,elephant,0,0109_sty_s04_0_elephant_00_elephant-0006-ILSVRC2012-val-00005704.png
subject-04,1,110,0.767770051956177,bicycle,bicycle,0,0110_sty_s04_0_bicycle_00_bicycle-0064-ILSVRC2012-val-00017103.png
subject-04,1,111,1.50007796287537,car,chair,0,0111_sty_s04_0_chair_00_chair-0006-ILSVRC2012-val-00004679.png
subject-04,1,112,0.583488941192627,chair,chair,0,0112_sty_s04_0_chair_00_chair-0136-ILSVRC2012-val-00037994.png
subject-04,1,113,0.575161933898926,cat,bear,0,0113_sty_s04_0_bear_00_bear-0113-ILSVRC2012-val-00016459.png
subject-04,1,114,0.809019088745117,truck,truck,0,0114_sty_s04_0_truck_00_truck-0047-ILSVRC2012-val-00047588.png
subject-04,1,115,0.698653936386108,cat,bird,0,0115_sty_s04_0_bird_00_bird-2221-ILSVRC2012-val-00014977.png
subject-04,1,116,0.642381906509399,clock,knife,0,0116_sty_s04_0_knife_00_knife-0022-ILSVRC2012-val-00019358.png
subject-04,1,117,0.696410894393921,chair,chair,0,0117_sty_s04_0_chair_00_chair-0116-ILSVRC2012-val-00017447.png
subject-04,1,118,0.646221160888672,boat,boat,0,0118_sty_s04_0_boat_00_boat-0039-ILSVRC2012-val-00033883.png
subject-04,1,119,0.638007879257202,cat,bear,0,0119_sty_s04_0_bear_00_bear-0166-ILSVRC2012-val-00022111.png
subject-04,1,120,1.00965595245361,keyboard,keyboard,0,0120_sty_s04_0_keyboard_00_keyboard-0058-ILSVRC2012-val-00007790.png
subject-04,1,121,1.50012898445129,car,bicycle,0,0121_sty_s04_0_bicycle_00_bicycle-0024-ILSVRC2012-val-00025915.png
subject-04,1,122,0.717502117156982,bicycle,bicycle,0,0122_sty_s04_0_bicycle_00_bicycle-0014-ILSVRC2012-val-00015483.png
subject-04,1,123,1.24533414840698,bicycle,bicycle,0,0123_sty_s04_0_bicycle_00_bicycle-0070-ILSVRC2012-val-00020631.png
subject-04,1,124,1.50008797645569,elephant,bear,0,0124_sty_s04_0_bear_00_bear-0064-ILSVRC2012-val-00016050.png
subject-04,1,125,1.05290699005127,chair,chair,0,0125_sty_s04_0_chair_00_chair-0133-ILSVRC2012-val-00033406.png
subject-04,1,126,0.638752937316895,bicycle,bird,0,0126_sty_s04_0_bird_00_bird-0522-ILSVRC2012-val-00020730.png
subject-04,1,127,1.30050015449524,boat,bicycle,0,0127_sty_s04_0_bicycle_00_bicycle-0032-ILSVRC2012-val-00030070.png
subject-04,1,128,1.50002694129944,boat,airplane,0,0128_sty_s04_0_airplane_00_airplane-0037-ILSVRC2012-val-00035783.png
subject-04,1,129,0.99018120765686,keyboard,boat,0,0129_sty_s04_0_boat_00_boat-0215-ILSVRC2012-val-00013403.png
subject-04,1,130,1.03387188911438,cat,cat,0,0130_sty_s04_0_cat_00_cat-0243-ILSVRC2012-val-00040600.png
subject-04,1,131,0.710006952285767,car,car,0,0131_sty_s04_0_car_00_car-0145-ILSVRC2012-val-00041626.png
subject-04,1,132,0.61354398727417,oven,chair,0,0132_sty_s04_0_chair_00_chair-0018-ILSVRC2012-val-00013838.png
subject-04,1,133,0.611232995986938,cat,cat,0,0133_sty_s04_0_cat_00_cat-0042-ILSVRC2012-val-00040238.png
subject-04,1,134,0.759024143218994,bicycle,bicycle,0,0134_sty_s04_0_bicycle_00_bicycle-0026-ILSVRC2012-val-00026292.png
subject-04,1,135,0.926953077316284,car,car,0,0135_sty_s04_0_car_00_car-0041-ILSVRC2012-val-00040706.png
subject-04,1,136,0.666741132736206,clock,clock,0,0136_sty_s04_0_clock_00_clock-0018-ILSVRC2012-val-00015871.png
subject-04,1,137,0.796836853027344,car,car,0,0137_sty_s04_0_car_00_car-0029-ILSVRC2012-val-00027081.png
subject-04,1,138,0.79444694519043,bicycle,bicycle,0,0138_sty_s04_0_bicycle_00_bicycle-0054-ILSVRC2012-val-00004147.png
subject-04,1,139,0.964328050613403,airplane,airplane,0,0139_sty_s04_0_airplane_00_airplane-0038-ILSVRC2012-val-00036394.png
subject-04,1,140,1.11618399620056,clock,clock,0,0140_sty_s04_0_clock_00_clock-0110-ILSVRC2012-val-00014035.png
subject-04,1,141,0.795915842056274,bottle,bird,0,0141_sty_s04_0_bird_00_bird-0122-ILSVRC2012-val-00019236.png
subject-04,1,142,0.767574071884155,car,truck,0,0142_sty_s04_0_truck_00_truck-0070-ILSVRC2012-val-00021253.png
subject-04,1,143,1.07940793037415,bottle,bird,0,0143_sty_s04_0_bird_00_bird-2011-ILSVRC2012-val-00008842.png
subject-04,1,144,0.915611028671265,bird,bird,0,0144_sty_s04_0_bird_00_bird-0624-ILSVRC2012-val-00024514.png
subject-04,1,145,1.34921813011169,bicycle,elephant,0,0145_sty_s04_0_elephant_00_elephant-0026-ILSVRC2012-val-00023589.png
subject-04,1,146,0.589330911636353,cat,cat,0,0146_sty_s04_0_cat_00_cat-0032-ILSVRC2012-val-00033420.png
subject-04,1,147,1.0786669254303,chair,elephant,0,0147_sty_s04_0_elephant_00_elephant-0057-ILSVRC2012-val-00004013.png
subject-04,1,148,1.37252497673035,knife,keyboard,0,0148_sty_s04_0_keyboard_00_keyboard-0009-ILSVRC2012-val-00006513.png
subject-04,1,149,1.02022218704224,car,truck,0,0149_sty_s04_0_truck_00_truck-0022-ILSVRC2012-val-00023423.png
subject-04,1,150,0.711987972259521,cat,dog,0,0150_sty_s04_0_dog_00_dog-4933-ILSVRC2012-val-00033357.png
subject-04,1,151,0.895824193954468,boat,boat,0,0151_sty_s04_0_boat_00_boat-0218-ILSVRC2012-val-00015121.png
subject-04,1,152,0.667829990386963,bear,bear,0,0152_sty_s04_0_bear_00_bear-0188-ILSVRC2012-val-00043016.png
subject-04,1,153,1.30551505088806,airplane,dog,0,0153_sty_s04_0_dog_00_dog-2321-ILSVRC2012-val-00015164.png
subject-04,1,154,0.813420057296753,cat,cat,0,0154_sty_s04_0_cat_00_cat-0069-ILSVRC2012-val-00016399.png
subject-04,1,155,0.875101089477539,bear,bear,0,0155_sty_s04_0_bear_00_bear-0125-ILSVRC2012-val-00028222.png
subject-04,1,156,0.910871028900146,truck,truck,0,0156_sty_s04_0_truck_00_truck-0121-ILSVRC2012-val-00018768.png
subject-04,1,157,0.694872140884399,boat,knife,0,0157_sty_s04_0_knife_00_knife-0033-ILSVRC2012-val-00028494.png
subject-04,1,158,0.708454132080078,chair,chair,0,0158_sty_s04_0_chair_00_chair-0081-ILSVRC2012-val-00033069.png
subject-04,1,159,0.848489046096802,car,car,0,0159_sty_s04_0_car_00_car-0146-ILSVRC2012-val-00043297.png
subject-04,1,160,1.03222703933716,truck,truck,0,0160_sty_s04_0_truck_00_truck-0368-ILSVRC2012-val-00016410.png
subject-04,1,161,1.17377495765686,cat,dog,0,0161_sty_s04_0_dog_00_dog-0158-ILSVRC2012-val-00004081.png
subject-04,1,162,0.763534784317017,boat,boat,0,0162_sty_s04_0_boat_00_boat-0243-ILSVRC2012-val-00039131.png
subject-04,1,163,0.687386989593506,bear,bear,0,0163_sty_s04_0_bear_00_bear-0085-ILSVRC2012-val-00035292.png
subject-04,1,164,0.691354990005493,bear,bear,0,0164_sty_s04_0_bear_00_bear-0052-ILSVRC2012-val-00000865.png
subject-04,1,165,0.744938850402832,cat,dog,0,0165_sty_s04_0_dog_00_dog-2211-ILSVRC2012-val-00010402.png
subject-04,1,166,0.716734170913696,car,car,0,0166_sty_s04_0_car_00_car-0087-ILSVRC2012-val-00031558.png
subject-04,1,167,1.26865386962891,car,truck,0,0167_sty_s04_0_truck_00_truck-0274-ILSVRC2012-val-00021717.png
subject-04,1,168,0.756132841110229,boat,chair,0,0168_sty_s04_0_chair_00_chair-0150-ILSVRC2012-val-00048622.png
subject-04,1,169,0.770015954971313,cat,cat,0,0169_sty_s04_0_cat_00_cat-0064-ILSVRC2012-val-00014860.png
subject-04,1,170,0.757998943328857,oven,oven,0,0170_sty_s04_0_oven_00_oven-0039-ILSVRC2012-val-00038382.png
subject-04,1,171,0.895750045776367,chair,chair,0,0171_sty_s04_0_chair_00_chair-0154-ILSVRC2012-val-00004705.png
subject-04,1,172,1.01951003074646,dog,chair,0,0172_sty_s04_0_chair_00_chair-0024-ILSVRC2012-val-00021099.png
subject-04,1,173,1.5000638961792,clock,airplane,0,0173_sty_s04_0_airplane_00_airplane-0021-ILSVRC2012-val-00023316.png
subject-04,1,174,1.14713311195374,bear,oven,0,0174_sty_s04_0_oven_00_oven-0018-ILSVRC2012-val-00017795.png
subject-04,1,175,0.868872880935669,chair,chair,0,0175_sty_s04_0_chair_00_chair-0087-ILSVRC2012-val-00037905.png
subject-04,1,176,0.982867956161499,keyboard,keyboard,0,0176_sty_s04_0_keyboard_00_keyboard-0067-ILSVRC2012-val-00013266.png
subject-04,1,177,1.22451901435852,clock,knife,0,0177_sty_s04_0_knife_00_knife-0003-ILSVRC2012-val-00001964.png
subject-04,1,178,1.1764931678772,keyboard,bicycle,0,0178_sty_s04_0_bicycle_00_bicycle-0033-ILSVRC2012-val-00031498.png
subject-04,1,179,0.738510847091675,bird,bird,0,0179_sty_s04_0_bird_00_bird-2322-ILSVRC2012-val-00023492.png
subject-04,1,180,0.646147966384888,oven,airplane,0,0180_sty_s04_0_airplane_00_airplane-0028-ILSVRC2012-val-00028019.png
subject-04,1,181,0.939800977706909,bear,dog,0,0181_sty_s04_0_dog_00_dog-2290-ILSVRC2012-val-00036919.png
subject-04,1,182,0.679533958435059,cat,cat,0,0182_sty_s04_0_cat_00_cat-0096-ILSVRC2012-val-00045420.png
subject-04,1,183,0.7293701171875,airplane,airplane,0,0183_sty_s04_0_airplane_00_airplane-0005-ILSVRC2012-val-00003960.png
subject-04,1,184,0.807287216186523,chair,chair,0,0184_sty_s04_0_chair_00_chair-0085-ILSVRC2012-val-00036175.png
subject-04,1,185,0.839179992675781,oven,boat,0,0185_sty_s04_0_boat_00_boat-0129-ILSVRC2012-val-00027504.png
subject-04,1,186,0.775014877319336,bird,bird,0,0186_sty_s04_0_bird_00_bird-1326-ILSVRC2012-val-00025658.png
subject-04,1,187,0.836834192276001,bottle,bottle,0,0187_sty_s04_0_bottle_00_bottle-0254-ILSVRC2012-val-00005933.png
subject-04,1,188,1.06640005111694,bear,bottle,0,0188_sty_s04_0_bottle_00_bottle-0032-ILSVRC2012-val-00034979.png
subject-04,1,189,0.988269805908203,cat,bottle,0,0189_sty_s04_0_bottle_00_bottle-0216-ILSVRC2012-val-00013262.png
subject-04,1,190,1.2345278263092,bird,bear,0,0190_sty_s04_0_bear_00_bear-0071-ILSVRC2012-val-00020050.png
subject-04,1,191,1.37994885444641,clock,knife,0,0191_sty_s04_0_knife_00_knife-0009-ILSVRC2012-val-00008526.png
subject-04,1,192,0.851936101913452,bicycle,bicycle,0,0192_sty_s04_0_bicycle_00_bicycle-0015-ILSVRC2012-val-00015618.png
subject-04,1,193,1.04558897018433,truck,truck,0,0193_sty_s04_0_truck_00_truck-0315-ILSVRC2012-val-00021882.png
subject-04,1,194,0.78331995010376,bear,bear,0,0194_sty_s04_0_bear_00_bear-0049-ILSVRC2012-val-00049822.png
subject-04,1,195,NaN,na,oven,0,0195_sty_s04_0_oven_00_oven-0048-ILSVRC2012-val-00048271.png
subject-04,1,196,1.12089705467224,boat,boat,0,0196_sty_s04_0_boat_00_boat-0036-ILSVRC2012-val-00032433.png
subject-04,1,197,0.684918880462646,car,car,0,0197_sty_s04_0_car_00_car-0067-ILSVRC2012-val-00018569.png
subject-04,1,198,0.556877136230469,oven,oven,0,0198_sty_s04_0_oven_00_oven-0011-ILSVRC2012-val-00010717.png
subject-04,1,199,0.692741870880127,car,car,0,0199_sty_s04_0_car_00_car-0082-ILSVRC2012-val-00027293.png
subject-04,1,200,0.728279829025269,bear,bear,0,0200_sty_s04_0_bear_00_bear-0168-ILSVRC2012-val-00022698.png
subject-04,1,201,0.866054058074951,oven,oven,0,0201_sty_s04_0_oven_00_oven-0040-ILSVRC2012-val-00038775.png
subject-04,1,202,1.01407313346863,chair,boat,0,0202_sty_s04_0_boat_00_boat-0100-ILSVRC2012-val-00048371.png
subject-04,1,203,0.669692039489746,bicycle,bicycle,0,0203_sty_s04_0_bicycle_00_bicycle-0092-ILSVRC2012-val-00043207.png
subject-04,1,204,1.01970100402832,car,bottle,0,0204_sty_s04_0_bottle_00_bottle-0283-ILSVRC2012-val-00036864.png
subject-04,1,205,1.11141514778137,dog,dog,0,0205_sty_s04_0_dog_00_dog-3771-ILSVRC2012-val-00020678.png
subject-04,1,206,0.631130933761597,oven,oven,0,0206_sty_s04_0_oven_00_oven-0031-ILSVRC2012-val-00029125.png
subject-04,1,207,1.36078000068665,chair,chair,0,0207_sty_s04_0_chair_00_chair-0058-ILSVRC2012-val-00005926.png
subject-04,1,208,1.46078491210938,boat,keyboard,0,0208_sty_s04_0_keyboard_00_keyboard-0092-ILSVRC2012-val-00044775.png
subject-04,1,209,0.848542928695679,airplane,knife,0,0209_sty_s04_0_knife_00_knife-0044-ILSVRC2012-val-00040170.png
subject-04,1,210,0.634495973587036,boat,boat,0,0210_sty_s04_0_boat_00_boat-0217-ILSVRC2012-val-00015089.png
subject-04,1,211,0.788203001022339,bicycle,boat,0,0211_sty_s04_0_boat_00_boat-0098-ILSVRC2012-val-00047961.png
subject-04,1,212,0.698244094848633,cat,cat,0,0212_sty_s04_0_cat_00_cat-0012-ILSVRC2012-val-00012377.png
subject-04,1,213,0.781775951385498,oven,oven,0,0213_sty_s04_0_oven_00_oven-0027-ILSVRC2012-val-00024603.png
subject-04,1,214,1.34762907028198,dog,knife,0,0214_sty_s04_0_knife_00_knife-0020-ILSVRC2012-val-00015679.png
subject-04,1,215,0.711682081222534,car,car,0,0215_sty_s04_0_car_00_car-0032-ILSVRC2012-val-00030834.png
subject-04,1,216,0.687448978424072,clock,clock,0,0216_sty_s04_0_clock_00_clock-0142-ILSVRC2012-val-00041461.png
subject-04,1,217,0.599019050598145,car,car,0,0217_sty_s04_0_car_00_car-0139-ILSVRC2012-val-00037952.png
subject-04,1,218,NaN,na,knife,0,0218_sty_s04_0_knife_00_knife-0043-ILSVRC2012-val-00039826.png
subject-04,1,219,1.1526939868927,cat,cat,0,0219_sty_s04_0_cat_00_cat-0264-ILSVRC2012-val-00010823.png
subject-04,1,220,0.588384866714478,cat,cat,0,0220_sty_s04_0_cat_00_cat-0270-ILSVRC2012-val-00017189.png
subject-04,1,221,1.04628801345825,keyboard,bottle,0,0221_sty_s04_0_bottle_00_bottle-0059-ILSVRC2012-val-00008984.png
subject-04,1,222,0.683994054794312,clock,clock,0,0222_sty_s04_0_clock_00_clock-0145-ILSVRC2012-val-00044685.png
subject-04,1,223,0.983899831771851,boat,truck,0,0223_sty_s04_0_truck_00_truck-0048-ILSVRC2012-val-00047888.png
subject-04,1,224,0.621628046035767,cat,cat,0,0224_sty_s04_0_cat_00_cat-0234-ILSVRC2012-val-00028970.png
subject-04,1,225,0.73763108253479,airplane,airplane,0,0225_sty_s04_0_airplane_00_airplane-0004-ILSVRC2012-val-00001952.png
subject-04,1,226,0.851369857788086,oven,oven,0,0226_sty_s04_0_oven_00_oven-0032-ILSVRC2012-val-00029341.png
subject-04,1,227,1.11316704750061,dog,dog,0,0227_sty_s04_0_dog_00_dog-4865-ILSVRC2012-val-00013670.png
subject-04,1,228,0.774824142456055,boat,knife,0,0228_sty_s04_0_knife_00_knife-0039-ILSVRC2012-val-00038320.png
subject-04,1,229,0.898779153823853,clock,bear,0,0229_sty_s04_0_bear_00_bear-0139-ILSVRC2012-val-00041156.png
subject-04,1,230,0.870843887329102,dog,dog,0,0230_sty_s04_0_dog_00_dog-2535-ILSVRC2012-val-00038253.png
subject-04,1,231,1.41652989387512,elephant,airplane,0,0231_sty_s04_0_airplane_00_airplane-0032-ILSVRC2012-val-00032804.png
subject-04,1,232,0.850190877914429,dog,dog,0,0232_sty_s04_0_dog_00_dog-2129-ILSVRC2012-val-00025424.png
subject-04,1,233,1.33010387420654,clock,bottle,0,0233_sty_s04_0_bottle_00_bottle-0037-ILSVRC2012-val-00036359.png
subject-04,1,234,0.9998459815979,oven,clock,0,0234_sty_s04_0_clock_00_clock-0054-ILSVRC2012-val-00008751.png
subject-04,1,235,1.04358196258545,boat,boat,0,0235_sty_s04_0_boat_00_boat-0044-ILSVRC2012-val-00041227.png
subject-04,1,236,0.805361032485962,airplane,airplane,0,0236_sty_s04_0_airplane_00_airplane-0050-ILSVRC2012-val-00049097.png
subject-04,1,237,1.09165000915527,elephant,elephant,0,0237_sty_s04_0_elephant_00_elephant-0033-ILSVRC2012-val-00033715.png
subject-04,1,238,1.1492338180542,dog,dog,0,0238_sty_s04_0_dog_00_dog-1735-ILSVRC2012-val-00031764.png
subject-04,1,239,1.23120808601379,bicycle,bicycle,0,0239_sty_s04_0_bicycle_00_bicycle-0094-ILSVRC2012-val-00044080.png
subject-04,1,240,0.844613075256348,boat,clock,0,0240_sty_s04_0_clock_00_clock-0127-ILSVRC2012-val-00030330.png
subject-04,1,241,0.804537057876587,bottle,bottle,0,0241_sty_s04_0_bottle_00_bottle-0127-ILSVRC2012-val-00023580.png
subject-04,1,242,0.824190139770508,clock,oven,0,0242_sty_s04_0_oven_00_oven-0013-ILSVRC2012-val-00011779.png
subject-04,1,243,0.80842113494873,car,car,0,0243_sty_s04_0_car_00_car-0069-ILSVRC2012-val-00019647.png
subject-04,1,244,1.27987313270569,oven,boat,0,0244_sty_s04_0_boat_00_boat-0064-ILSVRC2012-val-00013366.png
subject-04,1,245,0.653839826583862,bicycle,bicycle,0,0245_sty_s04_0_bicycle_00_bicycle-0060-ILSVRC2012-val-00011330.png
subject-04,1,246,0.681529998779297,boat,chair,0,0246_sty_s04_0_chair_00_chair-0119-ILSVRC2012-val-00018206.png
subject-04,1,247,1.08526492118835,dog,bear,0,0247_sty_s04_0_bear_00_bear-0141-ILSVRC2012-val-00042320.png
subject-04,1,248,1.00319504737854,bear,boat,0,0248_sty_s04_0_boat_00_boat-0083-ILSVRC2012-val-00034455.png
subject-04,1,249,0.841176986694336,clock,knife,0,0249_sty_s04_0_knife_00_knife-0017-ILSVRC2012-val-00014528.png
subject-04,1,250,0.812711954116821,cat,knife,0,0250_sty_s04_0_knife_00_knife-0034-ILSVRC2012-val-00029248.png
subject-04,1,251,0.742673873901367,oven,chair,0,0251_sty_s04_0_chair_00_chair-0160-ILSVRC2012-val-00012040.png
subject-04,1,252,0.858319997787476,dog,dog,0,0252_sty_s04_0_dog_00_dog-1538-ILSVRC2012-val-00038167.png
subject-04,1,253,0.996367216110229,bear,oven,0,0253_sty_s04_0_oven_00_oven-0028-ILSVRC2012-val-00025917.png
subject-04,1,254,0.636075019836426,oven,keyboard,0,0254_sty_s04_0_keyboard_00_keyboard-0056-ILSVRC2012-val-00003296.png
subject-04,1,255,0.652244091033936,truck,truck,0,0255_sty_s04_0_truck_00_truck-0060-ILSVRC2012-val-00007519.png
subject-04,1,256,0.849573135375977,oven,elephant,0,0256_sty_s04_0_elephant_00_elephant-0096-ILSVRC2012-val-00046061.png
subject-04,1,257,1.34959197044373,keyboard,oven,0,0257_sty_s04_0_oven_00_oven-0047-ILSVRC2012-val-00047123.png
subject-04,1,258,1.01726388931274,clock,oven,0,0258_sty_s04_0_oven_00_oven-0002-ILSVRC2012-val-00002517.png
subject-04,1,259,0.779084920883179,oven,oven,0,0259_sty_s04_0_oven_00_oven-0003-ILSVRC2012-val-00002864.png
subject-04,1,260,0.909004926681519,cat,oven,0,0260_sty_s04_0_oven_00_oven-0041-ILSVRC2012-val-00039789.png
subject-04,1,261,0.899030923843384,dog,dog,0,0261_sty_s04_0_dog_00_dog-0099-ILSVRC2012-val-00048280.png
subject-04,1,262,0.62441611289978,car,car,0,0262_sty_s04_0_car_00_car-0106-ILSVRC2012-val-00004868.png
subject-04,1,263,0.722303867340088,airplane,airplane,0,0263_sty_s04_0_airplane_00_airplane-0022-ILSVRC2012-val-00023781.png
subject-04,1,264,0.612319946289062,cat,cat,0,0264_sty_s04_0_cat_00_cat-0005-ILSVRC2012-val-00005358.png
subject-04,1,265,0.946201801300049,dog,dog,0,0265_sty_s04_0_dog_00_dog-3917-ILSVRC2012-val-00016908.png
subject-04,1,266,1.05182695388794,dog,dog,0,0266_sty_s04_0_dog_00_dog-4009-ILSVRC2012-val-00007922.png
subject-04,1,267,0.800105094909668,oven,oven,0,0267_sty_s04_0_oven_00_oven-0033-ILSVRC2012-val-00031595.png
subject-04,1,268,0.797445058822632,bird,bird,0,0268_sty_s04_0_bird_00_bird-0426-ILSVRC2012-val-00030017.png
subject-04,1,269,0.691087007522583,oven,bicycle,0,0269_sty_s04_0_bicycle_00_bicycle-0044-ILSVRC2012-val-00040027.png
subject-04,1,270,0.923192024230957,boat,bottle,0,0270_sty_s04_0_bottle_00_bottle-0218-ILSVRC2012-val-00013667.png
subject-04,1,271,0.832679986953735,dog,dog,0,0271_sty_s04_0_dog_00_dog-0386-ILSVRC2012-val-00034616.png
subject-04,1,272,0.90302300453186,cat,oven,0,0272_sty_s04_0_oven_00_oven-0030-ILSVRC2012-val-00028507.png
subject-04,1,273,0.838588953018188,car,truck,0,0273_sty_s04_0_truck_00_truck-0084-ILSVRC2012-val-00034001.png
subject-04,1,274,0.946316003799438,elephant,elephant,0,0274_sty_s04_0_elephant_00_elephant-0083-ILSVRC2012-val-00033235.png
subject-04,1,275,0.722208976745605,elephant,elephant,0,0275_sty_s04_0_elephant_00_elephant-0069-ILSVRC2012-val-00017097.png
subject-04,1,276,0.781852960586548,elephant,elephant,0,0276_sty_s04_0_elephant_00_elephant-0068-ILSVRC2012-val-00016215.png
subject-04,1,277,0.815766096115112,bicycle,chair,0,0277_sty_s04_0_chair_00_chair-0172-ILSVRC2012-val-00023378.png
subject-04,1,278,0.699859857559204,bottle,keyboard,0,0278_sty_s04_0_keyboard_00_keyboard-0084-ILSVRC2012-val-00036957.png
subject-04,1,279,0.791538953781128,boat,bottle,0,0279_sty_s04_0_bottle_00_bottle-0138-ILSVRC2012-val-00032559.png
subject-04,1,280,0.957159042358398,oven,bottle,0,0280_sty_s04_0_bottle_00_bottle-0047-ILSVRC2012-val-00044787.png
subject-04,1,281,0.73701000213623,cat,cat,0,0281_sty_s04_0_cat_00_cat-0294-ILSVRC2012-val-00037633.png
subject-04,1,282,0.79081392288208,bottle,bottle,0,0282_sty_s04_0_bottle_00_bottle-0331-ILSVRC2012-val-00033990.png
subject-04,1,283,0.88048791885376,bear,bear,0,0283_sty_s04_0_bear_00_bear-0094-ILSVRC2012-val-00043648.png
subject-04,1,284,1.09629511833191,dog,bear,0,0284_sty_s04_0_bear_00_bear-0131-ILSVRC2012-val-00031877.png
subject-04,1,285,0.544456005096436,clock,clock,0,0285_sty_s04_0_clock_00_clock-0008-ILSVRC2012-val-00005558.png
subject-04,1,286,0.90612006187439,car,boat,0,0286_sty_s04_0_boat_00_boat-0107-ILSVRC2012-val-00004492.png
subject-04,1,287,0.923896789550781,bicycle,bicycle,0,0287_sty_s04_0_bicycle_00_bicycle-0018-ILSVRC2012-val-00018975.png
subject-04,1,288,1.10770201683044,oven,cat,0,0288_sty_s04_0_cat_00_cat-0108-ILSVRC2012-val-00002967.png
subject-04,1,289,1.00540900230408,bear,truck,0,0289_sty_s04_0_truck_00_truck-0034-ILSVRC2012-val-00034340.png
subject-04,1,290,0.829203844070435,oven,bottle,0,0290_sty_s04_0_bottle_00_bottle-0220-ILSVRC2012-val-00014146.png
subject-04,1,291,0.813446044921875,elephant,elephant,0,0291_sty_s04_0_elephant_00_elephant-0029-ILSVRC2012-val-00027259.png
subject-04,1,292,0.927052021026611,bicycle,bicycle,0,0292_sty_s04_0_bicycle_00_bicycle-0040-ILSVRC2012-val-00037433.png
subject-04,1,293,1.1025538444519,bicycle,bicycle,0,0293_sty_s04_0_bicycle_00_bicycle-0013-ILSVRC2012-val-00012667.png
subject-04,1,294,1.05465698242188,cat,chair,0,0294_sty_s04_0_chair_00_chair-0159-ILSVRC2012-val-00011028.png
subject-04,1,295,0.82434606552124,boat,boat,0,0295_sty_s04_0_boat_00_boat-0048-ILSVRC2012-val-00046387.png
subject-04,1,296,1.17405200004578,airplane,chair,0,0296_sty_s04_0_chair_00_chair-0098-ILSVRC2012-val-00044181.png
subject-04,1,297,0.929795026779175,car,car,0,0297_sty_s04_0_car_00_car-0149-ILSVRC2012-val-00049427.png
subject-04,1,298,0.831824064254761,car,truck,0,0298_sty_s04_0_truck_00_truck-0284-ILSVRC2012-val-00030765.png
subject-04,1,299,0.725478887557983,oven,elephant,0,0299_sty_s04_0_elephant_00_elephant-0028-ILSVRC2012-val-00025237.png
subject-04,1,300,0.785467147827148,airplane,airplane,0,0300_sty_s04_0_airplane_00_airplane-0025-ILSVRC2012-val-00024747.png
subject-04,1,301,1.00110292434692,oven,oven,0,0301_sty_s04_0_oven_00_oven-0044-ILSVRC2012-val-00041974.png
subject-04,1,302,0.926966905593872,dog,dog,0,0302_sty_s04_0_dog_00_dog-0303-ILSVRC2012-val-00002521.png
subject-04,1,303,0.917212963104248,car,truck,0,0303_sty_s04_0_truck_00_truck-0196-ILSVRC2012-val-00044805.png
subject-04,1,304,0.650528907775879,boat,car,0,0304_sty_s04_0_car_00_car-0052-ILSVRC2012-val-00004387.png
subject-04,1,305,0.764699935913086,bear,dog,0,0305_sty_s04_0_dog_00_dog-4999-ILSVRC2012-val-00049046.png
subject-04,1,306,0.638268947601318,clock,clock,0,0306_sty_s04_0_clock_00_clock-0010-ILSVRC2012-val-00006858.png
subject-04,1,307,0.728276014328003,car,truck,0,0307_sty_s04_0_truck_00_truck-0265-ILSVRC2012-val-00010166.png
subject-04,1,308,0.71786904335022,keyboard,bear,0,0308_sty_s04_0_bear_00_bear-0165-ILSVRC2012-val-00019901.png
subject-04,1,309,0.709769010543823,oven,chair,0,0309_sty_s04_0_chair_00_chair-0188-ILSVRC2012-val-00041720.png
subject-04,1,310,1.48153495788574,dog,bear,0,0310_sty_s04_0_bear_00_bear-0106-ILSVRC2012-val-00007578.png
subject-04,1,311,0.879369974136353,elephant,elephant,0,0311_sty_s04_0_elephant_00_elephant-0002-ILSVRC2012-val-00001850.png
subject-04,1,312,0.839107036590576,oven,car,0,0312_sty_s04_0_car_00_car-0111-ILSVRC2012-val-00007125.png
subject-04,1,313,0.721123933792114,knife,knife,0,0313_sty_s04_0_knife_00_knife-0037-ILSVRC2012-val-00034765.png
subject-04,1,314,0.722915172576904,car,car,0,0314_sty_s04_0_car_00_car-0053-ILSVRC2012-val-00004685.png
subject-04,1,315,1.47852182388306,bear,car,0,0315_sty_s04_0_car_00_car-0050-ILSVRC2012-val-00048556.png
subject-04,1,316,1.1925060749054,car,knife,0,0316_sty_s04_0_knife_00_knife-0042-ILSVRC2012-val-00039665.png
subject-04,1,317,0.682498931884766,bear,bear,0,0317_sty_s04_0_bear_00_bear-0078-ILSVRC2012-val-00030951.png
subject-04,1,318,0.664126873016357,clock,cat,0,0318_sty_s04_0_cat_00_cat-0062-ILSVRC2012-val-00013788.png
subject-04,1,319,1.50011205673218,chair,cat,0,0319_sty_s04_0_cat_00_cat-0056-ILSVRC2012-val-00007676.png
subject-04,1,320,0.741801977157593,bicycle,bicycle,0,0320_sty_s04_0_bicycle_00_bicycle-0078-ILSVRC2012-val-00030892.png
subject-04,1,321,0.988047122955322,elephant,oven,0,0321_sty_s04_0_oven_00_oven-0015-ILSVRC2012-val-00013982.png
subject-04,1,322,1.03180408477783,bear,bear,0,0322_sty_s04_0_bear_00_bear-0021-ILSVRC2012-val-00031253.png
subject-04,1,323,1.23367094993591,elephant,elephant,0,0323_sty_s04_0_elephant_00_elephant-0010-ILSVRC2012-val-00011002.png
subject-04,1,324,0.647799968719482,boat,boat,0,0324_sty_s04_0_boat_00_boat-0179-ILSVRC2012-val-00026763.png
subject-04,1,325,1.03329014778137,cat,airplane,0,0325_sty_s04_0_airplane_00_airplane-0027-ILSVRC2012-val-00026859.png
subject-04,1,326,0.77505898475647,bottle,boat,0,0326_sty_s04_0_boat_00_boat-0082-ILSVRC2012-val-00027612.png
subject-04,1,327,0.640888929367065,keyboard,keyboard,0,0327_sty_s04_0_keyboard_00_keyboard-0085-ILSVRC2012-val-00037048.png
subject-04,1,328,1.09463882446289,dog,chair,0,0328_sty_s04_0_chair_00_chair-0170-ILSVRC2012-val-00022051.png
subject-04,1,329,0.964455127716064,clock,oven,0,0329_sty_s04_0_oven_00_oven-0004-ILSVRC2012-val-00003075.png
subject-04,1,330,0.860252857208252,bicycle,bicycle,0,0330_sty_s04_0_bicycle_00_bicycle-0079-ILSVRC2012-val-00031485.png
subject-04,1,331,0.668174982070923,cat,cat,0,0331_sty_s04_0_cat_00_cat-0082-ILSVRC2012-val-00025723.png
subject-04,1,332,1.26223301887512,chair,bottle,0,0332_sty_s04_0_bottle_00_bottle-0189-ILSVRC2012-val-00040070.png
subject-04,1,333,0.725642919540405,car,car,0,0333_sty_s04_0_car_00_car-0121-ILSVRC2012-val-00016638.png
subject-04,1,334,0.77752685546875,bird,bird,0,0334_sty_s04_0_bird_00_bird-0532-ILSVRC2012-val-00028181.png
subject-04,1,335,0.643419981002808,keyboard,keyboard,0,0335_sty_s04_0_keyboard_00_keyboard-0029-ILSVRC2012-val-00027307.png
subject-04,1,336,0.921241998672485,dog,dog,0,0336_sty_s04_0_dog_00_dog-2253-ILSVRC2012-val-00003731.png
subject-04,1,337,0.950901985168457,bear,elephant,0,0337_sty_s04_0_elephant_00_elephant-0080-ILSVRC2012-val-00030840.png
subject-04,1,338,1.17676997184753,boat,boat,0,0338_sty_s04_0_boat_00_boat-0225-ILSVRC2012-val-00022075.png
subject-04,1,339,0.61865496635437,oven,cat,0,0339_sty_s04_0_cat_00_cat-0291-ILSVRC2012-val-00035821.png
subject-04,1,340,0.978470087051392,cat,cat,0,0340_sty_s04_0_cat_00_cat-0284-ILSVRC2012-val-00027069.png
subject-04,1,341,0.900219917297363,dog,dog,0,0341_sty_s04_0_dog_00_dog-2195-ILSVRC2012-val-00046002.png
subject-04,1,342,0.794012069702148,bicycle,bicycle,0,0342_sty_s04_0_bicycle_00_bicycle-0067-ILSVRC2012-val-00018304.png
subject-04,1,343,0.643770933151245,oven,bottle,0,0343_sty_s04_0_bottle_00_bottle-0022-ILSVRC2012-val-00022396.png
subject-04,1,344,1.04562497138977,dog,elephant,0,0344_sty_s04_0_elephant_00_elephant-0011-ILSVRC2012-val-00011247.png
subject-04,1,345,0.871695041656494,dog,dog,0,0345_sty_s04_0_dog_00_dog-0247-ILSVRC2012-val-00045683.png
subject-04,1,346,0.923271894454956,car,car,0,0346_sty_s04_0_car_00_car-0118-ILSVRC2012-val-00012327.png
subject-04,1,347,1.39304780960083,bottle,clock,0,0347_sty_s04_0_clock_00_clock-0007-ILSVRC2012-val-00005490.png
subject-04,1,348,0.615100145339966,oven,oven,0,0348_sty_s04_0_oven_00_oven-0007-ILSVRC2012-val-00005817.png
subject-04,1,349,0.690952062606812,clock,knife,0,0349_sty_s04_0_knife_00_knife-0028-ILSVRC2012-val-00026439.png
subject-04,1,350,0.674521923065186,oven,oven,0,0350_sty_s04_0_oven_00_oven-0001-ILSVRC2012-val-00001625.png
subject-04,1,351,1.50003981590271,car,bear,0,0351_sty_s04_0_bear_00_bear-0116-ILSVRC2012-val-00020332.png
subject-04,1,352,0.816567897796631,knife,chair,0,0352_sty_s04_0_chair_00_chair-0193-ILSVRC2012-val-00044295.png
subject-04,1,353,0.739977836608887,clock,clock,0,0353_sty_s04_0_clock_00_clock-0040-ILSVRC2012-val-00035392.png
subject-04,1,354,0.665734052658081,truck,truck,0,0354_sty_s04_0_truck_00_truck-0018-ILSVRC2012-val-00016650.png
subject-04,1,355,0.631549835205078,clock,clock,0,0355_sty_s04_0_clock_00_clock-0023-ILSVRC2012-val-00017973.png
subject-04,1,356,0.817417144775391,cat,oven,0,0356_sty_s04_0_oven_00_oven-0012-ILSVRC2012-val-00010756.png
subject-04,1,357,0.915621995925903,bird,bird,0,0357_sty_s04_0_bird_00_bird-1188-ILSVRC2012-val-00040014.png
subject-04,1,358,0.545022010803223,clock,clock,0,0358_sty_s04_0_clock_00_clock-0034-ILSVRC2012-val-00026380.png
subject-04,1,359,0.729022026062012,knife,boat,0,0359_sty_s04_0_boat_00_boat-0142-ILSVRC2012-val-00040889.png
subject-04,1,360,0.82056188583374,boat,airplane,0,0360_sty_s04_0_airplane_00_airplane-0029-ILSVRC2012-val-00030319.png
subject-04,1,361,1.33656597137451,cat,chair,0,0361_sty_s04_0_chair_00_chair-0138-ILSVRC2012-val-00038750.png
subject-04,1,362,1.33241581916809,clock,keyboard,0,0362_sty_s04_0_keyboard_00_keyboard-0061-ILSVRC2012-val-00008530.png
subject-04,1,363,0.763992071151733,bird,bird,0,0363_sty_s04_0_bird_00_bird-2405-ILSVRC2012-val-00007988.png
subject-04,1,364,0.705909967422485,cat,elephant,0,0364_sty_s04_0_elephant_00_elephant-0055-ILSVRC2012-val-00003538.png
subject-04,1,365,1.10976600646973,keyboard,bottle,0,0365_sty_s04_0_bottle_00_bottle-0154-ILSVRC2012-val-00003340.png
subject-04,1,366,1.46946382522583,chair,keyboard,0,0366_sty_s04_0_keyboard_00_keyboard-0081-ILSVRC2012-val-00028754.png
subject-04,1,367,0.831624984741211,keyboard,keyboard,0,0367_sty_s04_0_keyboard_00_keyboard-0025-ILSVRC2012-val-00026405.png
subject-04,1,368,0.695441007614136,dog,dog,0,0368_sty_s04_0_dog_00_dog-0397-ILSVRC2012-val-00044140.png
subject-04,1,369,0.832841873168945,car,truck,0,0369_sty_s04_0_truck_00_truck-0225-ILSVRC2012-val-00026079.png
subject-04,1,370,0.839114904403687,bicycle,bicycle,0,0370_sty_s04_0_bicycle_00_bicycle-0089-ILSVRC2012-val-00042393.png
subject-04,1,371,0.6788489818573,clock,clock,0,0371_sty_s04_0_clock_00_clock-0108-ILSVRC2012-val-00011957.png
subject-04,1,372,0.748332977294922,bear,bear,0,0372_sty_s04_0_bear_00_bear-0091-ILSVRC2012-val-00041813.png
subject-04,1,373,0.942299127578735,cat,cat,0,0373_sty_s04_0_cat_00_cat-0150-ILSVRC2012-val-00049996.png
subject-04,1,374,1.46997594833374,car,bottle,0,0374_sty_s04_0_bottle_00_bottle-0180-ILSVRC2012-val-00027613.png
subject-04,1,375,0.583853960037231,bird,bird,0,0375_sty_s04_0_bird_00_bird-2410-ILSVRC2012-val-00010355.png
subject-04,1,376,0.917711973190308,car,truck,0,0376_sty_s04_0_truck_00_truck-0194-ILSVRC2012-val-00042924.png
subject-04,1,377,0.531535863876343,cat,cat,0,0377_sty_s04_0_cat_00_cat-0123-ILSVRC2012-val-00014813.png
subject-04,1,378,0.7152099609375,truck,truck,0,0378_sty_s04_0_truck_00_truck-0310-ILSVRC2012-val-00016077.png
subject-04,1,379,0.565037965774536,oven,oven,0,0379_sty_s04_0_oven_00_oven-0008-ILSVRC2012-val-00007052.png
subject-04,1,380,1.41501688957214,chair,oven,0,0380_sty_s04_0_oven_00_oven-0049-ILSVRC2012-val-00048848.png
subject-04,1,381,0.978728055953979,clock,clock,0,0381_sty_s04_0_clock_00_clock-0045-ILSVRC2012-val-00043497.png
subject-04,1,382,0.780632972717285,oven,bottle,0,0382_sty_s04_0_bottle_00_bottle-0170-ILSVRC2012-val-00020948.png
subject-04,1,383,0.706701993942261,airplane,airplane,0,0383_sty_s04_0_airplane_00_airplane-0018-ILSVRC2012-val-00019677.png
subject-04,1,384,0.868083000183105,bear,bear,0,0384_sty_s04_0_bear_00_bear-0132-ILSVRC2012-val-00036763.png
subject-04,1,385,0.997909069061279,bicycle,knife,0,0385_sty_s04_0_knife_00_knife-0021-ILSVRC2012-val-00016901.png
subject-04,1,386,0.915837049484253,bicycle,truck,0,0386_sty_s04_0_truck_00_truck-0200-ILSVRC2012-val-00048418.png
subject-04,1,387,0.765531063079834,boat,knife,0,0387_sty_s04_0_knife_00_knife-0036-ILSVRC2012-val-00034599.png
subject-04,1,388,0.861546039581299,bird,bird,0,0388_sty_s04_0_bird_00_bird-0486-ILSVRC2012-val-00037420.png
subject-04,1,389,1.2830982208252,boat,boat,0,0389_sty_s04_0_boat_00_boat-0026-ILSVRC2012-val-00026341.png
subject-04,1,390,0.653258800506592,car,car,0,0390_sty_s04_0_car_00_car-0065-ILSVRC2012-val-00016613.png
subject-04,1,391,0.65286111831665,cat,airplane,0,0391_sty_s04_0_airplane_00_airplane-0010-ILSVRC2012-val-00012263.png
subject-04,1,392,0.702419996261597,car,car,0,0392_sty_s04_0_car_00_car-0060-ILSVRC2012-val-00014208.png
subject-04,1,393,0.638515949249268,bicycle,airplane,0,0393_sty_s04_0_airplane_00_airplane-0017-ILSVRC2012-val-00019179.png
subject-04,1,394,0.78258204460144,cat,knife,0,0394_sty_s04_0_knife_00_knife-0007-ILSVRC2012-val-00004815.png
subject-04,1,395,1.03037405014038,chair,keyboard,0,0395_sty_s04_0_keyboard_00_keyboard-0047-ILSVRC2012-val-00046306.png
subject-04,1,396,1.04781413078308,boat,knife,0,0396_sty_s04_0_knife_00_knife-0026-ILSVRC2012-val-00024520.png
subject-04,1,397,1.50001811981201,knife,knife,0,0397_sty_s04_0_knife_00_knife-0030-ILSVRC2012-val-00027427.png
subject-04,1,398,0.743494033813477,chair,chair,0,0398_sty_s04_0_chair_00_chair-0118-ILSVRC2012-val-00018123.png
subject-04,1,399,0.607229948043823,clock,bird,0,0399_sty_s04_0_bird_00_bird-1452-ILSVRC2012-val-00002997.png
subject-04,1,400,0.687037229537964,boat,cat,0,0400_sty_s04_0_cat_00_cat-0258-ILSVRC2012-val-00006112.png
subject-04,1,401,1.04890394210815,clock,clock,0,0401_sty_s04_0_clock_00_clock-0038-ILSVRC2012-val-00032489.png
subject-04,1,402,1.25501894950867,dog,dog,0,0402_sty_s04_0_dog_00_dog-2368-ILSVRC2012-val-00011895.png
subject-04,1,403,0.868757963180542,keyboard,keyboard,0,0403_sty_s04_0_keyboard_00_keyboard-0080-ILSVRC2012-val-00028169.png
subject-04,1,404,1.25638484954834,chair,truck,0,0404_sty_s04_0_truck_00_truck-0027-ILSVRC2012-val-00025838.png
subject-04,1,405,0.596131086349487,cat,cat,0,0405_sty_s04_0_cat_00_cat-0113-ILSVRC2012-val-00007808.png
subject-04,1,406,1.28813791275024,elephant,elephant,0,0406_sty_s04_0_elephant_00_elephant-0098-ILSVRC2012-val-00047540.png
subject-04,1,407,1.45589303970337,bird,bird,0,0407_sty_s04_0_bird_00_bird-2433-ILSVRC2012-val-00028670.png
subject-04,1,408,0.693645000457764,bird,bird,0,0408_sty_s04_0_bird_00_bird-0157-ILSVRC2012-val-00005336.png
subject-04,1,409,0.791486978530884,bear,bear,0,0409_sty_s04_0_bear_00_bear-0067-ILSVRC2012-val-00017273.png
subject-04,1,410,0.605341196060181,keyboard,keyboard,0,0410_sty_s04_0_keyboard_00_keyboard-0023-ILSVRC2012-val-00023014.png
subject-04,1,411,0.766839981079102,oven,chair,0,0411_sty_s04_0_chair_00_chair-0155-ILSVRC2012-val-00005160.png
subject-04,1,412,0.902984857559204,keyboard,keyboard,0,0412_sty_s04_0_keyboard_00_keyboard-0070-ILSVRC2012-val-00015929.png
subject-04,1,413,1.04275488853455,clock,knife,0,0413_sty_s04_0_knife_00_knife-0025-ILSVRC2012-val-00022700.png
subject-04,1,414,1.2884418964386,truck,bird,0,0414_sty_s04_0_bird_00_bird-1913-ILSVRC2012-val-00012475.png
subject-04,1,415,1.24426102638245,dog,dog,0,0415_sty_s04_0_dog_00_dog-1398-ILSVRC2012-val-00046547.png
subject-04,1,416,1.38209795951843,car,car,0,0416_sty_s04_0_car_00_car-0064-ILSVRC2012-val-00016337.png
subject-04,1,417,1.50014114379883,truck,clock,0,0417_sty_s04_0_clock_00_clock-0100-ILSVRC2012-val-00049759.png
subject-04,1,418,0.953712940216064,oven,keyboard,0,0418_sty_s04_0_keyboard_00_keyboard-0073-ILSVRC2012-val-00019503.png
subject-04,1,419,0.789448976516724,chair,elephant,0,0419_sty_s04_0_elephant_00_elephant-0090-ILSVRC2012-val-00037659.png
subject-04,1,420,0.667418956756592,cat,cat,0,0420_sty_s04_0_cat_00_cat-0185-ILSVRC2012-val-00038168.png
subject-04,1,421,1.07743191719055,bicycle,truck,0,0421_sty_s04_0_truck_00_truck-0116-ILSVRC2012-val-00016053.png
subject-04,1,422,0.672852993011475,clock,chair,0,0422_sty_s04_0_chair_00_chair-0039-ILSVRC2012-val-00041772.png
subject-04,1,423,0.956736087799072,airplane,knife,0,0423_sty_s04_0_knife_00_knife-0014-ILSVRC2012-val-00010886.png
subject-04,1,424,1.50015592575073,cat,cat,0,0424_sty_s04_0_cat_00_cat-0050-ILSVRC2012-val-00047911.png
subject-04,1,425,1.21841788291931,clock,chair,0,0425_sty_s04_0_chair_00_chair-0183-ILSVRC2012-val-00035142.png
subject-04,1,426,0.972157001495361,car,car,0,0426_sty_s04_0_car_00_car-0083-ILSVRC2012-val-00027508.png
subject-04,1,427,0.585839986801147,car,car,0,0427_sty_s04_0_car_00_car-0025-ILSVRC2012-val-00023474.png
subject-04,1,428,0.677799940109253,bear,boat,0,0428_sty_s04_0_boat_00_boat-0070-ILSVRC2012-val-00017026.png
subject-04,1,429,0.962019920349121,airplane,dog,0,0429_sty_s04_0_dog_00_dog-3864-ILSVRC2012-val-00011457.png
subject-04,1,430,0.631402015686035,clock,clock,0,0430_sty_s04_0_clock_00_clock-0128-ILSVRC2012-val-00030987.png
subject-04,1,431,0.887269020080566,boat,airplane,0,0431_sty_s04_0_airplane_00_airplane-0014-ILSVRC2012-val-00016995.png
subject-04,1,432,0.547124147415161,car,car,0,0432_sty_s04_0_car_00_car-0117-ILSVRC2012-val-00010983.png
subject-04,1,433,0.692923069000244,bicycle,bicycle,0,0433_sty_s04_0_bicycle_00_bicycle-0100-ILSVRC2012-val-00049750.png
subject-04,1,434,1.4646909236908,boat,boat,0,0434_sty_s04_0_boat_00_boat-0066-ILSVRC2012-val-00013961.png
subject-04,1,435,1.07072114944458,keyboard,oven,0,0435_sty_s04_0_oven_00_oven-0045-ILSVRC2012-val-00045813.png
subject-04,1,436,1.5001060962677,oven,truck,0,0436_sty_s04_0_truck_00_truck-0028-ILSVRC2012-val-00028536.png
subject-04,1,437,1.08608198165894,chair,chair,0,0437_sty_s04_0_chair_00_chair-0030-ILSVRC2012-val-00026896.png
subject-04,1,438,1.48994517326355,bicycle,knife,0,0438_sty_s04_0_knife_00_knife-0050-ILSVRC2012-val-00048891.png
subject-04,1,439,0.767667055130005,bicycle,bicycle,0,0439_sty_s04_0_bicycle_00_bicycle-0016-ILSVRC2012-val-00016532.png
subject-04,1,440,0.625507831573486,cat,cat,0,0440_sty_s04_0_cat_00_cat-0242-ILSVRC2012-val-00040192.png
subject-04,1,441,0.645437955856323,boat,truck,0,0441_sty_s04_0_truck_00_truck-0019-ILSVRC2012-val-00019954.png
subject-04,1,442,0.72702693939209,clock,clock,0,0442_sty_s04_0_clock_00_clock-0082-ILSVRC2012-val-00033627.png
subject-04,1,443,1.21294808387756,chair,bird,0,0443_sty_s04_0_bird_00_bird-1865-ILSVRC2012-val-00009672.png
subject-04,1,444,1.14717483520508,bottle,knife,0,0444_sty_s04_0_knife_00_knife-0040-ILSVRC2012-val-00038348.png
subject-04,1,445,1.26094007492065,bicycle,airplane,0,0445_sty_s04_0_airplane_00_airplane-0045-ILSVRC2012-val-00044253.png
subject-04,1,446,0.750531911849976,bicycle,bicycle,0,0446_sty_s04_0_bicycle_00_bicycle-0011-ILSVRC2012-val-00011821.png
subject-04,1,447,0.7622230052948,clock,clock,0,0447_sty_s04_0_clock_00_clock-0086-ILSVRC2012-val-00041483.png
subject-04,1,448,1.35202097892761,boat,chair,0,0448_sty_s04_0_chair_00_chair-0033-ILSVRC2012-val-00031805.png
subject-04,1,449,1.39785194396973,car,car,0,0449_sty_s04_0_car_00_car-0058-ILSVRC2012-val-00010676.png
subject-04,1,450,1.08181595802307,bottle,chair,0,0450_sty_s04_0_chair_00_chair-0053-ILSVRC2012-val-00001855.png
subject-04,1,451,1.44773507118225,oven,elephant,0,0451_sty_s04_0_elephant_00_elephant-0013-ILSVRC2012-val-00014219.png
subject-04,1,452,1.26321601867676,clock,knife,0,0452_sty_s04_0_knife_00_knife-0024-ILSVRC2012-val-00021297.png
subject-04,1,453,1.50013589859009,boat,keyboard,0,0453_sty_s04_0_keyboard_00_keyboard-0065-ILSVRC2012-val-00012212.png
subject-04,1,454,0.79311990737915,airplane,boat,0,0454_sty_s04_0_boat_00_boat-0103-ILSVRC2012-val-00002308.png
subject-04,1,455,1.04111790657043,boat,boat,0,0455_sty_s04_0_boat_00_boat-0011-ILSVRC2012-val-00011563.png
subject-04,1,456,1.32873892784119,cat,dog,0,0456_sty_s04_0_dog_00_dog-2876-ILSVRC2012-val-00027038.png
subject-04,1,457,0.692387104034424,car,car,0,0457_sty_s04_0_car_00_car-0093-ILSVRC2012-val-00038956.png
subject-04,1,458,0.868211984634399,bicycle,knife,0,0458_sty_s04_0_knife_00_knife-0015-ILSVRC2012-val-00011081.png
subject-04,1,459,0.912196159362793,boat,bear,0,0459_sty_s04_0_bear_00_bear-0149-ILSVRC2012-val-00048105.png
subject-04,1,460,0.861971855163574,airplane,truck,0,0460_sty_s04_0_truck_00_truck-0103-ILSVRC2012-val-00004552.png
subject-04,1,461,0.973894119262695,keyboard,clock,0,0461_sty_s04_0_clock_00_clock-0062-ILSVRC2012-val-00014987.png
subject-04,1,462,1.18330907821655,chair,airplane,0,0462_sty_s04_0_airplane_00_airplane-0011-ILSVRC2012-val-00014425.png
subject-04,1,463,1.12328886985779,bear,airplane,0,0463_sty_s04_0_airplane_00_airplane-0006-ILSVRC2012-val-00008292.png
subject-04,1,464,0.752853870391846,elephant,elephant,0,0464_sty_s04_0_elephant_00_elephant-0003-ILSVRC2012-val-00003280.png
subject-04,1,465,1.02281785011292,bird,bird,0,0465_sty_s04_0_bird_00_bird-0009-ILSVRC2012-val-00007530.png
subject-04,1,466,0.65302300453186,car,car,0,0466_sty_s04_0_car_00_car-0030-ILSVRC2012-val-00029057.png
subject-04,1,467,1.15840601921082,airplane,chair,0,0467_sty_s04_0_chair_00_chair-0045-ILSVRC2012-val-00044898.png
subject-04,1,468,0.726424932479858,cat,cat,0,0468_sty_s04_0_cat_00_cat-0162-ILSVRC2012-val-00012173.png
subject-04,1,469,0.92625904083252,knife,knife,0,0469_sty_s04_0_knife_00_knife-0016-ILSVRC2012-val-00012885.png
subject-04,1,470,1.0558180809021,boat,boat,0,0470_sty_s04_0_boat_00_boat-0236-ILSVRC2012-val-00032584.png
subject-04,1,471,0.793826818466187,airplane,elephant,0,0471_sty_s04_0_elephant_00_elephant-0004-ILSVRC2012-val-00004882.png
subject-04,1,472,0.991455078125,chair,oven,0,0472_sty_s04_0_oven_00_oven-0026-ILSVRC2012-val-00022397.png
subject-04,1,473,0.637435913085938,clock,clock,0,0473_sty_s04_0_clock_00_clock-0043-ILSVRC2012-val-00041613.png
subject-04,1,474,1.10511684417725,knife,boat,0,0474_sty_s04_0_boat_00_boat-0244-ILSVRC2012-val-00040974.png
subject-04,1,475,0.734966993331909,clock,clock,0,0475_sty_s04_0_clock_00_clock-0020-ILSVRC2012-val-00016889.png
subject-04,1,476,0.718622922897339,elephant,elephant,0,0476_sty_s04_0_elephant_00_elephant-0043-ILSVRC2012-val-00040923.png
subject-04,1,477,0.674488067626953,cat,cat,0,0477_sty_s04_0_cat_00_cat-0169-ILSVRC2012-val-00020688.png
subject-04,1,478,0.9984290599823,dog,bottle,0,0478_sty_s04_0_bottle_00_bottle-0108-ILSVRC2012-val-00008437.png
subject-04,1,479,1.47808814048767,elephant,elephant,0,0479_sty_s04_0_elephant_00_elephant-0059-ILSVRC2012-val-00005109.png
subject-04,1,480,0.750110149383545,car,truck,0,0480_sty_s04_0_truck_00_truck-0134-ILSVRC2012-val-00035864.png
subject-04,1,481,1.25240111351013,oven,oven,0,0481_sty_s04_0_oven_00_oven-0037-ILSVRC2012-val-00037357.png
subject-04,1,482,0.719825029373169,bird,bird,0,0482_sty_s04_0_bird_00_bird-0119-ILSVRC2012-val-00016252.png
subject-04,1,483,0.873586177825928,truck,car,0,0483_sty_s04_0_car_00_car-0045-ILSVRC2012-val-00042416.png
subject-04,1,484,0.487348079681396,bottle,keyboard,0,0484_sty_s04_0_keyboard_00_keyboard-0015-ILSVRC2012-val-00012808.png
subject-04,1,485,0.833276033401489,oven,oven,0,0485_sty_s04_0_oven_00_oven-0043-ILSVRC2012-val-00041628.png
subject-04,1,486,0.705099105834961,clock,clock,0,0486_sty_s04_0_clock_00_clock-0032-ILSVRC2012-val-00024425.png
subject-04,1,487,1.23874998092651,bicycle,bicycle,0,0487_sty_s04_0_bicycle_00_bicycle-0056-ILSVRC2012-val-00005330.png
subject-04,1,488,0.776754856109619,clock,clock,0,0488_sty_s04_0_clock_00_clock-0013-ILSVRC2012-val-00013244.png
subject-04,1,489,1.15048599243164,chair,chair,0,0489_sty_s04_0_chair_00_chair-0127-ILSVRC2012-val-00024620.png
subject-04,1,490,0.760267019271851,cat,cat,0,0490_sty_s04_0_cat_00_cat-0298-ILSVRC2012-val-00042529.png
subject-04,1,491,0.744288206100464,bottle,bottle,0,0491_sty_s04_0_bottle_00_bottle-0066-ILSVRC2012-val-00016336.png
subject-04,1,492,0.944116115570068,bear,elephant,0,0492_sty_s04_0_elephant_00_elephant-0041-ILSVRC2012-val-00038720.png
subject-04,1,493,1.18978214263916,dog,dog,0,0493_sty_s04_0_dog_00_dog-1178-ILSVRC2012-val-00022137.png
subject-04,1,494,1.02138495445251,airplane,elephant,0,0494_sty_s04_0_elephant_00_elephant-0074-ILSVRC2012-val-00022907.png
subject-04,1,495,1.17127799987793,bear,bear,0,0495_sty_s04_0_bear_00_bear-0112-ILSVRC2012-val-00016340.png
subject-04,1,496,1.39500904083252,oven,chair,0,0496_sty_s04_0_chair_00_chair-0092-ILSVRC2012-val-00041814.png
subject-04,1,497,0.965009927749634,elephant,elephant,0,0497_sty_s04_0_elephant_00_elephant-0036-ILSVRC2012-val-00034664.png
subject-04,1,498,0.962831974029541,airplane,airplane,0,0498_sty_s04_0_airplane_00_airplane-0036-ILSVRC2012-val-00034342.png
subject-04,1,499,0.740707874298096,boat,bicycle,0,0499_sty_s04_0_bicycle_00_bicycle-0007-ILSVRC2012-val-00006395.png
subject-04,1,500,0.810713052749634,cat,cat,0,0500_sty_s04_0_cat_00_cat-0137-ILSVRC2012-val-00027906.png
subject-04,1,501,0.688322067260742,bicycle,bicycle,0,0501_sty_s04_0_bicycle_00_bicycle-0046-ILSVRC2012-val-00042496.png
subject-04,1,502,0.70018196105957,car,car,0,0502_sty_s04_0_car_00_car-0059-ILSVRC2012-val-00014010.png
subject-04,1,503,1.05776500701904,dog,bear,0,0503_sty_s04_0_bear_00_bear-0191-ILSVRC2012-val-00044349.png
subject-04,1,504,0.755608081817627,airplane,oven,0,0504_sty_s04_0_oven_00_oven-0016-ILSVRC2012-val-00014839.png
subject-04,1,505,0.899415969848633,bird,bird,0,0505_sty_s04_0_bird_00_bird-1861-ILSVRC2012-val-00007811.png
subject-04,1,506,1.43733382225037,car,bicycle,0,0506_sty_s04_0_bicycle_00_bicycle-0073-ILSVRC2012-val-00027449.png
subject-04,1,507,0.685285806655884,clock,knife,0,0507_sty_s04_0_knife_00_knife-0027-ILSVRC2012-val-00025279.png
subject-04,1,508,1.01283097267151,dog,dog,0,0508_sty_s04_0_dog_00_dog-3412-ILSVRC2012-val-00014775.png
subject-04,1,509,1.46286106109619,boat,boat,0,0509_sty_s04_0_boat_00_boat-0111-ILSVRC2012-val-00009680.png
subject-04,1,510,1.3486168384552,bear,cat,0,0510_sty_s04_0_cat_00_cat-0165-ILSVRC2012-val-00017325.png
subject-04,1,511,0.930360078811646,bicycle,bird,0,0511_sty_s04_0_bird_00_bird-0228-ILSVRC2012-val-00017712.png
subject-04,1,512,0.872102022171021,cat,dog,0,0512_sty_s04_0_dog_00_dog-2391-ILSVRC2012-val-00039144.png
subject-04,1,513,0.751873016357422,bear,bear,0,0513_sty_s04_0_bear_00_bear-0062-ILSVRC2012-val-00014029.png
subject-04,1,514,0.692134141921997,bicycle,bicycle,0,0514_sty_s04_0_bicycle_00_bicycle-0010-ILSVRC2012-val-00010544.png
subject-04,1,515,0.743531227111816,dog,dog,0,0515_sty_s04_0_dog_00_dog-0220-ILSVRC2012-val-00017568.png
subject-04,1,516,0.833395957946777,car,truck,0,0516_sty_s04_0_truck_00_truck-0177-ILSVRC2012-val-00027892.png
subject-04,1,517,0.837562084197998,cat,cat,0,0517_sty_s04_0_cat_00_cat-0031-ILSVRC2012-val-00030706.png
subject-04,1,518,0.663097143173218,bird,bird,0,0518_sty_s04_0_bird_00_bird-0701-ILSVRC2012-val-00000075.png
subject-04,1,519,1.14879298210144,chair,oven,0,0519_sty_s04_0_oven_00_oven-0014-ILSVRC2012-val-00012082.png
subject-04,1,520,1.05651497840881,chair,chair,0,0520_sty_s04_0_chair_00_chair-0181-ILSVRC2012-val-00033160.png
subject-04,1,521,0.860376834869385,airplane,airplane,0,0521_sty_s04_0_airplane_00_airplane-0007-ILSVRC2012-val-00009537.png
subject-04,1,522,0.636133909225464,bird,bird,0,0522_sty_s04_0_bird_00_bird-2222-ILSVRC2012-val-00015392.png
subject-04,1,523,1.25795793533325,bicycle,dog,0,0523_sty_s04_0_dog_00_dog-2121-ILSVRC2012-val-00015705.png
subject-04,1,524,1.05783796310425,car,elephant,0,0524_sty_s04_0_elephant_00_elephant-0022-ILSVRC2012-val-00022028.png
subject-04,1,525,1.43569493293762,bottle,bottle,0,0525_sty_s04_0_bottle_00_bottle-0126-ILSVRC2012-val-00022079.png
subject-04,1,526,1.50002908706665,chair,bottle,0,0526_sty_s04_0_bottle_00_bottle-0334-ILSVRC2012-val-00036776.png
subject-04,1,527,1.41322994232178,oven,clock,0,0527_sty_s04_0_clock_00_clock-0028-ILSVRC2012-val-00021179.png
subject-04,1,528,0.707203149795532,boat,airplane,0,0528_sty_s04_0_airplane_00_airplane-0046-ILSVRC2012-val-00046862.png
subject-04,1,529,1.50001907348633,clock,boat,0,0529_sty_s04_0_boat_00_boat-0137-ILSVRC2012-val-00035374.png
subject-04,1,530,1.37886118888855,elephant,bird,0,0530_sty_s04_0_bird_00_bird-1941-ILSVRC2012-val-00042829.png
subject-04,1,531,1.01443290710449,knife,bottle,0,0531_sty_s04_0_bottle_00_bottle-0153-ILSVRC2012-val-00003318.png
subject-04,1,532,NaN,na,clock,0,0532_sty_s04_0_clock_00_clock-0112-ILSVRC2012-val-00014635.png
subject-04,1,533,0.838034868240356,car,oven,0,0533_sty_s04_0_oven_00_oven-0036-ILSVRC2012-val-00035817.png
subject-04,1,534,0.747934103012085,keyboard,bear,0,0534_sty_s04_0_bear_00_bear-0114-ILSVRC2012-val-00017605.png
subject-04,1,535,0.6177818775177,bird,bird,0,0535_sty_s04_0_bird_00_bird-0995-ILSVRC2012-val-00046534.png
subject-04,1,536,0.793636083602905,bird,bird,0,0536_sty_s04_0_bird_00_bird-2248-ILSVRC2012-val-00044992.png
subject-04,1,537,0.859335899353027,boat,bicycle,0,0537_sty_s04_0_bicycle_00_bicycle-0022-ILSVRC2012-val-00023266.png
subject-04,1,538,0.683060884475708,bottle,bottle,0,0538_sty_s04_0_bottle_00_bottle-0011-ILSVRC2012-val-00009225.png
subject-04,1,539,0.586960077285767,clock,chair,0,0539_sty_s04_0_chair_00_chair-0122-ILSVRC2012-val-00019867.png
subject-04,1,540,0.692693948745728,keyboard,keyboard,0,0540_sty_s04_0_keyboard_00_keyboard-0054-ILSVRC2012-val-00001100.png
subject-04,1,541,0.582699060440063,bird,bird,0,0541_sty_s04_0_bird_00_bird-0238-ILSVRC2012-val-00030657.png
subject-04,1,542,1.15449190139771,chair,keyboard,0,0542_sty_s04_0_keyboard_00_keyboard-0005-ILSVRC2012-val-00001687.png
subject-04,1,543,1.50014185905457,oven,bottle,0,0543_sty_s04_0_bottle_00_bottle-0086-ILSVRC2012-val-00036795.png
subject-04,1,544,0.718220949172974,boat,chair,0,0544_sty_s04_0_chair_00_chair-0123-ILSVRC2012-val-00020924.png
subject-04,1,545,0.652099132537842,airplane,airplane,0,0545_sty_s04_0_airplane_00_airplane-0023-ILSVRC2012-val-00023863.png
subject-04,1,546,0.653723001480103,car,airplane,0,0546_sty_s04_0_airplane_00_airplane-0044-ILSVRC2012-val-00043242.png
subject-04,1,547,1.43346405029297,bear,bird,0,0547_sty_s04_0_bird_00_bird-1971-ILSVRC2012-val-00023024.png
subject-04,1,548,0.929410934448242,knife,bottle,0,0548_sty_s04_0_bottle_00_bottle-0195-ILSVRC2012-val-00045644.png
subject-04,1,549,0.831063032150269,dog,dog,0,0549_sty_s04_0_dog_00_dog-3841-ILSVRC2012-val-00038789.png
subject-04,1,550,0.696943998336792,dog,dog,0,0550_sty_s04_0_dog_00_dog-5044-ILSVRC2012-val-00043270.png
subject-04,1,551,0.622884035110474,bicycle,bicycle,0,0551_sty_s04_0_bicycle_00_bicycle-0080-ILSVRC2012-val-00032009.png
subject-04,1,552,1.42284512519836,keyboard,cat,0,0552_sty_s04_0_cat_00_cat-0072-ILSVRC2012-val-00019303.png
subject-04,1,553,1.44839000701904,car,chair,0,0553_sty_s04_0_chair_00_chair-0192-ILSVRC2012-val-00043870.png
subject-04,1,554,0.900531053543091,bottle,bottle,0,0554_sty_s04_0_bottle_00_bottle-0085-ILSVRC2012-val-00036422.png
subject-04,1,555,0.614243030548096,clock,bear,0,0555_sty_s04_0_bear_00_bear-0143-ILSVRC2012-val-00044126.png
subject-04,1,556,0.933773994445801,cat,elephant,0,0556_sty_s04_0_elephant_00_elephant-0091-ILSVRC2012-val-00038578.png
subject-04,1,557,0.687543869018555,car,car,0,0557_sty_s04_0_car_00_car-0010-ILSVRC2012-val-00012600.png
subject-04,1,558,1.16142296791077,oven,chair,0,0558_sty_s04_0_chair_00_chair-0097-ILSVRC2012-val-00043453.png
subject-04,1,559,1.45355701446533,car,knife,0,0559_sty_s04_0_knife_00_knife-0011-ILSVRC2012-val-00009367.png
subject-04,1,560,0.747085809707642,dog,dog,0,0560_sty_s04_0_dog_00_dog-4070-ILSVRC2012-val-00021155.png
subject-04,1,561,0.56302809715271,clock,oven,0,0561_sty_s04_0_oven_00_oven-0029-ILSVRC2012-val-00028472.png
subject-04,1,562,0.992603063583374,bottle,bottle,0,0562_sty_s04_0_bottle_00_bottle-0205-ILSVRC2012-val-00003263.png
subject-04,1,563,1.2023229598999,bicycle,cat,0,0563_sty_s04_0_cat_00_cat-0054-ILSVRC2012-val-00003295.png
subject-04,1,564,0.736221075057983,oven,oven,0,0564_sty_s04_0_oven_00_oven-0010-ILSVRC2012-val-00010367.png
subject-04,1,565,0.732291221618652,car,knife,0,0565_sty_s04_0_knife_00_knife-0041-ILSVRC2012-val-00038966.png
subject-04,1,566,0.699820041656494,clock,clock,0,0566_sty_s04_0_clock_00_clock-0084-ILSVRC2012-val-00034426.png
subject-04,1,567,0.633912086486816,elephant,elephant,0,0567_sty_s04_0_elephant_00_elephant-0024-ILSVRC2012-val-00022921.png
subject-04,1,568,0.919878959655762,car,airplane,0,0568_sty_s04_0_airplane_00_airplane-0002-ILSVRC2012-val-00001390.png
subject-04,1,569,0.775777101516724,chair,chair,0,0569_sty_s04_0_chair_00_chair-0047-ILSVRC2012-val-00045407.png
subject-04,1,570,1.02124214172363,bear,elephant,0,0570_sty_s04_0_elephant_00_elephant-0046-ILSVRC2012-val-00045103.png
subject-04,1,571,1.30483818054199,clock,keyboard,0,0571_sty_s04_0_keyboard_00_keyboard-0063-ILSVRC2012-val-00009383.png
subject-04,1,572,1.50011992454529,oven,clock,0,0572_sty_s04_0_clock_00_clock-0092-ILSVRC2012-val-00044168.png
subject-04,1,573,0.936556100845337,elephant,elephant,0,0573_sty_s04_0_elephant_00_elephant-0081-ILSVRC2012-val-00032404.png
subject-04,1,574,0.856342077255249,elephant,elephant,0,0574_sty_s04_0_elephant_00_elephant-0021-ILSVRC2012-val-00021618.png
subject-04,1,575,1.50000810623169,car,truck,0,0575_sty_s04_0_truck_00_truck-0307-ILSVRC2012-val-00012703.png
subject-04,1,576,0.9580979347229,elephant,elephant,0,0576_sty_s04_0_elephant_00_elephant-0099-ILSVRC2012-val-00048108.png
subject-04,1,577,0.612112045288086,clock,clock,0,0577_sty_s04_0_clock_00_clock-0025-ILSVRC2012-val-00019663.png
subject-04,1,578,1.36360096931458,bear,dog,0,0578_sty_s04_0_dog_00_dog-1881-ILSVRC2012-val-00028322.png
subject-04,1,579,1.19933700561523,bird,airplane,0,0579_sty_s04_0_airplane_00_airplane-0003-ILSVRC2012-val-00001506.png
subject-04,1,580,0.717618942260742,car,car,0,0580_sty_s04_0_car_00_car-0021-ILSVRC2012-val-00019695.png
subject-04,1,581,0.699162006378174,keyboard,chair,0,0581_sty_s04_0_chair_00_chair-0196-ILSVRC2012-val-00045844.png
subject-04,1,582,1.05493688583374,bear,bear,0,0582_sty_s04_0_bear_00_bear-0163-ILSVRC2012-val-00016513.png
subject-04,1,583,0.787024974822998,bear,bear,0,0583_sty_s04_0_bear_00_bear-0009-ILSVRC2012-val-00011967.png
subject-04,1,584,0.666562080383301,clock,knife,0,0584_sty_s04_0_knife_00_knife-0035-ILSVRC2012-val-00029833.png
subject-04,1,585,0.648351907730103,boat,bottle,0,0585_sty_s04_0_bottle_00_bottle-0214-ILSVRC2012-val-00012572.png
subject-04,1,586,0.816036939620972,dog,dog,0,0586_sty_s04_0_dog_00_dog-4914-ILSVRC2012-val-00011316.png
subject-04,1,587,1.17795610427856,oven,clock,0,0587_sty_s04_0_clock_00_clock-0089-ILSVRC2012-val-00042911.png
subject-04,1,588,0.685735940933228,car,truck,0,0588_sty_s04_0_truck_00_truck-0358-ILSVRC2012-val-00010556.png
subject-04,1,589,0.923676013946533,elephant,elephant,0,0589_sty_s04_0_elephant_00_elephant-0078-ILSVRC2012-val-00027908.png
subject-04,1,590,0.919466018676758,cat,bird,0,0590_sty_s04_0_bird_00_bird-2178-ILSVRC2012-val-00026510.png
subject-04,1,591,0.883157968521118,boat,oven,0,0591_sty_s04_0_oven_00_oven-0017-ILSVRC2012-val-00015514.png
subject-04,1,592,0.613109111785889,boat,boat,0,0592_sty_s04_0_boat_00_boat-0165-ILSVRC2012-val-00014242.png
subject-04,1,593,0.608721017837524,bottle,bottle,0,0593_sty_s04_0_bottle_00_bottle-0006-ILSVRC2012-val-00004888.png
subject-04,1,594,0.622622013092041,clock,clock,0,0594_sty_s04_0_clock_00_clock-0039-ILSVRC2012-val-00033429.png
subject-04,1,595,0.858572959899902,bottle,dog,0,0595_sty_s04_0_dog_00_dog-4443-ILSVRC2012-val-00045160.png
subject-04,1,596,0.948271036148071,oven,knife,0,0596_sty_s04_0_knife_00_knife-0038-ILSVRC2012-val-00037845.png
subject-04,1,597,0.515983104705811,boat,boat,0,0597_sty_s04_0_boat_00_boat-0077-ILSVRC2012-val-00021948.png
subject-04,1,598,1.49999594688416,cat,bird,0,0598_sty_s04_0_bird_00_bird-1052-ILSVRC2012-val-00003884.png
subject-04,1,599,1.19783282279968,car,car,0,0599_sty_s04_0_car_00_car-0054-ILSVRC2012-val-00005500.png
subject-04,1,600,1.23352599143982,bicycle,bicycle,0,0600_sty_s04_0_bicycle_00_bicycle-0030-ILSVRC2012-val-00027620.png
subject-04,1,601,1.46353983879089,bicycle,dog,0,0601_sty_s04_0_dog_00_dog-5267-ILSVRC2012-val-00013862.png
subject-04,1,602,0.887036085128784,bottle,bear,0,0602_sty_s04_0_bear_00_bear-0003-ILSVRC2012-val-00003044.png
subject-04,1,603,0.697252035140991,bear,bear,0,0603_sty_s04_0_bear_00_bear-0010-ILSVRC2012-val-00013390.png
subject-04,1,604,0.660973072052002,bottle,bottle,0,0604_sty_s04_0_bottle_00_bottle-0294-ILSVRC2012-val-00044222.png
subject-04,1,605,0.65044093132019,car,car,0,0605_sty_s04_0_car_00_car-0110-ILSVRC2012-val-00006285.png
subject-04,1,606,0.604467153549194,clock,bear,0,0606_sty_s04_0_bear_00_bear-0073-ILSVRC2012-val-00024289.png
subject-04,1,607,0.682232141494751,boat,boat,0,0607_sty_s04_0_boat_00_boat-0153-ILSVRC2012-val-00002696.png
subject-04,1,608,0.613996028900146,car,truck,0,0608_sty_s04_0_truck_00_truck-0219-ILSVRC2012-val-00021802.png
subject-04,1,609,0.961781024932861,bottle,airplane,0,0609_sty_s04_0_airplane_00_airplane-0041-ILSVRC2012-val-00040136.png
subject-04,1,610,0.769695997238159,oven,boat,0,0610_sty_s04_0_boat_00_boat-0170-ILSVRC2012-val-00020353.png
subject-04,1,611,0.751266956329346,clock,clock,0,0611_sty_s04_0_clock_00_clock-0106-ILSVRC2012-val-00009413.png
subject-04,1,612,1.02555322647095,bird,bird,0,0612_sty_s04_0_bird_00_bird-2118-ILSVRC2012-val-00021926.png
subject-04,1,613,0.786949872970581,cat,cat,0,0613_sty_s04_0_cat_00_cat-0260-ILSVRC2012-val-00006612.png
subject-04,1,614,0.768744945526123,bottle,bottle,0,0614_sty_s04_0_bottle_00_bottle-0347-ILSVRC2012-val-00048539.png
subject-04,1,615,1.01481699943542,dog,oven,0,0615_sty_s04_0_oven_00_oven-0023-ILSVRC2012-val-00020809.png
subject-04,1,616,0.738502025604248,car,truck,0,0616_sty_s04_0_truck_00_truck-0136-ILSVRC2012-val-00037829.png
subject-04,1,617,1.39031195640564,airplane,keyboard,0,0617_sty_s04_0_keyboard_00_keyboard-0012-ILSVRC2012-val-00009502.png
subject-04,1,618,0.824049949645996,bird,bird,0,0618_sty_s04_0_bird_00_bird-0822-ILSVRC2012-val-00025200.png
subject-04,1,619,0.75183892250061,oven,elephant,0,0619_sty_s04_0_elephant_00_elephant-0073-ILSVRC2012-val-00021807.png
subject-04,1,620,0.715805053710938,car,car,0,0620_sty_s04_0_car_00_car-0024-ILSVRC2012-val-00023221.png
subject-04,1,621,0.831905126571655,bottle,bottle,0,0621_sty_s04_0_bottle_00_bottle-0055-ILSVRC2012-val-00003066.png
subject-04,1,622,0.711349010467529,oven,keyboard,0,0622_sty_s04_0_keyboard_00_keyboard-0030-ILSVRC2012-val-00029239.png
subject-04,1,623,0.57710599899292,car,car,0,0623_sty_s04_0_car_00_car-0103-ILSVRC2012-val-00003478.png
subject-04,1,624,0.987188816070557,boat,boat,0,0624_sty_s04_0_boat_00_boat-0042-ILSVRC2012-val-00039945.png
subject-04,1,625,0.968664169311523,airplane,airplane,0,0625_sty_s04_0_airplane_00_airplane-0031-ILSVRC2012-val-00030531.png
subject-04,1,626,0.628590106964111,clock,clock,0,0626_sty_s04_0_clock_00_clock-0046-ILSVRC2012-val-00044049.png
subject-04,1,627,0.564321041107178,cat,boat,0,0627_sty_s04_0_boat_00_boat-0079-ILSVRC2012-val-00025681.png
subject-04,1,628,0.790132999420166,bicycle,bicycle,0,0628_sty_s04_0_bicycle_00_bicycle-0038-ILSVRC2012-val-00036903.png
subject-04,1,629,0.742331981658936,boat,boat,0,0629_sty_s04_0_boat_00_boat-0235-ILSVRC2012-val-00032371.png
subject-04,1,630,0.579893827438354,car,car,0,0630_sty_s04_0_car_00_car-0066-ILSVRC2012-val-00018249.png
subject-04,1,631,1.13773584365845,bear,bicycle,0,0631_sty_s04_0_bicycle_00_bicycle-0005-ILSVRC2012-val-00005274.png
subject-04,1,632,0.695598840713501,bottle,keyboard,0,0632_sty_s04_0_keyboard_00_keyboard-0016-ILSVRC2012-val-00014436.png
subject-04,1,633,0.953642845153809,dog,dog,0,0633_sty_s04_0_dog_00_dog-3044-ILSVRC2012-val-00034485.png
subject-04,1,634,1.44906187057495,keyboard,chair,0,0634_sty_s04_0_chair_00_chair-0169-ILSVRC2012-val-00019913.png
subject-04,1,635,0.936711072921753,cat,cat,0,0635_sty_s04_0_cat_00_cat-0118-ILSVRC2012-val-00010218.png
subject-04,1,636,0.628602027893066,cat,cat,0,0636_sty_s04_0_cat_00_cat-0133-ILSVRC2012-val-00023898.png
subject-04,1,637,1.17058897018433,car,car,0,0637_sty_s04_0_car_00_car-0004-ILSVRC2012-val-00006084.png
subject-04,1,638,0.822387218475342,bear,bear,0,0638_sty_s04_0_bear_00_bear-0195-ILSVRC2012-val-00045672.png
subject-04,1,639,0.965986967086792,oven,boat,0,0639_sty_s04_0_boat_00_boat-0061-ILSVRC2012-val-00011292.png
subject-04,1,640,1.37613391876221,dog,oven,0,0640_sty_s04_0_oven_00_oven-0009-ILSVRC2012-val-00007132.png
subject-04,1,641,0.706507921218872,truck,truck,0,0641_sty_s04_0_truck_00_truck-0213-ILSVRC2012-val-00016098.png
subject-04,1,642,0.828632116317749,car,car,0,0642_sty_s04_0_car_00_car-0134-ILSVRC2012-val-00032944.png
subject-04,1,643,0.872035026550293,bear,dog,0,0643_sty_s04_0_dog_00_dog-0779-ILSVRC2012-val-00033666.png
subject-04,1,644,1.31206607818604,boat,bear,0,0644_sty_s04_0_bear_00_bear-0180-ILSVRC2012-val-00034637.png
subject-04,1,645,0.747951030731201,airplane,airplane,0,0645_sty_s04_0_airplane_00_airplane-0009-ILSVRC2012-val-00011168.png
subject-04,1,646,0.733484029769897,cat,airplane,0,0646_sty_s04_0_airplane_00_airplane-0024-ILSVRC2012-val-00024108.png
subject-04,1,647,0.691540002822876,bottle,bottle,0,0647_sty_s04_0_bottle_00_bottle-0107-ILSVRC2012-val-00008313.png
subject-04,1,648,0.781232118606567,clock,clock,0,0648_sty_s04_0_clock_00_clock-0129-ILSVRC2012-val-00031861.png
subject-04,1,649,0.739410161972046,oven,keyboard,0,0649_sty_s04_0_keyboard_00_keyboard-0014-ILSVRC2012-val-00012432.png
subject-04,1,650,0.796915054321289,boat,cat,0,0650_sty_s04_0_cat_00_cat-0236-ILSVRC2012-val-00031185.png
subject-04,1,651,1.17670202255249,oven,oven,0,0651_sty_s04_0_oven_00_oven-0038-ILSVRC2012-val-00038011.png
subject-04,1,652,0.744492053985596,boat,chair,0,0652_sty_s04_0_chair_00_chair-0072-ILSVRC2012-val-00015559.png
subject-04,1,653,0.826686143875122,clock,bottle,0,0653_sty_s04_0_bottle_00_bottle-0296-ILSVRC2012-val-00044906.png
subject-04,1,654,1.47800898551941,boat,bicycle,0,0654_sty_s04_0_bicycle_00_bicycle-0062-ILSVRC2012-val-00015867.png
subject-04,1,655,1.00428795814514,bicycle,bicycle,0,0655_sty_s04_0_bicycle_00_bicycle-0037-ILSVRC2012-val-00036009.png
subject-04,1,656,1.31199312210083,clock,chair,0,0656_sty_s04_0_chair_00_chair-0189-ILSVRC2012-val-00041883.png
subject-04,1,657,0.667535066604614,boat,boat,0,0657_sty_s04_0_boat_00_boat-0086-ILSVRC2012-val-00039559.png
subject-04,1,658,1.15720510482788,truck,elephant,0,0658_sty_s04_0_elephant_00_elephant-0032-ILSVRC2012-val-00030248.png
subject-04,1,659,0.879034996032715,cat,bird,0,0659_sty_s04_0_bird_00_bird-1274-ILSVRC2012-val-00025449.png
subject-04,1,660,0.960952043533325,boat,keyboard,0,0660_sty_s04_0_keyboard_00_keyboard-0013-ILSVRC2012-val-00012334.png
subject-04,1,661,1.10874891281128,oven,truck,0,0661_sty_s04_0_truck_00_truck-0054-ILSVRC2012-val-00004119.png
subject-04,1,662,0.860494136810303,bottle,bottle,0,0662_sty_s04_0_bottle_00_bottle-0233-ILSVRC2012-val-00031504.png
subject-04,1,663,0.882308006286621,dog,dog,0,0663_sty_s04_0_dog_00_dog-4954-ILSVRC2012-val-00002882.png
subject-04,1,664,1.4180588722229,clock,chair,0,0664_sty_s04_0_chair_00_chair-0195-ILSVRC2012-val-00045464.png
subject-04,1,665,0.734044075012207,boat,bottle,0,0665_sty_s04_0_bottle_00_bottle-0057-ILSVRC2012-val-00005967.png
subject-04,1,666,0.808049201965332,car,keyboard,0,0666_sty_s04_0_keyboard_00_keyboard-0062-ILSVRC2012-val-00008632.png
subject-04,1,667,0.647686004638672,elephant,elephant,0,0667_sty_s04_0_elephant_00_elephant-0085-ILSVRC2012-val-00033861.png
subject-04,1,668,1.0415620803833,bear,bear,0,0668_sty_s04_0_bear_00_bear-0069-ILSVRC2012-val-00018788.png
subject-04,1,669,0.563266038894653,clock,clock,0,0669_sty_s04_0_clock_00_clock-0144-ILSVRC2012-val-00041715.png
subject-04,1,670,1.13698792457581,chair,keyboard,0,0670_sty_s04_0_keyboard_00_keyboard-0068-ILSVRC2012-val-00013404.png
subject-04,1,671,1.50009799003601,knife,knife,0,0671_sty_s04_0_knife_00_knife-0008-ILSVRC2012-val-00006102.png
subject-04,1,672,0.822618961334229,keyboard,keyboard,0,0672_sty_s04_0_keyboard_00_keyboard-0057-ILSVRC2012-val-00005863.png
subject-04,1,673,1.35254192352295,clock,bird,0,0673_sty_s04_0_bird_00_bird-0175-ILSVRC2012-val-00018699.png
subject-04,1,674,1.35835099220276,chair,keyboard,0,0674_sty_s04_0_keyboard_00_keyboard-0022-ILSVRC2012-val-00021913.png
subject-04,1,675,1.07425999641418,boat,clock,0,0675_sty_s04_0_clock_00_clock-0080-ILSVRC2012-val-00032946.png
subject-04,1,676,0.712110996246338,car,truck,0,0676_sty_s04_0_truck_00_truck-0335-ILSVRC2012-val-00039723.png
subject-04,1,677,0.675789833068848,bottle,bottle,0,0677_sty_s04_0_bottle_00_bottle-0030-ILSVRC2012-val-00032921.png
subject-04,1,678,0.955477952957153,bird,elephant,0,0678_sty_s04_0_elephant_00_elephant-0045-ILSVRC2012-val-00043193.png
subject-04,1,679,1.26338982582092,knife,keyboard,0,0679_sty_s04_0_keyboard_00_keyboard-0045-ILSVRC2012-val-00045039.png
subject-04,1,680,1.46106195449829,boat,oven,0,0680_sty_s04_0_oven_00_oven-0020-ILSVRC2012-val-00019568.png
subject-04,1,681,0.875061988830566,bottle,bicycle,0,0681_sty_s04_0_bicycle_00_bicycle-0061-ILSVRC2012-val-00012096.png
subject-04,1,682,0.596750020980835,bicycle,bicycle,0,0682_sty_s04_0_bicycle_00_bicycle-0035-ILSVRC2012-val-00033559.png
subject-04,1,683,1.12250900268555,chair,oven,0,0683_sty_s04_0_oven_00_oven-0050-ILSVRC2012-val-00049391.png
subject-04,1,684,0.700266122817993,bear,bear,0,0684_sty_s04_0_bear_00_bear-0167-ILSVRC2012-val-00022112.png
subject-04,1,685,0.938137054443359,bear,bear,0,0685_sty_s04_0_bear_00_bear-0031-ILSVRC2012-val-00039777.png
subject-04,1,686,0.643980026245117,cat,dog,0,0686_sty_s04_0_dog_00_dog-4689-ILSVRC2012-val-00034291.png
subject-04,1,687,1.0338089466095,car,truck,0,0687_sty_s04_0_truck_00_truck-0330-ILSVRC2012-val-00031256.png
subject-04,1,688,1.50006914138794,car,bird,0,0688_sty_s04_0_bird_00_bird-2144-ILSVRC2012-val-00044377.png
subject-04,1,689,0.713360071182251,oven,elephant,0,0689_sty_s04_0_elephant_00_elephant-0095-ILSVRC2012-val-00042879.png
subject-04,1,690,0.83305811882019,airplane,knife,0,0690_sty_s04_0_knife_00_knife-0048-ILSVRC2012-val-00048029.png
subject-04,1,691,0.505297899246216,car,car,0,0691_sty_s04_0_car_00_car-0091-ILSVRC2012-val-00036091.png
subject-04,1,692,1.13279294967651,bottle,bottle,0,0692_sty_s04_0_bottle_00_bottle-0003-ILSVRC2012-val-00003622.png
subject-04,1,693,0.856602907180786,oven,car,0,0693_sty_s04_0_car_00_car-0096-ILSVRC2012-val-00043824.png
subject-04,1,694,0.750411033630371,boat,chair,0,0694_sty_s04_0_chair_00_chair-0199-ILSVRC2012-val-00048901.png
subject-04,1,695,0.762314081192017,dog,dog,0,0695_sty_s04_0_dog_00_dog-1191-ILSVRC2012-val-00037989.png
subject-04,1,696,0.710412979125977,truck,truck,0,0696_sty_s04_0_truck_00_truck-0185-ILSVRC2012-val-00033804.png
subject-04,1,697,1.42588186264038,boat,knife,0,0697_sty_s04_0_knife_00_knife-0018-ILSVRC2012-val-00014608.png
subject-04,1,698,1.43800616264343,airplane,bottle,0,0698_sty_s04_0_bottle_00_bottle-0031-ILSVRC2012-val-00033822.png
subject-04,1,699,1.05550098419189,keyboard,knife,0,0699_sty_s04_0_knife_00_knife-0031-ILSVRC2012-val-00027474.png
subject-04,1,700,0.607232093811035,bird,bird,0,0700_sty_s04_0_bird_00_bird-1394-ILSVRC2012-val-00040051.png
subject-04,1,701,0.55905294418335,clock,clock,0,0701_sty_s04_0_clock_00_clock-0048-ILSVRC2012-val-00044752.png
subject-04,1,702,0.846956968307495,dog,dog,0,0702_sty_s04_0_dog_00_dog-2629-ILSVRC2012-val-00030579.png
subject-04,1,703,0.670691967010498,oven,oven,0,0703_sty_s04_0_oven_00_oven-0034-ILSVRC2012-val-00033304.png
subject-04,1,704,1.18267512321472,boat,knife,0,0704_sty_s04_0_knife_00_knife-0047-ILSVRC2012-val-00046361.png
subject-04,1,705,0.96848201751709,bear,bear,0,0705_sty_s04_0_bear_00_bear-0005-ILSVRC2012-val-00006703.png
subject-04,1,706,0.574168920516968,cat,cat,0,0706_sty_s04_0_cat_00_cat-0045-ILSVRC2012-val-00041570.png
subject-04,1,707,0.648190975189209,car,oven,0,0707_sty_s04_0_oven_00_oven-0046-ILSVRC2012-val-00046020.png
subject-04,1,708,0.771962881088257,clock,clock,0,0708_sty_s04_0_clock_00_clock-0107-ILSVRC2012-val-00010270.png
subject-04,1,709,0.561690807342529,clock,clock,0,0709_sty_s04_0_clock_00_clock-0029-ILSVRC2012-val-00022719.png
subject-04,1,710,0.62957501411438,boat,bird,0,0710_sty_s04_0_bird_00_bird-1093-ILSVRC2012-val-00044082.png
subject-04,1,711,0.549321889877319,car,chair,0,0711_sty_s04_0_chair_00_chair-0124-ILSVRC2012-val-00022208.png
subject-04,1,712,1.36541318893433,cat,cat,0,0712_sty_s04_0_cat_00_cat-0147-ILSVRC2012-val-00041347.png
subject-04,1,713,0.646979093551636,car,truck,0,0713_sty_s04_0_truck_00_truck-0215-ILSVRC2012-val-00017360.png
subject-04,1,714,0.47875189781189,cat,cat,0,0714_sty_s04_0_cat_00_cat-0274-ILSVRC2012-val-00019370.png
subject-04,1,715,0.782500028610229,boat,boat,0,0715_sty_s04_0_boat_00_boat-0121-ILSVRC2012-val-00016970.png
subject-04,1,716,0.644212961196899,keyboard,keyboard,0,0716_sty_s04_0_keyboard_00_keyboard-0077-ILSVRC2012-val-00025109.png
subject-04,1,717,0.874016046524048,bicycle,bicycle,0,0717_sty_s04_0_bicycle_00_bicycle-0074-ILSVRC2012-val-00028824.png
subject-04,1,718,1.06587505340576,airplane,airplane,0,0718_sty_s04_0_airplane_00_airplane-0047-ILSVRC2012-val-00046971.png
subject-04,1,719,0.757666110992432,keyboard,keyboard,0,0719_sty_s04_0_keyboard_00_keyboard-0007-ILSVRC2012-val-00002755.png
subject-04,1,720,0.69171404838562,car,car,0,0720_sty_s04_0_car_00_car-0095-ILSVRC2012-val-00041430.png
subject-04,1,721,0.78139591217041,boat,knife,0,0721_sty_s04_0_knife_00_knife-0046-ILSVRC2012-val-00045197.png
subject-04,1,722,1.33124089241028,bottle,bear,0,0722_sty_s04_0_bear_00_bear-0184-ILSVRC2012-val-00038961.png
subject-04,1,723,0.897318124771118,bottle,bottle,0,0723_sty_s04_0_bottle_00_bottle-0243-ILSVRC2012-val-00040157.png
subject-04,1,724,0.812742948532104,keyboard,keyboard,0,0724_sty_s04_0_keyboard_00_keyboard-0083-ILSVRC2012-val-00036727.png
subject-04,1,725,1.01264214515686,bottle,bottle,0,0725_sty_s04_0_bottle_00_bottle-0345-ILSVRC2012-val-00044614.png
subject-04,1,726,0.906358003616333,airplane,airplane,0,0726_sty_s04_0_airplane_00_airplane-0008-ILSVRC2012-val-00010597.png
subject-04,1,727,0.936176061630249,bear,bear,0,0727_sty_s04_0_bear_00_bear-0058-ILSVRC2012-val-00011726.png
subject-04,1,728,1.00795698165894,knife,knife,0,0728_sty_s04_0_knife_00_knife-0049-ILSVRC2012-val-00048820.png
subject-04,1,729,0.867812156677246,car,car,0,0729_sty_s04_0_car_00_car-0086-ILSVRC2012-val-00029454.png
subject-04,1,730,1.13781404495239,car,truck,0,0730_sty_s04_0_truck_00_truck-0373-ILSVRC2012-val-00019053.png
subject-04,1,731,0.923377990722656,airplane,elephant,0,0731_sty_s04_0_elephant_00_elephant-0058-ILSVRC2012-val-00004990.png
subject-04,1,732,1.02129316329956,bear,airplane,0,0732_sty_s04_0_airplane_00_airplane-0043-ILSVRC2012-val-00041518.png
subject-04,1,733,0.759126901626587,boat,knife,0,0733_sty_s04_0_knife_00_knife-0013-ILSVRC2012-val-00010577.png
subject-04,1,734,0.808815956115723,keyboard,keyboard,0,0734_sty_s04_0_keyboard_00_keyboard-0087-ILSVRC2012-val-00039947.png
subject-04,1,735,0.9946129322052,elephant,elephant,0,0735_sty_s04_0_elephant_00_elephant-0051-ILSVRC2012-val-00001177.png
subject-04,1,736,0.778349876403809,cat,cat,0,0736_sty_s04_0_cat_00_cat-0034-ILSVRC2012-val-00033837.png
subject-04,1,737,0.782255887985229,boat,elephant,0,0737_sty_s04_0_elephant_00_elephant-0062-ILSVRC2012-val-00010078.png
subject-04,1,738,0.79423189163208,clock,bottle,0,0738_sty_s04_0_bottle_00_bottle-0204-ILSVRC2012-val-00002597.png
subject-04,1,739,1.21410608291626,oven,knife,0,0739_sty_s04_0_knife_00_knife-0005-ILSVRC2012-val-00003462.png
subject-04,1,740,0.889981985092163,boat,boat,0,0740_sty_s04_0_boat_00_boat-0005-ILSVRC2012-val-00004909.png
subject-04,1,741,1.04959917068481,oven,airplane,0,0741_sty_s04_0_airplane_00_airplane-0048-ILSVRC2012-val-00047829.png
subject-04,1,742,0.681269884109497,car,car,0,0742_sty_s04_0_car_00_car-0028-ILSVRC2012-val-00027049.png
subject-04,1,743,1.07509803771973,keyboard,keyboard,0,0743_sty_s04_0_keyboard_00_keyboard-0074-ILSVRC2012-val-00020967.png
subject-04,1,744,0.634982109069824,keyboard,keyboard,0,0744_sty_s04_0_keyboard_00_keyboard-0020-ILSVRC2012-val-00020212.png
subject-04,1,745,0.780687808990479,chair,chair,0,0745_sty_s04_0_chair_00_chair-0022-ILSVRC2012-val-00016403.png
subject-04,1,746,0.620761156082153,bird,bird,0,0746_sty_s04_0_bird_00_bird-1172-ILSVRC2012-val-00022442.png
subject-04,1,747,0.944345951080322,boat,bird,0,0747_sty_s04_0_bird_00_bird-0896-ILSVRC2012-val-00046621.png
subject-04,1,748,0.998239994049072,bird,bottle,0,0748_sty_s04_0_bottle_00_bottle-0325-ILSVRC2012-val-00027316.png
subject-04,1,749,1.36810994148254,boat,chair,0,0749_sty_s04_0_chair_00_chair-0051-ILSVRC2012-val-00001616.png
subject-04,1,750,1.17194604873657,clock,knife,0,0750_sty_s04_0_knife_00_knife-0010-ILSVRC2012-val-00009160.png
subject-04,1,751,0.77163290977478,cat,cat,0,0751_sty_s04_0_cat_00_cat-0092-ILSVRC2012-val-00039621.png
subject-04,1,752,0.729840040206909,keyboard,boat,0,0752_sty_s04_0_boat_00_boat-0169-ILSVRC2012-val-00019970.png
subject-04,1,753,0.639517068862915,car,truck,0,0753_sty_s04_0_truck_00_truck-0142-ILSVRC2012-val-00043939.png
subject-04,1,754,0.573312044143677,cat,cat,0,0754_sty_s04_0_cat_00_cat-0073-ILSVRC2012-val-00020140.png
subject-04,1,755,0.576894998550415,clock,clock,0,0755_sty_s04_0_clock_00_clock-0001-ILSVRC2012-val-00001011.png
subject-04,1,756,0.704607963562012,oven,bicycle,0,0756_sty_s04_0_bicycle_00_bicycle-0081-ILSVRC2012-val-00032967.png
subject-04,1,757,1.21886301040649,airplane,chair,0,0757_sty_s04_0_chair_00_chair-0141-ILSVRC2012-val-00040076.png
subject-04,1,758,0.816361904144287,oven,knife,0,0758_sty_s04_0_knife_00_knife-0006-ILSVRC2012-val-00004379.png
subject-04,1,759,1.03011298179626,chair,knife,0,0759_sty_s04_0_knife_00_knife-0029-ILSVRC2012-val-00026505.png
subject-04,1,760,0.820053100585938,elephant,elephant,0,0760_sty_s04_0_elephant_00_elephant-0035-ILSVRC2012-val-00034035.png
subject-04,1,761,0.546122074127197,car,truck,0,0761_sty_s04_0_truck_00_truck-0112-ILSVRC2012-val-00013466.png
subject-04,1,762,0.789569854736328,truck,truck,0,0762_sty_s04_0_truck_00_truck-0192-ILSVRC2012-val-00042157.png
subject-04,1,763,1.16137504577637,boat,airplane,0,0763_sty_s04_0_airplane_00_airplane-0012-ILSVRC2012-val-00015498.png
subject-04,1,764,0.955213069915771,keyboard,clock,0,0764_sty_s04_0_clock_00_clock-0063-ILSVRC2012-val-00015628.png
subject-04,1,765,0.872956991195679,cat,cat,0,0765_sty_s04_0_cat_00_cat-0202-ILSVRC2012-val-00001496.png
subject-04,1,766,0.603233814239502,oven,boat,0,0766_sty_s04_0_boat_00_boat-0172-ILSVRC2012-val-00020894.png
subject-04,1,767,0.748978853225708,dog,dog,0,0767_sty_s04_0_dog_00_dog-2889-ILSVRC2012-val-00043272.png
subject-04,1,768,0.696548938751221,boat,boat,0,0768_sty_s04_0_boat_00_boat-0195-ILSVRC2012-val-00042203.png
subject-04,1,769,0.708498001098633,boat,clock,0,0769_sty_s04_0_clock_00_clock-0130-ILSVRC2012-val-00032136.png
subject-04,1,770,0.736304998397827,clock,clock,0,0770_sty_s04_0_clock_00_clock-0052-ILSVRC2012-val-00003721.png
subject-04,1,771,0.547960996627808,oven,knife,0,0771_sty_s04_0_knife_00_knife-0032-ILSVRC2012-val-00027812.png
subject-04,1,772,0.545795917510986,boat,oven,0,0772_sty_s04_0_oven_00_oven-0006-ILSVRC2012-val-00004891.png
subject-04,1,773,0.92562198638916,chair,airplane,0,0773_sty_s04_0_airplane_00_airplane-0019-ILSVRC2012-val-00022532.png
subject-04,1,774,0.625403881072998,car,car,0,0774_sty_s04_0_car_00_car-0005-ILSVRC2012-val-00006220.png
subject-04,1,775,0.535415887832642,car,car,0,0775_sty_s04_0_car_00_car-0013-ILSVRC2012-val-00014541.png
subject-04,1,776,0.915336847305298,airplane,knife,0,0776_sty_s04_0_knife_00_knife-0001-ILSVRC2012-val-00000564.png
subject-04,1,777,0.732815980911255,bicycle,bicycle,0,0777_sty_s04_0_bicycle_00_bicycle-0050-ILSVRC2012-val-00049382.png
subject-04,1,778,0.784537076950073,bottle,keyboard,0,0778_sty_s04_0_keyboard_00_keyboard-0010-ILSVRC2012-val-00007754.png
subject-04,1,779,1.36026382446289,car,airplane,0,0779_sty_s04_0_airplane_00_airplane-0034-ILSVRC2012-val-00033441.png
subject-04,1,780,1.35609197616577,elephant,keyboard,0,0780_sty_s04_0_keyboard_00_keyboard-0004-ILSVRC2012-val-00001089.png
subject-04,1,781,1.49999594688416,knife,chair,0,0781_sty_s04_0_chair_00_chair-0059-ILSVRC2012-val-00006022.png
subject-04,1,782,1.00170588493347,airplane,chair,0,0782_sty_s04_0_chair_00_chair-0040-ILSVRC2012-val-00042512.png
subject-04,1,783,0.683472156524658,elephant,elephant,0,0783_sty_s04_0_elephant_00_elephant-0047-ILSVRC2012-val-00048547.png
subject-04,1,784,0.601493835449219,bicycle,bicycle,0,0784_sty_s04_0_bicycle_00_bicycle-0085-ILSVRC2012-val-00037438.png
subject-04,1,785,0.76921010017395,boat,boat,0,0785_sty_s04_0_boat_00_boat-0033-ILSVRC2012-val-00030824.png
subject-04,1,786,0.641247987747192,bicycle,bicycle,0,0786_sty_s04_0_bicycle_00_bicycle-0020-ILSVRC2012-val-00022027.png
subject-04,1,787,0.61310601234436,oven,boat,0,0787_sty_s04_0_boat_00_boat-0223-ILSVRC2012-val-00020544.png
subject-04,1,788,1.03874897956848,elephant,elephant,0,0788_sty_s04_0_elephant_00_elephant-0084-ILSVRC2012-val-00033832.png
subject-04,1,789,1.31870889663696,car,bird,0,0789_sty_s04_0_bird_00_bird-0752-ILSVRC2012-val-00001596.png
subject-04,1,790,0.854239940643311,clock,clock,0,0790_sty_s04_0_clock_00_clock-0073-ILSVRC2012-val-00026298.png
subject-04,1,791,0.546113967895508,boat,boat,0,0791_sty_s04_0_boat_00_boat-0076-ILSVRC2012-val-00020486.png
subject-04,1,792,0.579890012741089,oven,oven,0,0792_sty_s04_0_oven_00_oven-0022-ILSVRC2012-val-00020361.png
subject-04,1,793,1.02387309074402,dog,cat,0,0793_sty_s04_0_cat_00_cat-0160-ILSVRC2012-val-00011528.png
subject-04,1,794,0.99350380897522,bicycle,bicycle,0,0794_sty_s04_0_bicycle_00_bicycle-0039-ILSVRC2012-val-00037292.png
subject-04,1,795,1.39734292030334,car,bicycle,0,0795_sty_s04_0_bicycle_00_bicycle-0047-ILSVRC2012-val-00043435.png
subject-04,1,796,1.04733300209045,bear,bear,0,0796_sty_s04_0_bear_00_bear-0074-ILSVRC2012-val-00026962.png
subject-04,1,797,0.753399848937988,car,car,0,0797_sty_s04_0_car_00_car-0079-ILSVRC2012-val-00025028.png
subject-04,1,798,1.50006890296936,elephant,airplane,0,0798_sty_s04_0_airplane_00_airplane-0026-ILSVRC2012-val-00026189.png
subject-04,1,799,0.723099946975708,knife,knife,0,0799_sty_s04_0_knife_00_knife-0002-ILSVRC2012-val-00000582.png
subject-04,1,800,0.81430721282959,truck,truck,0,0800_sty_s04_0_truck_00_truck-0051-ILSVRC2012-val-00001144.png
