subj,session,trial,rt,object_response,category,condition,imagename
subject-03,1,1,1.29065608978271,elephant,elephant,0,0001_sty_s03_0_elephant_00_elephant-0003-ILSVRC2012-val-00003280.png
subject-03,1,2,1.00669598579407,bird,bird,0,0002_sty_s03_0_bird_00_bird-1394-ILSVRC2012-val-00040051.png
subject-03,1,3,0.936724901199341,bird,boat,0,0003_sty_s03_0_boat_00_boat-0073-ILSVRC2012-val-00018158.png
subject-03,1,4,0.848287105560303,bear,bear,0,0004_sty_s03_0_bear_00_bear-0010-ILSVRC2012-val-00013390.png
subject-03,1,5,0.702064990997314,cat,cat,0,0005_sty_s03_0_cat_00_cat-0118-ILSVRC2012-val-00010218.png
subject-03,1,6,1.17183685302734,bird,cat,0,0006_sty_s03_0_cat_00_cat-0045-ILSVRC2012-val-00041570.png
subject-03,1,7,1.04375100135803,cat,chair,0,0007_sty_s03_0_chair_00_chair-0053-ILSVRC2012-val-00001855.png
subject-03,1,8,0.729421138763428,boat,chair,0,0008_sty_s03_0_chair_00_chair-0072-ILSVRC2012-val-00015559.png
subject-03,1,9,0.777312040328979,keyboard,keyboard,0,0009_sty_s03_0_keyboard_00_keyboard-0070-ILSVRC2012-val-00015929.png
subject-03,1,10,0.871212005615234,bottle,chair,0,0010_sty_s03_0_chair_00_chair-0040-ILSVRC2012-val-00042512.png
subject-03,1,11,0.862965106964111,bicycle,bicycle,0,0011_sty_s03_0_bicycle_00_bicycle-0018-ILSVRC2012-val-00018975.png
subject-03,1,12,0.806749105453491,car,truck,0,0012_sty_s03_0_truck_00_truck-0274-ILSVRC2012-val-00021717.png
subject-03,1,13,0.712909936904907,cat,dog,0,0013_sty_s03_0_dog_00_dog-1613-ILSVRC2012-val-00015923.png
subject-03,1,14,0.650233030319214,cat,clock,0,0014_sty_s03_0_clock_00_clock-0007-ILSVRC2012-val-00005490.png
subject-03,1,15,0.808168172836304,oven,knife,0,0015_sty_s03_0_knife_00_knife-0010-ILSVRC2012-val-00009160.png
subject-03,1,16,0.752228021621704,boat,boat,0,0016_sty_s03_0_boat_00_boat-0215-ILSVRC2012-val-00013403.png
subject-03,1,17,0.945857048034668,bear,bear,0,0017_sty_s03_0_bear_00_bear-0066-ILSVRC2012-val-00016621.png
subject-03,1,18,0.841485023498535,bear,bear,0,0018_sty_s03_0_bear_00_bear-0141-ILSVRC2012-val-00042320.png
subject-03,1,19,1.18734097480774,truck,bicycle,0,0019_sty_s03_0_bicycle_00_bicycle-0047-ILSVRC2012-val-00043435.png
subject-03,1,20,1.00720620155334,keyboard,truck,0,0020_sty_s03_0_truck_00_truck-0196-ILSVRC2012-val-00044805.png
subject-03,1,21,0.725160837173462,boat,boat,0,0021_sty_s03_0_boat_00_boat-0195-ILSVRC2012-val-00042203.png
subject-03,1,22,0.806739091873169,boat,cat,0,0022_sty_s03_0_cat_00_cat-0270-ILSVRC2012-val-00017189.png
subject-03,1,23,1.10498309135437,airplane,oven,0,0023_sty_s03_0_oven_00_oven-0038-ILSVRC2012-val-00038011.png
subject-03,1,24,1.03246998786926,bicycle,knife,0,0024_sty_s03_0_knife_00_knife-0033-ILSVRC2012-val-00028494.png
subject-03,1,25,0.874249935150146,car,car,0,0025_sty_s03_0_car_00_car-0134-ILSVRC2012-val-00032944.png
subject-03,1,26,0.830276012420654,boat,boat,0,0026_sty_s03_0_boat_00_boat-0098-ILSVRC2012-val-00047961.png
subject-03,1,27,1.37812399864197,oven,airplane,0,0027_sty_s03_0_airplane_00_airplane-0024-ILSVRC2012-val-00024108.png
subject-03,1,28,1.04597592353821,bicycle,bicycle,0,0028_sty_s03_0_bicycle_00_bicycle-0074-ILSVRC2012-val-00028824.png
subject-03,1,29,0.809978008270264,oven,clock,0,0029_sty_s03_0_clock_00_clock-0084-ILSVRC2012-val-00034426.png
subject-03,1,30,0.965387105941772,airplane,cat,0,0030_sty_s03_0_cat_00_cat-0165-ILSVRC2012-val-00017325.png
subject-03,1,31,1.08118295669556,chair,airplane,0,0031_sty_s03_0_airplane_00_airplane-0012-ILSVRC2012-val-00015498.png
subject-03,1,32,1.3148980140686,boat,airplane,0,0032_sty_s03_0_airplane_00_airplane-0011-ILSVRC2012-val-00014425.png
subject-03,1,33,0.812739133834839,cat,cat,0,0033_sty_s03_0_cat_00_cat-0031-ILSVRC2012-val-00030706.png
subject-03,1,34,0.72871994972229,car,truck,0,0034_sty_s03_0_truck_00_truck-0265-ILSVRC2012-val-00010166.png
subject-03,1,35,1.50002503395081,bear,oven,0,0035_sty_s03_0_oven_00_oven-0015-ILSVRC2012-val-00013982.png
subject-03,1,36,1.03015398979187,bicycle,bicycle,0,0036_sty_s03_0_bicycle_00_bicycle-0092-ILSVRC2012-val-00043207.png
subject-03,1,37,1.50000596046448,bottle,bottle,0,0037_sty_s03_0_bottle_00_bottle-0189-ILSVRC2012-val-00040070.png
subject-03,1,38,1.18166494369507,airplane,airplane,0,0038_sty_s03_0_airplane_00_airplane-0006-ILSVRC2012-val-00008292.png
subject-03,1,39,0.849447965621948,oven,knife,0,0039_sty_s03_0_knife_00_knife-0013-ILSVRC2012-val-00010577.png
subject-03,1,40,0.757333040237427,cat,chair,0,0040_sty_s03_0_chair_00_chair-0097-ILSVRC2012-val-00043453.png
subject-03,1,41,0.829174041748047,dog,bird,0,0041_sty_s03_0_bird_00_bird-1865-ILSVRC2012-val-00009672.png
subject-03,1,42,0.882971048355103,oven,bottle,0,0042_sty_s03_0_bottle_00_bottle-0030-ILSVRC2012-val-00032921.png
subject-03,1,43,1.05478501319885,dog,dog,0,0043_sty_s03_0_dog_00_dog-3864-ILSVRC2012-val-00011457.png
subject-03,1,44,0.968729972839355,elephant,elephant,0,0044_sty_s03_0_elephant_00_elephant-0051-ILSVRC2012-val-00001177.png
subject-03,1,45,1.39246106147766,chair,clock,0,0045_sty_s03_0_clock_00_clock-0038-ILSVRC2012-val-00032489.png
subject-03,1,46,1.50013208389282,oven,chair,0,0046_sty_s03_0_chair_00_chair-0051-ILSVRC2012-val-00001616.png
subject-03,1,47,0.952493906021118,bicycle,elephant,0,0047_sty_s03_0_elephant_00_elephant-0041-ILSVRC2012-val-00038720.png
subject-03,1,48,0.69390606880188,boat,bird,0,0048_sty_s03_0_bird_00_bird-0122-ILSVRC2012-val-00019236.png
subject-03,1,49,1.20364689826965,car,car,0,0049_sty_s03_0_car_00_car-0019-ILSVRC2012-val-00018335.png
subject-03,1,50,0.725414037704468,cat,cat,0,0050_sty_s03_0_cat_00_cat-0133-ILSVRC2012-val-00023898.png
subject-03,1,51,0.887402057647705,truck,knife,0,0051_sty_s03_0_knife_00_knife-0024-ILSVRC2012-val-00021297.png
subject-03,1,52,0.721161127090454,cat,knife,0,0052_sty_s03_0_knife_00_knife-0021-ILSVRC2012-val-00016901.png
subject-03,1,53,0.937129020690918,oven,knife,0,0053_sty_s03_0_knife_00_knife-0044-ILSVRC2012-val-00040170.png
subject-03,1,54,0.718864917755127,car,car,0,0054_sty_s03_0_car_00_car-0118-ILSVRC2012-val-00012327.png
subject-03,1,55,1.14879107475281,car,car,0,0055_sty_s03_0_car_00_car-0095-ILSVRC2012-val-00041430.png
subject-03,1,56,0.842434883117676,cat,elephant,0,0056_sty_s03_0_elephant_00_elephant-0078-ILSVRC2012-val-00027908.png
subject-03,1,57,0.856589078903198,car,truck,0,0057_sty_s03_0_truck_00_truck-0134-ILSVRC2012-val-00035864.png
subject-03,1,58,0.704024076461792,cat,knife,0,0058_sty_s03_0_knife_00_knife-0017-ILSVRC2012-val-00014528.png
subject-03,1,59,0.967854976654053,dog,dog,0,0059_sty_s03_0_dog_00_dog-3802-ILSVRC2012-val-00003862.png
subject-03,1,60,0.887678146362305,airplane,boat,0,0060_sty_s03_0_boat_00_boat-0064-ILSVRC2012-val-00013366.png
subject-03,1,61,0.959880113601685,bicycle,oven,0,0061_sty_s03_0_oven_00_oven-0028-ILSVRC2012-val-00025917.png
subject-03,1,62,0.941241979598999,boat,knife,0,0062_sty_s03_0_knife_00_knife-0041-ILSVRC2012-val-00038966.png
subject-03,1,63,0.94100284576416,truck,bird,0,0063_sty_s03_0_bird_00_bird-1913-ILSVRC2012-val-00012475.png
subject-03,1,64,1.09113502502441,bear,bear,0,0064_sty_s03_0_bear_00_bear-0167-ILSVRC2012-val-00022112.png
subject-03,1,65,0.846729040145874,oven,oven,0,0065_sty_s03_0_oven_00_oven-0019-ILSVRC2012-val-00017971.png
subject-03,1,66,0.754431009292603,clock,oven,0,0066_sty_s03_0_oven_00_oven-0016-ILSVRC2012-val-00014839.png
subject-03,1,67,0.720380067825317,cat,elephant,0,0067_sty_s03_0_elephant_00_elephant-0083-ILSVRC2012-val-00033235.png
subject-03,1,68,0.876121997833252,oven,bird,0,0068_sty_s03_0_bird_00_bird-2221-ILSVRC2012-val-00014977.png
subject-03,1,69,0.65654993057251,cat,cat,0,0069_sty_s03_0_cat_00_cat-0238-ILSVRC2012-val-00033582.png
subject-03,1,70,1.50009703636169,bear,bear,0,0070_sty_s03_0_bear_00_bear-0164-ILSVRC2012-val-00018303.png
subject-03,1,71,0.873686790466309,boat,chair,0,0071_sty_s03_0_chair_00_chair-0116-ILSVRC2012-val-00017447.png
subject-03,1,72,1.25328898429871,dog,dog,0,0072_sty_s03_0_dog_00_dog-3044-ILSVRC2012-val-00034485.png
subject-03,1,73,0.84529709815979,keyboard,keyboard,0,0073_sty_s03_0_keyboard_00_keyboard-0085-ILSVRC2012-val-00037048.png
subject-03,1,74,1.27091312408447,oven,bicycle,0,0074_sty_s03_0_bicycle_00_bicycle-0024-ILSVRC2012-val-00025915.png
subject-03,1,75,1.38093709945679,bicycle,car,0,0075_sty_s03_0_car_00_car-0121-ILSVRC2012-val-00016638.png
subject-03,1,76,0.720656871795654,oven,bicycle,0,0076_sty_s03_0_bicycle_00_bicycle-0062-ILSVRC2012-val-00015867.png
subject-03,1,77,0.812329053878784,oven,boat,0,0077_sty_s03_0_boat_00_boat-0053-ILSVRC2012-val-00005918.png
subject-03,1,78,0.634188890457153,boat,chair,0,0078_sty_s03_0_chair_00_chair-0058-ILSVRC2012-val-00005926.png
subject-03,1,79,0.716084003448486,cat,keyboard,0,0079_sty_s03_0_keyboard_00_keyboard-0012-ILSVRC2012-val-00009502.png
subject-03,1,80,0.747776985168457,car,bottle,0,0080_sty_s03_0_bottle_00_bottle-0154-ILSVRC2012-val-00003340.png
subject-03,1,81,1.17770481109619,truck,oven,0,0081_sty_s03_0_oven_00_oven-0041-ILSVRC2012-val-00039789.png
subject-03,1,82,0.98563814163208,truck,truck,0,0082_sty_s03_0_truck_00_truck-0142-ILSVRC2012-val-00043939.png
subject-03,1,83,1.24726796150208,car,clock,0,0083_sty_s03_0_clock_00_clock-0076-ILSVRC2012-val-00028203.png
subject-03,1,84,0.849224090576172,cat,bird,0,0084_sty_s03_0_bird_00_bird-0896-ILSVRC2012-val-00046621.png
subject-03,1,85,0.628843069076538,clock,clock,0,0085_sty_s03_0_clock_00_clock-0091-ILSVRC2012-val-00044029.png
subject-03,1,86,0.736631155014038,oven,knife,0,0086_sty_s03_0_knife_00_knife-0001-ILSVRC2012-val-00000564.png
subject-03,1,87,0.980468034744263,airplane,boat,0,0087_sty_s03_0_boat_00_boat-0083-ILSVRC2012-val-00034455.png
subject-03,1,88,0.82254695892334,cat,dog,0,0088_sty_s03_0_dog_00_dog-4865-ILSVRC2012-val-00013670.png
subject-03,1,89,0.602214097976685,clock,clock,0,0089_sty_s03_0_clock_00_clock-0040-ILSVRC2012-val-00035392.png
subject-03,1,90,1.18998098373413,dog,dog,0,0090_sty_s03_0_dog_00_dog-1191-ILSVRC2012-val-00037989.png
subject-03,1,91,0.957721948623657,bottle,chair,0,0091_sty_s03_0_chair_00_chair-0123-ILSVRC2012-val-00020924.png
subject-03,1,92,0.717813968658447,oven,truck,0,0092_sty_s03_0_truck_00_truck-0096-ILSVRC2012-val-00044888.png
subject-03,1,93,0.911792993545532,dog,dog,0,0093_sty_s03_0_dog_00_dog-2368-ILSVRC2012-val-00011895.png
subject-03,1,94,0.777213096618652,oven,oven,0,0094_sty_s03_0_oven_00_oven-0007-ILSVRC2012-val-00005817.png
subject-03,1,95,0.650943994522095,cat,airplane,0,0095_sty_s03_0_airplane_00_airplane-0040-ILSVRC2012-val-00039213.png
subject-03,1,96,1.0471498966217,elephant,elephant,0,0096_sty_s03_0_elephant_00_elephant-0030-ILSVRC2012-val-00028996.png
subject-03,1,97,0.906621932983398,airplane,airplane,0,0097_sty_s03_0_airplane_00_airplane-0030-ILSVRC2012-val-00030411.png
subject-03,1,98,0.926497936248779,keyboard,car,0,0098_sty_s03_0_car_00_car-0013-ILSVRC2012-val-00014541.png
subject-03,1,99,0.662183046340942,oven,chair,0,0099_sty_s03_0_chair_00_chair-0169-ILSVRC2012-val-00019913.png
subject-03,1,100,1.2563169002533,elephant,elephant,0,0100_sty_s03_0_elephant_00_elephant-0024-ILSVRC2012-val-00022921.png
subject-03,1,101,1.13001322746277,car,bicycle,0,0101_sty_s03_0_bicycle_00_bicycle-0096-ILSVRC2012-val-00045152.png
subject-03,1,102,0.783812046051025,car,car,0,0102_sty_s03_0_car_00_car-0005-ILSVRC2012-val-00006220.png
subject-03,1,103,0.753607988357544,clock,clock,0,0103_sty_s03_0_clock_00_clock-0086-ILSVRC2012-val-00041483.png
subject-03,1,104,1.09942197799683,bicycle,bicycle,0,0104_sty_s03_0_bicycle_00_bicycle-0060-ILSVRC2012-val-00011330.png
subject-03,1,105,0.845026969909668,clock,clock,0,0105_sty_s03_0_clock_00_clock-0073-ILSVRC2012-val-00026298.png
subject-03,1,106,1.09305787086487,airplane,bottle,0,0106_sty_s03_0_bottle_00_bottle-0032-ILSVRC2012-val-00034979.png
subject-03,1,107,0.702685117721558,oven,oven,0,0107_sty_s03_0_oven_00_oven-0026-ILSVRC2012-val-00022397.png
subject-03,1,108,0.81859302520752,oven,truck,0,0108_sty_s03_0_truck_00_truck-0054-ILSVRC2012-val-00004119.png
subject-03,1,109,0.690330982208252,oven,airplane,0,0109_sty_s03_0_airplane_00_airplane-0035-ILSVRC2012-val-00033920.png
subject-03,1,110,0.742213010787964,cat,knife,0,0110_sty_s03_0_knife_00_knife-0036-ILSVRC2012-val-00034599.png
subject-03,1,111,1.20411515235901,bear,bear,0,0111_sty_s03_0_bear_00_bear-0160-ILSVRC2012-val-00013052.png
subject-03,1,112,0.731746912002563,cat,truck,0,0112_sty_s03_0_truck_00_truck-0051-ILSVRC2012-val-00001144.png
subject-03,1,113,0.737653970718384,airplane,elephant,0,0113_sty_s03_0_elephant_00_elephant-0013-ILSVRC2012-val-00014219.png
subject-03,1,114,1.05957984924316,bottle,chair,0,0114_sty_s03_0_chair_00_chair-0006-ILSVRC2012-val-00004679.png
subject-03,1,115,0.81537389755249,oven,truck,0,0115_sty_s03_0_truck_00_truck-0065-ILSVRC2012-val-00013925.png
subject-03,1,116,0.948984861373901,keyboard,chair,0,0116_sty_s03_0_chair_00_chair-0045-ILSVRC2012-val-00044898.png
subject-03,1,117,1.12891387939453,bear,bear,0,0117_sty_s03_0_bear_00_bear-0064-ILSVRC2012-val-00016050.png
subject-03,1,118,0.692677974700928,oven,bottle,0,0118_sty_s03_0_bottle_00_bottle-0085-ILSVRC2012-val-00036422.png
subject-03,1,119,0.886543035507202,car,oven,0,0119_sty_s03_0_oven_00_oven-0017-ILSVRC2012-val-00015514.png
subject-03,1,120,1.33029985427856,dog,elephant,0,0120_sty_s03_0_elephant_00_elephant-0073-ILSVRC2012-val-00021807.png
subject-03,1,121,0.766219139099121,cat,cat,0,0121_sty_s03_0_cat_00_cat-0069-ILSVRC2012-val-00016399.png
subject-03,1,122,0.843966007232666,bird,knife,0,0122_sty_s03_0_knife_00_knife-0042-ILSVRC2012-val-00039665.png
subject-03,1,123,0.777631044387817,bicycle,bicycle,0,0123_sty_s03_0_bicycle_00_bicycle-0014-ILSVRC2012-val-00015483.png
subject-03,1,124,0.765640020370483,oven,clock,0,0124_sty_s03_0_clock_00_clock-0118-ILSVRC2012-val-00018443.png
subject-03,1,125,0.965450048446655,bottle,bird,0,0125_sty_s03_0_bird_00_bird-1256-ILSVRC2012-val-00005779.png
subject-03,1,126,0.785109996795654,cat,oven,0,0126_sty_s03_0_oven_00_oven-0040-ILSVRC2012-val-00038775.png
subject-03,1,127,0.659317970275879,clock,clock,0,0127_sty_s03_0_clock_00_clock-0034-ILSVRC2012-val-00026380.png
subject-03,1,128,1.3329029083252,bear,dog,0,0128_sty_s03_0_dog_00_dog-4954-ILSVRC2012-val-00002882.png
subject-03,1,129,0.790832042694092,oven,keyboard,0,0129_sty_s03_0_keyboard_00_keyboard-0010-ILSVRC2012-val-00007754.png
subject-03,1,130,0.962342977523804,bear,bear,0,0130_sty_s03_0_bear_00_bear-0112-ILSVRC2012-val-00016340.png
subject-03,1,131,0.908473968505859,oven,boat,0,0131_sty_s03_0_boat_00_boat-0079-ILSVRC2012-val-00025681.png
subject-03,1,132,0.60416316986084,cat,oven,0,0132_sty_s03_0_oven_00_oven-0049-ILSVRC2012-val-00048848.png
subject-03,1,133,0.581889152526855,cat,cat,0,0133_sty_s03_0_cat_00_cat-0032-ILSVRC2012-val-00033420.png
subject-03,1,134,0.987914085388184,bear,bicycle,0,0134_sty_s03_0_bicycle_00_bicycle-0022-ILSVRC2012-val-00023266.png
subject-03,1,135,1.29182887077332,airplane,truck,0,0135_sty_s03_0_truck_00_truck-0028-ILSVRC2012-val-00028536.png
subject-03,1,136,1.25324296951294,knife,truck,0,0136_sty_s03_0_truck_00_truck-0194-ILSVRC2012-val-00042924.png
subject-03,1,137,0.805251836776733,bird,bird,0,0137_sty_s03_0_bird_00_bird-2405-ILSVRC2012-val-00007988.png
subject-03,1,138,0.828827857971191,cat,car,0,0138_sty_s03_0_car_00_car-0054-ILSVRC2012-val-00005500.png
subject-03,1,139,0.926841020584106,elephant,elephant,0,0139_sty_s03_0_elephant_00_elephant-0045-ILSVRC2012-val-00043193.png
subject-03,1,140,1.31488800048828,bicycle,car,0,0140_sty_s03_0_car_00_car-0117-ILSVRC2012-val-00010983.png
subject-03,1,141,0.890254974365234,clock,clock,0,0141_sty_s03_0_clock_00_clock-0029-ILSVRC2012-val-00022719.png
subject-03,1,142,0.654097080230713,oven,bottle,0,0142_sty_s03_0_bottle_00_bottle-0047-ILSVRC2012-val-00044787.png
subject-03,1,143,0.764019012451172,oven,oven,0,0143_sty_s03_0_oven_00_oven-0030-ILSVRC2012-val-00028507.png
subject-03,1,144,1.05778288841248,dog,dog,0,0144_sty_s03_0_dog_00_dog-2889-ILSVRC2012-val-00043272.png
subject-03,1,145,0.775764942169189,boat,bird,0,0145_sty_s03_0_bird_00_bird-1274-ILSVRC2012-val-00025449.png
subject-03,1,146,0.929313898086548,bear,cat,0,0146_sty_s03_0_cat_00_cat-0291-ILSVRC2012-val-00035821.png
subject-03,1,147,1.11713910102844,chair,car,0,0147_sty_s03_0_car_00_car-0058-ILSVRC2012-val-00010676.png
subject-03,1,148,0.927147150039673,chair,chair,0,0148_sty_s03_0_chair_00_chair-0181-ILSVRC2012-val-00033160.png
subject-03,1,149,NaN,na,elephant,0,0149_sty_s03_0_elephant_00_elephant-0062-ILSVRC2012-val-00010078.png
subject-03,1,150,0.976726055145264,bear,knife,0,0150_sty_s03_0_knife_00_knife-0040-ILSVRC2012-val-00038348.png
subject-03,1,151,0.694611787796021,chair,dog,0,0151_sty_s03_0_dog_00_dog-0386-ILSVRC2012-val-00034616.png
subject-03,1,152,0.772530078887939,bear,chair,0,0152_sty_s03_0_chair_00_chair-0098-ILSVRC2012-val-00044181.png
subject-03,1,153,0.804399967193604,oven,airplane,0,0153_sty_s03_0_airplane_00_airplane-0029-ILSVRC2012-val-00030319.png
subject-03,1,154,0.966218948364258,bear,bicycle,0,0154_sty_s03_0_bicycle_00_bicycle-0070-ILSVRC2012-val-00020631.png
subject-03,1,155,0.831774950027466,bottle,bottle,0,0155_sty_s03_0_bottle_00_bottle-0254-ILSVRC2012-val-00005933.png
subject-03,1,156,1.50007295608521,truck,bottle,0,0156_sty_s03_0_bottle_00_bottle-0180-ILSVRC2012-val-00027613.png
subject-03,1,157,1.21790599822998,truck,truck,0,0157_sty_s03_0_truck_00_truck-0079-ILSVRC2012-val-00028914.png
subject-03,1,158,0.733216047286987,cat,boat,0,0158_sty_s03_0_boat_00_boat-0044-ILSVRC2012-val-00041227.png
subject-03,1,159,0.748854875564575,oven,elephant,0,0159_sty_s03_0_elephant_00_elephant-0087-ILSVRC2012-val-00034562.png
subject-03,1,160,0.954849004745483,cat,elephant,0,0160_sty_s03_0_elephant_00_elephant-0022-ILSVRC2012-val-00022028.png
subject-03,1,161,0.972248077392578,car,car,0,0161_sty_s03_0_car_00_car-0025-ILSVRC2012-val-00023474.png
subject-03,1,162,1.02448296546936,bird,bird,0,0162_sty_s03_0_bird_00_bird-1551-ILSVRC2012-val-00000690.png
subject-03,1,163,1.12624287605286,bird,bird,0,0163_sty_s03_0_bird_00_bird-0532-ILSVRC2012-val-00028181.png
subject-03,1,164,0.761776208877563,keyboard,keyboard,0,0164_sty_s03_0_keyboard_00_keyboard-0014-ILSVRC2012-val-00012432.png
subject-03,1,165,1.01982593536377,cat,elephant,0,0165_sty_s03_0_elephant_00_elephant-0057-ILSVRC2012-val-00004013.png
subject-03,1,166,0.775421142578125,bottle,bottle,0,0166_sty_s03_0_bottle_00_bottle-0294-ILSVRC2012-val-00044222.png
subject-03,1,167,0.681194067001343,oven,clock,0,0167_sty_s03_0_clock_00_clock-0130-ILSVRC2012-val-00032136.png
subject-03,1,168,0.711139917373657,bird,bird,0,0168_sty_s03_0_bird_00_bird-2248-ILSVRC2012-val-00044992.png
subject-03,1,169,0.92283296585083,truck,keyboard,0,0169_sty_s03_0_keyboard_00_keyboard-0090-ILSVRC2012-val-00044306.png
subject-03,1,170,0.924505949020386,truck,truck,0,0170_sty_s03_0_truck_00_truck-0192-ILSVRC2012-val-00042157.png
subject-03,1,171,1.06223106384277,airplane,bicycle,0,0171_sty_s03_0_bicycle_00_bicycle-0032-ILSVRC2012-val-00030070.png
subject-03,1,172,0.884413957595825,clock,elephant,0,0172_sty_s03_0_elephant_00_elephant-0028-ILSVRC2012-val-00025237.png
subject-03,1,173,1.19588208198547,elephant,dog,0,0173_sty_s03_0_dog_00_dog-2121-ILSVRC2012-val-00015705.png
subject-03,1,174,0.929885149002075,bicycle,clock,0,0174_sty_s03_0_clock_00_clock-0129-ILSVRC2012-val-00031861.png
subject-03,1,175,0.877774953842163,cat,clock,0,0175_sty_s03_0_clock_00_clock-0145-ILSVRC2012-val-00044685.png
subject-03,1,176,0.699376821517944,bear,boat,0,0176_sty_s03_0_boat_00_boat-0129-ILSVRC2012-val-00027504.png
subject-03,1,177,1.05139398574829,boat,airplane,0,0177_sty_s03_0_airplane_00_airplane-0009-ILSVRC2012-val-00011168.png
subject-03,1,178,1.09519195556641,bottle,boat,0,0178_sty_s03_0_boat_00_boat-0082-ILSVRC2012-val-00027612.png
subject-03,1,179,0.890861034393311,bear,bear,0,0179_sty_s03_0_bear_00_bear-0091-ILSVRC2012-val-00041813.png
subject-03,1,180,1.03483104705811,bird,cat,0,0180_sty_s03_0_cat_00_cat-0072-ILSVRC2012-val-00019303.png
subject-03,1,181,0.834407091140747,bicycle,bicycle,0,0181_sty_s03_0_bicycle_00_bicycle-0059-ILSVRC2012-val-00011329.png
subject-03,1,182,0.920230865478516,boat,chair,0,0182_sty_s03_0_chair_00_chair-0133-ILSVRC2012-val-00033406.png
subject-03,1,183,1.05202603340149,bird,bird,0,0183_sty_s03_0_bird_00_bird-2222-ILSVRC2012-val-00015392.png
subject-03,1,184,0.856033086776733,keyboard,elephant,0,0184_sty_s03_0_elephant_00_elephant-0055-ILSVRC2012-val-00003538.png
subject-03,1,185,0.699754953384399,boat,boat,0,0185_sty_s03_0_boat_00_boat-0217-ILSVRC2012-val-00015089.png
subject-03,1,186,0.869417190551758,car,airplane,0,0186_sty_s03_0_airplane_00_airplane-0037-ILSVRC2012-val-00035783.png
subject-03,1,187,0.999435186386108,car,truck,0,0187_sty_s03_0_truck_00_truck-0219-ILSVRC2012-val-00021802.png
subject-03,1,188,0.889225006103516,airplane,airplane,0,0188_sty_s03_0_airplane_00_airplane-0038-ILSVRC2012-val-00036394.png
subject-03,1,189,0.794909954071045,cat,bottle,0,0189_sty_s03_0_bottle_00_bottle-0214-ILSVRC2012-val-00012572.png
subject-03,1,190,0.622782945632935,oven,bear,0,0190_sty_s03_0_bear_00_bear-0166-ILSVRC2012-val-00022111.png
subject-03,1,191,0.838576793670654,car,car,0,0191_sty_s03_0_car_00_car-0149-ILSVRC2012-val-00049427.png
subject-03,1,192,0.744641065597534,cat,bear,0,0192_sty_s03_0_bear_00_bear-0073-ILSVRC2012-val-00024289.png
subject-03,1,193,0.782255887985229,oven,bird,0,0193_sty_s03_0_bird_00_bird-2144-ILSVRC2012-val-00044377.png
subject-03,1,194,0.785984992980957,cat,bear,0,0194_sty_s03_0_bear_00_bear-0143-ILSVRC2012-val-00044126.png
subject-03,1,195,0.687904119491577,bottle,bottle,0,0195_sty_s03_0_bottle_00_bottle-0345-ILSVRC2012-val-00044614.png
subject-03,1,196,0.977972030639648,keyboard,chair,0,0196_sty_s03_0_chair_00_chair-0193-ILSVRC2012-val-00044295.png
subject-03,1,197,0.827810049057007,oven,knife,0,0197_sty_s03_0_knife_00_knife-0032-ILSVRC2012-val-00027812.png
subject-03,1,198,0.701153039932251,cat,cat,0,0198_sty_s03_0_cat_00_cat-0234-ILSVRC2012-val-00028970.png
subject-03,1,199,0.91117000579834,elephant,elephant,0,0199_sty_s03_0_elephant_00_elephant-0085-ILSVRC2012-val-00033861.png
subject-03,1,200,0.766947984695435,cat,elephant,0,0200_sty_s03_0_elephant_00_elephant-0095-ILSVRC2012-val-00042879.png
subject-03,1,201,0.815026998519897,car,truck,0,0201_sty_s03_0_truck_00_truck-0047-ILSVRC2012-val-00047588.png
subject-03,1,202,0.91432785987854,car,truck,0,0202_sty_s03_0_truck_00_truck-0120-ILSVRC2012-val-00018360.png
subject-03,1,203,1.09429693222046,airplane,airplane,0,0203_sty_s03_0_airplane_00_airplane-0034-ILSVRC2012-val-00033441.png
subject-03,1,204,0.93412709236145,car,car,0,0204_sty_s03_0_car_00_car-0067-ILSVRC2012-val-00018569.png
subject-03,1,205,0.860100030899048,oven,truck,0,0205_sty_s03_0_truck_00_truck-0368-ILSVRC2012-val-00016410.png
subject-03,1,206,1.0018150806427,keyboard,knife,0,0206_sty_s03_0_knife_00_knife-0011-ILSVRC2012-val-00009367.png
subject-03,1,207,0.929548978805542,elephant,bear,0,0207_sty_s03_0_bear_00_bear-0056-ILSVRC2012-val-00007093.png
subject-03,1,208,0.853394031524658,car,car,0,0208_sty_s03_0_car_00_car-0087-ILSVRC2012-val-00031558.png
subject-03,1,209,1.00912594795227,cat,bicycle,0,0209_sty_s03_0_bicycle_00_bicycle-0077-ILSVRC2012-val-00030112.png
subject-03,1,210,1.27330994606018,boat,truck,0,0210_sty_s03_0_truck_00_truck-0330-ILSVRC2012-val-00031256.png
subject-03,1,211,0.750857830047607,bird,bird,0,0211_sty_s03_0_bird_00_bird-0157-ILSVRC2012-val-00005336.png
subject-03,1,212,0.720582008361816,bicycle,bicycle,0,0212_sty_s03_0_bicycle_00_bicycle-0040-ILSVRC2012-val-00037433.png
subject-03,1,213,0.964438915252686,oven,bottle,0,0213_sty_s03_0_bottle_00_bottle-0195-ILSVRC2012-val-00045644.png
subject-03,1,214,0.872323989868164,bottle,chair,0,0214_sty_s03_0_chair_00_chair-0154-ILSVRC2012-val-00004705.png
subject-03,1,215,0.791988134384155,car,truck,0,0215_sty_s03_0_truck_00_truck-0284-ILSVRC2012-val-00030765.png
subject-03,1,216,0.843845129013062,keyboard,chair,0,0216_sty_s03_0_chair_00_chair-0087-ILSVRC2012-val-00037905.png
subject-03,1,217,0.917848110198975,cat,dog,0,0217_sty_s03_0_dog_00_dog-1881-ILSVRC2012-val-00028322.png
subject-03,1,218,0.697458982467651,car,car,0,0218_sty_s03_0_car_00_car-0032-ILSVRC2012-val-00030834.png
subject-03,1,219,0.735488891601562,oven,oven,0,0219_sty_s03_0_oven_00_oven-0010-ILSVRC2012-val-00010367.png
subject-03,1,220,0.665280103683472,cat,bottle,0,0220_sty_s03_0_bottle_00_bottle-0170-ILSVRC2012-val-00020948.png
subject-03,1,221,0.679035902023315,oven,knife,0,0221_sty_s03_0_knife_00_knife-0039-ILSVRC2012-val-00038320.png
subject-03,1,222,0.740817070007324,cat,keyboard,0,0222_sty_s03_0_keyboard_00_keyboard-0061-ILSVRC2012-val-00008530.png
subject-03,1,223,0.77055287361145,airplane,airplane,0,0223_sty_s03_0_airplane_00_airplane-0023-ILSVRC2012-val-00023863.png
subject-03,1,224,0.806487798690796,boat,boat,0,0224_sty_s03_0_boat_00_boat-0223-ILSVRC2012-val-00020544.png
subject-03,1,225,0.776274919509888,car,truck,0,0225_sty_s03_0_truck_00_truck-0329-ILSVRC2012-val-00029413.png
subject-03,1,226,1.09587287902832,bicycle,bird,0,0226_sty_s03_0_bird_00_bird-1452-ILSVRC2012-val-00002997.png
subject-03,1,227,1.27379298210144,car,truck,0,0227_sty_s03_0_truck_00_truck-0018-ILSVRC2012-val-00016650.png
subject-03,1,228,1.00597286224365,car,truck,0,0228_sty_s03_0_truck_00_truck-0116-ILSVRC2012-val-00016053.png
subject-03,1,229,1.07954096794128,bicycle,bicycle,0,0229_sty_s03_0_bicycle_00_bicycle-0081-ILSVRC2012-val-00032967.png
subject-03,1,230,0.837173938751221,chair,boat,0,0230_sty_s03_0_boat_00_boat-0061-ILSVRC2012-val-00011292.png
subject-03,1,231,1.33902907371521,boat,truck,0,0231_sty_s03_0_truck_00_truck-0358-ILSVRC2012-val-00010556.png
subject-03,1,232,1.29692792892456,cat,boat,0,0232_sty_s03_0_boat_00_boat-0170-ILSVRC2012-val-00020353.png
subject-03,1,233,0.77081298828125,oven,knife,0,0233_sty_s03_0_knife_00_knife-0043-ILSVRC2012-val-00039826.png
subject-03,1,234,1.49455380439758,car,car,0,0234_sty_s03_0_car_00_car-0106-ILSVRC2012-val-00004868.png
subject-03,1,235,0.914638996124268,bird,bird,0,0235_sty_s03_0_bird_00_bird-1326-ILSVRC2012-val-00025658.png
subject-03,1,236,NaN,na,bird,0,0236_sty_s03_0_bird_00_bird-0522-ILSVRC2012-val-00020730.png
subject-03,1,237,0.765934944152832,clock,chair,0,0237_sty_s03_0_chair_00_chair-0199-ILSVRC2012-val-00048901.png
subject-03,1,238,1.03767108917236,bear,elephant,0,0238_sty_s03_0_elephant_00_elephant-0096-ILSVRC2012-val-00046061.png
subject-03,1,239,0.937544107437134,dog,dog,0,0239_sty_s03_0_dog_00_dog-0303-ILSVRC2012-val-00002521.png
subject-03,1,240,0.949493885040283,keyboard,keyboard,0,0240_sty_s03_0_keyboard_00_keyboard-0080-ILSVRC2012-val-00028169.png
subject-03,1,241,0.731329917907715,oven,keyboard,0,0241_sty_s03_0_keyboard_00_keyboard-0065-ILSVRC2012-val-00012212.png
subject-03,1,242,0.778978109359741,cat,oven,0,0242_sty_s03_0_oven_00_oven-0011-ILSVRC2012-val-00010717.png
subject-03,1,243,0.934741020202637,chair,keyboard,0,0243_sty_s03_0_keyboard_00_keyboard-0045-ILSVRC2012-val-00045039.png
subject-03,1,244,0.760715007781982,car,bear,0,0244_sty_s03_0_bear_00_bear-0163-ILSVRC2012-val-00016513.png
subject-03,1,245,0.78471302986145,oven,elephant,0,0245_sty_s03_0_elephant_00_elephant-0090-ILSVRC2012-val-00037659.png
subject-03,1,246,1.0643458366394,airplane,elephant,0,0246_sty_s03_0_elephant_00_elephant-0026-ILSVRC2012-val-00023589.png
subject-03,1,247,0.726125955581665,bear,bear,0,0247_sty_s03_0_bear_00_bear-0149-ILSVRC2012-val-00048105.png
subject-03,1,248,0.787799119949341,oven,bicycle,0,0248_sty_s03_0_bicycle_00_bicycle-0039-ILSVRC2012-val-00037292.png
subject-03,1,249,0.767578840255737,bird,bird,0,0249_sty_s03_0_bird_00_bird-2322-ILSVRC2012-val-00023492.png
subject-03,1,250,0.849364995956421,elephant,bear,0,0250_sty_s03_0_bear_00_bear-0078-ILSVRC2012-val-00030951.png
subject-03,1,251,0.827220916748047,oven,bird,0,0251_sty_s03_0_bird_00_bird-0228-ILSVRC2012-val-00017712.png
subject-03,1,252,0.853446006774902,bird,bird,0,0252_sty_s03_0_bird_00_bird-1941-ILSVRC2012-val-00042829.png
subject-03,1,253,0.686772108078003,oven,truck,0,0253_sty_s03_0_truck_00_truck-0070-ILSVRC2012-val-00021253.png
subject-03,1,254,0.733086109161377,clock,dog,0,0254_sty_s03_0_dog_00_dog-4443-ILSVRC2012-val-00045160.png
subject-03,1,255,0.768466949462891,boat,boat,0,0255_sty_s03_0_boat_00_boat-0142-ILSVRC2012-val-00040889.png
subject-03,1,256,0.850642919540405,oven,airplane,0,0256_sty_s03_0_airplane_00_airplane-0048-ILSVRC2012-val-00047829.png
subject-03,1,257,0.850459814071655,car,car,0,0257_sty_s03_0_car_00_car-0103-ILSVRC2012-val-00003478.png
subject-03,1,258,0.793934106826782,cat,knife,0,0258_sty_s03_0_knife_00_knife-0020-ILSVRC2012-val-00015679.png
subject-03,1,259,0.739651918411255,oven,clock,0,0259_sty_s03_0_clock_00_clock-0046-ILSVRC2012-val-00044049.png
subject-03,1,260,0.721446990966797,bear,dog,0,0260_sty_s03_0_dog_00_dog-4999-ILSVRC2012-val-00049046.png
subject-03,1,261,1.35334706306458,knife,keyboard,0,0261_sty_s03_0_keyboard_00_keyboard-0020-ILSVRC2012-val-00020212.png
subject-03,1,262,0.633127927780151,cat,cat,0,0262_sty_s03_0_cat_00_cat-0110-ILSVRC2012-val-00004411.png
subject-03,1,263,0.848891019821167,dog,cat,0,0263_sty_s03_0_cat_00_cat-0050-ILSVRC2012-val-00047911.png
subject-03,1,264,1.28463006019592,dog,cat,0,0264_sty_s03_0_cat_00_cat-0160-ILSVRC2012-val-00011528.png
subject-03,1,265,0.862668991088867,car,keyboard,0,0265_sty_s03_0_keyboard_00_keyboard-0047-ILSVRC2012-val-00046306.png
subject-03,1,266,1.26431202888489,cat,oven,0,0266_sty_s03_0_oven_00_oven-0037-ILSVRC2012-val-00037357.png
subject-03,1,267,1.07613086700439,car,boat,0,0267_sty_s03_0_boat_00_boat-0042-ILSVRC2012-val-00039945.png
subject-03,1,268,0.864032030105591,dog,dog,0,0268_sty_s03_0_dog_00_dog-1398-ILSVRC2012-val-00046547.png
subject-03,1,269,0.763880968093872,cat,oven,0,0269_sty_s03_0_oven_00_oven-0032-ILSVRC2012-val-00029341.png
subject-03,1,270,0.768150091171265,oven,bottle,0,0270_sty_s03_0_bottle_00_bottle-0003-ILSVRC2012-val-00003622.png
subject-03,1,271,1.02550983428955,car,clock,0,0271_sty_s03_0_clock_00_clock-0107-ILSVRC2012-val-00010270.png
subject-03,1,272,0.859434127807617,cat,boat,0,0272_sty_s03_0_boat_00_boat-0076-ILSVRC2012-val-00020486.png
subject-03,1,273,0.733196973800659,oven,clock,0,0273_sty_s03_0_clock_00_clock-0054-ILSVRC2012-val-00008751.png
subject-03,1,274,0.999425172805786,cat,oven,0,0274_sty_s03_0_oven_00_oven-0012-ILSVRC2012-val-00010756.png
subject-03,1,275,0.836648941040039,boat,bicycle,0,0275_sty_s03_0_bicycle_00_bicycle-0089-ILSVRC2012-val-00042393.png
subject-03,1,276,0.694767951965332,oven,bird,0,0276_sty_s03_0_bird_00_bird-2011-ILSVRC2012-val-00008842.png
subject-03,1,277,1.01849794387817,elephant,elephant,0,0277_sty_s03_0_elephant_00_elephant-0059-ILSVRC2012-val-00005109.png
subject-03,1,278,0.900243997573853,truck,truck,0,0278_sty_s03_0_truck_00_truck-0112-ILSVRC2012-val-00013466.png
subject-03,1,279,1.50008320808411,bear,cat,0,0279_sty_s03_0_cat_00_cat-0298-ILSVRC2012-val-00042529.png
subject-03,1,280,1.23388385772705,bicycle,car,0,0280_sty_s03_0_car_00_car-0111-ILSVRC2012-val-00007125.png
subject-03,1,281,1.021812915802,elephant,elephant,0,0281_sty_s03_0_elephant_00_elephant-0099-ILSVRC2012-val-00048108.png
subject-03,1,282,0.797393083572388,dog,dog,0,0282_sty_s03_0_dog_00_dog-1735-ILSVRC2012-val-00031764.png
subject-03,1,283,1.241614818573,bird,truck,0,0283_sty_s03_0_truck_00_truck-0184-ILSVRC2012-val-00032494.png
subject-03,1,284,1.00319194793701,oven,bear,0,0284_sty_s03_0_bear_00_bear-0139-ILSVRC2012-val-00041156.png
subject-03,1,285,0.954913139343262,oven,truck,0,0285_sty_s03_0_truck_00_truck-0019-ILSVRC2012-val-00019954.png
subject-03,1,286,0.890573978424072,boat,boat,0,0286_sty_s03_0_boat_00_boat-0100-ILSVRC2012-val-00048371.png
subject-03,1,287,0.810426950454712,bottle,boat,0,0287_sty_s03_0_boat_00_boat-0218-ILSVRC2012-val-00015121.png
subject-03,1,288,1.28035688400269,airplane,elephant,0,0288_sty_s03_0_elephant_00_elephant-0084-ILSVRC2012-val-00033832.png
subject-03,1,289,0.80194091796875,car,car,0,0289_sty_s03_0_car_00_car-0069-ILSVRC2012-val-00019647.png
subject-03,1,290,0.866030931472778,boat,elephant,0,0290_sty_s03_0_elephant_00_elephant-0074-ILSVRC2012-val-00022907.png
subject-03,1,291,0.723879098892212,cat,cat,0,0291_sty_s03_0_cat_00_cat-0056-ILSVRC2012-val-00007676.png
subject-03,1,292,0.843772172927856,cat,bicycle,0,0292_sty_s03_0_bicycle_00_bicycle-0026-ILSVRC2012-val-00026292.png
subject-03,1,293,0.705418825149536,bottle,knife,0,0293_sty_s03_0_knife_00_knife-0046-ILSVRC2012-val-00045197.png
subject-03,1,294,0.747136116027832,car,airplane,0,0294_sty_s03_0_airplane_00_airplane-0044-ILSVRC2012-val-00043242.png
subject-03,1,295,0.810878992080688,car,knife,0,0295_sty_s03_0_knife_00_knife-0047-ILSVRC2012-val-00046361.png
subject-03,1,296,0.846771955490112,boat,bear,0,0296_sty_s03_0_bear_00_bear-0113-ILSVRC2012-val-00016459.png
subject-03,1,297,0.682629108428955,oven,oven,0,0297_sty_s03_0_oven_00_oven-0023-ILSVRC2012-val-00020809.png
subject-03,1,298,0.808378934860229,oven,keyboard,0,0298_sty_s03_0_keyboard_00_keyboard-0004-ILSVRC2012-val-00001089.png
subject-03,1,299,1.2203688621521,knife,dog,0,0299_sty_s03_0_dog_00_dog-2211-ILSVRC2012-val-00010402.png
subject-03,1,300,0.859925031661987,boat,airplane,0,0300_sty_s03_0_airplane_00_airplane-0031-ILSVRC2012-val-00030531.png
subject-03,1,301,0.79784107208252,boat,airplane,0,0301_sty_s03_0_airplane_00_airplane-0005-ILSVRC2012-val-00003960.png
subject-03,1,302,0.951619148254395,dog,dog,0,0302_sty_s03_0_dog_00_dog-3425-ILSVRC2012-val-00027086.png
subject-03,1,303,1.03939604759216,oven,boat,0,0303_sty_s03_0_boat_00_boat-0235-ILSVRC2012-val-00032371.png
subject-03,1,304,1.04532289505005,keyboard,keyboard,0,0304_sty_s03_0_keyboard_00_keyboard-0068-ILSVRC2012-val-00013404.png
subject-03,1,305,0.83918309211731,bird,bird,0,0305_sty_s03_0_bird_00_bird-0995-ILSVRC2012-val-00046534.png
subject-03,1,306,1.18694281578064,bottle,bear,0,0306_sty_s03_0_bear_00_bear-0035-ILSVRC2012-val-00042274.png
subject-03,1,307,0.660882949829102,clock,clock,0,0307_sty_s03_0_clock_00_clock-0128-ILSVRC2012-val-00030987.png
subject-03,1,308,0.828428983688354,bird,bird,0,0308_sty_s03_0_bird_00_bird-0822-ILSVRC2012-val-00025200.png
subject-03,1,309,0.836511850357056,cat,oven,0,0309_sty_s03_0_oven_00_oven-0042-ILSVRC2012-val-00039873.png
subject-03,1,310,0.790143013000488,truck,truck,0,0310_sty_s03_0_truck_00_truck-0060-ILSVRC2012-val-00007519.png
subject-03,1,311,0.981939077377319,car,boat,0,0311_sty_s03_0_boat_00_boat-0160-ILSVRC2012-val-00008630.png
subject-03,1,312,0.801680088043213,bear,bear,0,0312_sty_s03_0_bear_00_bear-0069-ILSVRC2012-val-00018788.png
subject-03,1,313,1.02770400047302,car,airplane,0,0313_sty_s03_0_airplane_00_airplane-0002-ILSVRC2012-val-00001390.png
subject-03,1,314,0.787389993667603,boat,car,0,0314_sty_s03_0_car_00_car-0024-ILSVRC2012-val-00023221.png
subject-03,1,315,0.683186054229736,oven,bottle,0,0315_sty_s03_0_bottle_00_bottle-0220-ILSVRC2012-val-00014146.png
subject-03,1,316,0.839294910430908,keyboard,keyboard,0,0316_sty_s03_0_keyboard_00_keyboard-0060-ILSVRC2012-val-00008319.png
subject-03,1,317,0.70073413848877,cat,keyboard,0,0317_sty_s03_0_keyboard_00_keyboard-0063-ILSVRC2012-val-00009383.png
subject-03,1,318,1.0906879901886,airplane,airplane,0,0318_sty_s03_0_airplane_00_airplane-0050-ILSVRC2012-val-00049097.png
subject-03,1,319,0.888447046279907,keyboard,keyboard,0,0319_sty_s03_0_keyboard_00_keyboard-0087-ILSVRC2012-val-00039947.png
subject-03,1,320,0.900427103042603,cat,elephant,0,0320_sty_s03_0_elephant_00_elephant-0091-ILSVRC2012-val-00038578.png
subject-03,1,321,0.707811832427979,cat,oven,0,0321_sty_s03_0_oven_00_oven-0018-ILSVRC2012-val-00017795.png
subject-03,1,322,0.705435991287231,oven,oven,0,0322_sty_s03_0_oven_00_oven-0004-ILSVRC2012-val-00003075.png
subject-03,1,323,0.659326076507568,bottle,bottle,0,0323_sty_s03_0_bottle_00_bottle-0107-ILSVRC2012-val-00008313.png
subject-03,1,324,0.873175144195557,bird,bird,0,0324_sty_s03_0_bird_00_bird-0752-ILSVRC2012-val-00001596.png
subject-03,1,325,0.86300802230835,bird,bird,0,0325_sty_s03_0_bird_00_bird-0624-ILSVRC2012-val-00024514.png
subject-03,1,326,0.660767078399658,cat,cat,0,0326_sty_s03_0_cat_00_cat-0147-ILSVRC2012-val-00041347.png
subject-03,1,327,0.86042594909668,cat,cat,0,0327_sty_s03_0_cat_00_cat-0137-ILSVRC2012-val-00027906.png
subject-03,1,328,0.648359060287476,cat,bicycle,0,0328_sty_s03_0_bicycle_00_bicycle-0007-ILSVRC2012-val-00006395.png
subject-03,1,329,1.46005487442017,cat,chair,0,0329_sty_s03_0_chair_00_chair-0170-ILSVRC2012-val-00022051.png
subject-03,1,330,1.1920177936554,airplane,chair,0,0330_sty_s03_0_chair_00_chair-0092-ILSVRC2012-val-00041814.png
subject-03,1,331,0.855635166168213,car,truck,0,0331_sty_s03_0_truck_00_truck-0301-ILSVRC2012-val-00000671.png
subject-03,1,332,1.10551500320435,dog,dog,0,0332_sty_s03_0_dog_00_dog-5044-ILSVRC2012-val-00043270.png
subject-03,1,333,1.01156711578369,bird,bird,0,0333_sty_s03_0_bird_00_bird-0754-ILSVRC2012-val-00002846.png
subject-03,1,334,0.859070062637329,oven,knife,0,0334_sty_s03_0_knife_00_knife-0027-ILSVRC2012-val-00025279.png
subject-03,1,335,0.723253965377808,cat,cat,0,0335_sty_s03_0_cat_00_cat-0034-ILSVRC2012-val-00033837.png
subject-03,1,336,NaN,na,boat,0,0336_sty_s03_0_boat_00_boat-0005-ILSVRC2012-val-00004909.png
subject-03,1,337,0.874474048614502,clock,oven,0,0337_sty_s03_0_oven_00_oven-0029-ILSVRC2012-val-00028472.png
subject-03,1,338,1.02830910682678,bird,bird,0,0338_sty_s03_0_bird_00_bird-2118-ILSVRC2012-val-00021926.png
subject-03,1,339,0.720104932785034,cat,cat,0,0339_sty_s03_0_cat_00_cat-0082-ILSVRC2012-val-00025723.png
subject-03,1,340,0.772286891937256,keyboard,car,0,0340_sty_s03_0_car_00_car-0091-ILSVRC2012-val-00036091.png
subject-03,1,341,1.50003600120544,boat,airplane,0,0341_sty_s03_0_airplane_00_airplane-0003-ILSVRC2012-val-00001506.png
subject-03,1,342,1.41158986091614,truck,clock,0,0342_sty_s03_0_clock_00_clock-0098-ILSVRC2012-val-00048682.png
subject-03,1,343,1.40166401863098,cat,boat,0,0343_sty_s03_0_boat_00_boat-0111-ILSVRC2012-val-00009680.png
subject-03,1,344,0.899190902709961,bear,truck,0,0344_sty_s03_0_truck_00_truck-0034-ILSVRC2012-val-00034340.png
subject-03,1,345,0.889295101165771,bicycle,airplane,0,0345_sty_s03_0_airplane_00_airplane-0017-ILSVRC2012-val-00019179.png
subject-03,1,346,0.765037059783936,clock,clock,0,0346_sty_s03_0_clock_00_clock-0008-ILSVRC2012-val-00005558.png
subject-03,1,347,0.722715854644775,oven,knife,0,0347_sty_s03_0_knife_00_knife-0019-ILSVRC2012-val-00014960.png
subject-03,1,348,1.04653406143188,cat,dog,0,0348_sty_s03_0_dog_00_dog-1734-ILSVRC2012-val-00031377.png
subject-03,1,349,0.926356077194214,bicycle,bicycle,0,0349_sty_s03_0_bicycle_00_bicycle-0015-ILSVRC2012-val-00015618.png
subject-03,1,350,0.784173011779785,bottle,bottle,0,0350_sty_s03_0_bottle_00_bottle-0127-ILSVRC2012-val-00023580.png
subject-03,1,351,1.15603494644165,dog,dog,0,0351_sty_s03_0_dog_00_dog-3841-ILSVRC2012-val-00038789.png
subject-03,1,352,0.889630079269409,cat,boat,0,0352_sty_s03_0_boat_00_boat-0066-ILSVRC2012-val-00013961.png
subject-03,1,353,0.705515146255493,cat,chair,0,0353_sty_s03_0_chair_00_chair-0183-ILSVRC2012-val-00035142.png
subject-03,1,354,0.751460075378418,bear,clock,0,0354_sty_s03_0_clock_00_clock-0089-ILSVRC2012-val-00042911.png
subject-03,1,355,0.82721996307373,keyboard,airplane,0,0355_sty_s03_0_airplane_00_airplane-0027-ILSVRC2012-val-00026859.png
subject-03,1,356,1.40691184997559,elephant,cat,0,0356_sty_s03_0_cat_00_cat-0096-ILSVRC2012-val-00045420.png
subject-03,1,357,0.923192977905273,car,bicycle,0,0357_sty_s03_0_bicycle_00_bicycle-0073-ILSVRC2012-val-00027449.png
subject-03,1,358,0.804695844650269,car,car,0,0358_sty_s03_0_car_00_car-0086-ILSVRC2012-val-00029454.png
subject-03,1,359,0.776396989822388,keyboard,keyboard,0,0359_sty_s03_0_keyboard_00_keyboard-0038-ILSVRC2012-val-00038711.png
subject-03,1,360,1.11006903648376,bear,bird,0,0360_sty_s03_0_bird_00_bird-0045-ILSVRC2012-val-00045547.png
subject-03,1,361,0.764137029647827,oven,oven,0,0361_sty_s03_0_oven_00_oven-0033-ILSVRC2012-val-00031595.png
subject-03,1,362,1.35389709472656,keyboard,airplane,0,0362_sty_s03_0_airplane_00_airplane-0010-ILSVRC2012-val-00012263.png
subject-03,1,363,0.829757928848267,keyboard,keyboard,0,0363_sty_s03_0_keyboard_00_keyboard-0007-ILSVRC2012-val-00002755.png
subject-03,1,364,0.91739296913147,airplane,airplane,0,0364_sty_s03_0_airplane_00_airplane-0049-ILSVRC2012-val-00048111.png
subject-03,1,365,1.15328502655029,clock,clock,0,0365_sty_s03_0_clock_00_clock-0013-ILSVRC2012-val-00013244.png
subject-03,1,366,1.00926303863525,dog,dog,0,0366_sty_s03_0_dog_00_dog-2535-ILSVRC2012-val-00038253.png
subject-03,1,367,0.998788118362427,oven,truck,0,0367_sty_s03_0_truck_00_truck-0048-ILSVRC2012-val-00047888.png
subject-03,1,368,0.760703086853027,keyboard,keyboard,0,0368_sty_s03_0_keyboard_00_keyboard-0023-ILSVRC2012-val-00023014.png
subject-03,1,369,0.862385034561157,oven,bear,0,0369_sty_s03_0_bear_00_bear-0003-ILSVRC2012-val-00003044.png
subject-03,1,370,0.800425052642822,cat,elephant,0,0370_sty_s03_0_elephant_00_elephant-0065-ILSVRC2012-val-00010619.png
subject-03,1,371,0.722035884857178,oven,bicycle,0,0371_sty_s03_0_bicycle_00_bicycle-0038-ILSVRC2012-val-00036903.png
subject-03,1,372,0.745907068252563,cat,chair,0,0372_sty_s03_0_chair_00_chair-0039-ILSVRC2012-val-00041772.png
subject-03,1,373,0.839932918548584,keyboard,keyboard,0,0373_sty_s03_0_keyboard_00_keyboard-0041-ILSVRC2012-val-00041349.png
subject-03,1,374,0.977919101715088,boat,chair,0,0374_sty_s03_0_chair_00_chair-0141-ILSVRC2012-val-00040076.png
subject-03,1,375,0.813366889953613,oven,knife,0,0375_sty_s03_0_knife_00_knife-0031-ILSVRC2012-val-00027474.png
subject-03,1,376,1.01934003829956,car,chair,0,0376_sty_s03_0_chair_00_chair-0047-ILSVRC2012-val-00045407.png
subject-03,1,377,1.0090959072113,airplane,airplane,0,0377_sty_s03_0_airplane_00_airplane-0008-ILSVRC2012-val-00010597.png
subject-03,1,378,1.11090016365051,elephant,elephant,0,0378_sty_s03_0_elephant_00_elephant-0068-ILSVRC2012-val-00016215.png
subject-03,1,379,1.20276188850403,bicycle,bottle,0,0379_sty_s03_0_bottle_00_bottle-0037-ILSVRC2012-val-00036359.png
subject-03,1,380,0.980443000793457,bottle,boat,0,0380_sty_s03_0_boat_00_boat-0026-ILSVRC2012-val-00026341.png
subject-03,1,381,1.20620489120483,bottle,clock,0,0381_sty_s03_0_clock_00_clock-0110-ILSVRC2012-val-00014035.png
subject-03,1,382,0.884202003479004,car,bottle,0,0382_sty_s03_0_bottle_00_bottle-0325-ILSVRC2012-val-00027316.png
subject-03,1,383,0.747934103012085,cat,dog,0,0383_sty_s03_0_dog_00_dog-0158-ILSVRC2012-val-00004081.png
subject-03,1,384,1.09971499443054,keyboard,boat,0,0384_sty_s03_0_boat_00_boat-0222-ILSVRC2012-val-00019246.png
subject-03,1,385,0.949400901794434,chair,chair,0,0385_sty_s03_0_chair_00_chair-0119-ILSVRC2012-val-00018206.png
subject-03,1,386,0.617365837097168,clock,clock,0,0386_sty_s03_0_clock_00_clock-0144-ILSVRC2012-val-00041715.png
subject-03,1,387,0.727128982543945,bottle,keyboard,0,0387_sty_s03_0_keyboard_00_keyboard-0084-ILSVRC2012-val-00036957.png
subject-03,1,388,1.26093792915344,oven,bird,0,0388_sty_s03_0_bird_00_bird-0486-ILSVRC2012-val-00037420.png
subject-03,1,389,1.18873882293701,bottle,bottle,0,0389_sty_s03_0_bottle_00_bottle-0224-ILSVRC2012-val-00020102.png
subject-03,1,390,1.24274301528931,keyboard,bear,0,0390_sty_s03_0_bear_00_bear-0125-ILSVRC2012-val-00028222.png
subject-03,1,391,0.904216051101685,bottle,knife,0,0391_sty_s03_0_knife_00_knife-0008-ILSVRC2012-val-00006102.png
subject-03,1,392,0.838175058364868,bottle,bottle,0,0392_sty_s03_0_bottle_00_bottle-0347-ILSVRC2012-val-00048539.png
subject-03,1,393,0.976024866104126,oven,boat,0,0393_sty_s03_0_boat_00_boat-0121-ILSVRC2012-val-00016970.png
subject-03,1,394,1.38993692398071,oven,clock,0,0394_sty_s03_0_clock_00_clock-0106-ILSVRC2012-val-00009413.png
subject-03,1,395,0.79367995262146,boat,boat,0,0395_sty_s03_0_boat_00_boat-0107-ILSVRC2012-val-00004492.png
subject-03,1,396,0.705520153045654,keyboard,keyboard,0,0396_sty_s03_0_keyboard_00_keyboard-0058-ILSVRC2012-val-00007790.png
subject-03,1,397,0.88132905960083,bicycle,bicycle,0,0397_sty_s03_0_bicycle_00_bicycle-0094-ILSVRC2012-val-00044080.png
subject-03,1,398,0.849025964736938,cat,clock,0,0398_sty_s03_0_clock_00_clock-0063-ILSVRC2012-val-00015628.png
subject-03,1,399,1.05310702323914,dog,bear,0,0399_sty_s03_0_bear_00_bear-0195-ILSVRC2012-val-00045672.png
subject-03,1,400,1.31461000442505,airplane,car,0,0400_sty_s03_0_car_00_car-0001-ILSVRC2012-val-00000175.png
subject-03,1,401,0.754471063613892,boat,knife,0,0401_sty_s03_0_knife_00_knife-0029-ILSVRC2012-val-00026505.png
subject-03,1,402,0.650384902954102,car,truck,0,0402_sty_s03_0_truck_00_truck-0136-ILSVRC2012-val-00037829.png
subject-03,1,403,0.846504926681519,dog,dog,0,0403_sty_s03_0_dog_00_dog-0779-ILSVRC2012-val-00033666.png
subject-03,1,404,0.67822790145874,bicycle,bicycle,0,0404_sty_s03_0_bicycle_00_bicycle-0078-ILSVRC2012-val-00030892.png
subject-03,1,405,0.861788988113403,clock,clock,0,0405_sty_s03_0_clock_00_clock-0119-ILSVRC2012-val-00018797.png
subject-03,1,406,1.10551309585571,dog,bear,0,0406_sty_s03_0_bear_00_bear-0180-ILSVRC2012-val-00034637.png
subject-03,1,407,1.24523210525513,oven,airplane,0,0407_sty_s03_0_airplane_00_airplane-0019-ILSVRC2012-val-00022532.png
subject-03,1,408,0.711205005645752,oven,keyboard,0,0408_sty_s03_0_keyboard_00_keyboard-0081-ILSVRC2012-val-00028754.png
subject-03,1,409,0.967300891876221,cat,chair,0,0409_sty_s03_0_chair_00_chair-0155-ILSVRC2012-val-00005160.png
subject-03,1,410,0.967081785202026,keyboard,chair,0,0410_sty_s03_0_chair_00_chair-0196-ILSVRC2012-val-00045844.png
subject-03,1,411,0.886547803878784,cat,cat,0,0411_sty_s03_0_cat_00_cat-0123-ILSVRC2012-val-00014813.png
subject-03,1,412,0.726356029510498,cat,cat,0,0412_sty_s03_0_cat_00_cat-0186-ILSVRC2012-val-00039580.png
subject-03,1,413,0.842185974121094,oven,chair,0,0413_sty_s03_0_chair_00_chair-0024-ILSVRC2012-val-00021099.png
subject-03,1,414,0.974129915237427,bear,dog,0,0414_sty_s03_0_dog_00_dog-2253-ILSVRC2012-val-00003731.png
subject-03,1,415,0.95391583442688,elephant,elephant,0,0415_sty_s03_0_elephant_00_elephant-0047-ILSVRC2012-val-00048547.png
subject-03,1,416,1.19163298606873,bottle,bottle,0,0416_sty_s03_0_bottle_00_bottle-0066-ILSVRC2012-val-00016336.png
subject-03,1,417,0.941464900970459,cat,bird,0,0417_sty_s03_0_bird_00_bird-1971-ILSVRC2012-val-00023024.png
subject-03,1,418,0.825372934341431,cat,truck,0,0418_sty_s03_0_truck_00_truck-0200-ILSVRC2012-val-00048418.png
subject-03,1,419,0.867118120193481,dog,keyboard,0,0419_sty_s03_0_keyboard_00_keyboard-0077-ILSVRC2012-val-00025109.png
subject-03,1,420,0.960993051528931,dog,dog,0,0420_sty_s03_0_dog_00_dog-4070-ILSVRC2012-val-00021155.png
subject-03,1,421,0.836814880371094,dog,clock,0,0421_sty_s03_0_clock_00_clock-0127-ILSVRC2012-val-00030330.png
subject-03,1,422,0.796489000320435,keyboard,keyboard,0,0422_sty_s03_0_keyboard_00_keyboard-0055-ILSVRC2012-val-00001330.png
subject-03,1,423,0.778275966644287,cat,bottle,0,0423_sty_s03_0_bottle_00_bottle-0204-ILSVRC2012-val-00002597.png
subject-03,1,424,0.64209508895874,car,car,0,0424_sty_s03_0_car_00_car-0018-ILSVRC2012-val-00018138.png
subject-03,1,425,1.18185806274414,bear,bear,0,0425_sty_s03_0_bear_00_bear-0074-ILSVRC2012-val-00026962.png
subject-03,1,426,1.04174089431763,car,truck,0,0426_sty_s03_0_truck_00_truck-0335-ILSVRC2012-val-00039723.png
subject-03,1,427,0.871535062789917,dog,dog,0,0427_sty_s03_0_dog_00_dog-3917-ILSVRC2012-val-00016908.png
subject-03,1,428,0.753329038619995,cat,bottle,0,0428_sty_s03_0_bottle_00_bottle-0005-ILSVRC2012-val-00004521.png
subject-03,1,429,1.18123292922974,boat,bottle,0,0429_sty_s03_0_bottle_00_bottle-0031-ILSVRC2012-val-00033822.png
subject-03,1,430,0.665052175521851,cat,chair,0,0430_sty_s03_0_chair_00_chair-0136-ILSVRC2012-val-00037994.png
subject-03,1,431,0.630728960037231,cat,bird,0,0431_sty_s03_0_bird_00_bird-2433-ILSVRC2012-val-00028670.png
subject-03,1,432,0.81688404083252,cat,cat,0,0432_sty_s03_0_cat_00_cat-0042-ILSVRC2012-val-00040238.png
subject-03,1,433,1.37027883529663,dog,bird,0,0433_sty_s03_0_bird_00_bird-2082-ILSVRC2012-val-00036457.png
subject-03,1,434,1.0783360004425,car,oven,0,0434_sty_s03_0_oven_00_oven-0046-ILSVRC2012-val-00046020.png
subject-03,1,435,0.825984001159668,elephant,elephant,0,0435_sty_s03_0_elephant_00_elephant-0035-ILSVRC2012-val-00034035.png
subject-03,1,436,0.638113975524902,cat,airplane,0,0436_sty_s03_0_airplane_00_airplane-0015-ILSVRC2012-val-00018616.png
subject-03,1,437,0.829663038253784,elephant,elephant,0,0437_sty_s03_0_elephant_00_elephant-0010-ILSVRC2012-val-00011002.png
subject-03,1,438,0.809506177902222,elephant,elephant,0,0438_sty_s03_0_elephant_00_elephant-0036-ILSVRC2012-val-00034664.png
subject-03,1,439,0.821249008178711,keyboard,chair,0,0439_sty_s03_0_chair_00_chair-0150-ILSVRC2012-val-00048622.png
subject-03,1,440,0.829416990280151,car,car,0,0440_sty_s03_0_car_00_car-0059-ILSVRC2012-val-00014010.png
subject-03,1,441,0.750933170318604,elephant,elephant,0,0441_sty_s03_0_elephant_00_elephant-0033-ILSVRC2012-val-00033715.png
subject-03,1,442,0.740829944610596,boat,airplane,0,0442_sty_s03_0_airplane_00_airplane-0046-ILSVRC2012-val-00046862.png
subject-03,1,443,1.29472684860229,airplane,chair,0,0443_sty_s03_0_chair_00_chair-0159-ILSVRC2012-val-00011028.png
subject-03,1,444,0.894730091094971,car,bird,0,0444_sty_s03_0_bird_00_bird-1172-ILSVRC2012-val-00022442.png
subject-03,1,445,0.836464166641235,car,car,0,0445_sty_s03_0_car_00_car-0079-ILSVRC2012-val-00025028.png
subject-03,1,446,0.826159954071045,boat,oven,0,0446_sty_s03_0_oven_00_oven-0020-ILSVRC2012-val-00019568.png
subject-03,1,447,0.911822080612183,car,truck,0,0447_sty_s03_0_truck_00_truck-0213-ILSVRC2012-val-00016098.png
subject-03,1,448,0.995695114135742,cat,oven,0,0448_sty_s03_0_oven_00_oven-0027-ILSVRC2012-val-00024603.png
subject-03,1,449,0.817791938781738,dog,bear,0,0449_sty_s03_0_bear_00_bear-0165-ILSVRC2012-val-00019901.png
subject-03,1,450,0.887371063232422,cat,bear,0,0450_sty_s03_0_bear_00_bear-0116-ILSVRC2012-val-00020332.png
subject-03,1,451,0.84299111366272,bird,bird,0,0451_sty_s03_0_bird_00_bird-0238-ILSVRC2012-val-00030657.png
subject-03,1,452,0.816845893859863,bear,bear,0,0452_sty_s03_0_bear_00_bear-0191-ILSVRC2012-val-00044349.png
subject-03,1,453,0.878691911697388,clock,clock,0,0453_sty_s03_0_clock_00_clock-0023-ILSVRC2012-val-00017973.png
subject-03,1,454,0.972680807113647,car,knife,0,0454_sty_s03_0_knife_00_knife-0004-ILSVRC2012-val-00002212.png
subject-03,1,455,0.84462308883667,bicycle,bicycle,0,0455_sty_s03_0_bicycle_00_bicycle-0011-ILSVRC2012-val-00011821.png
subject-03,1,456,1.18035697937012,bear,cat,0,0456_sty_s03_0_cat_00_cat-0064-ILSVRC2012-val-00014860.png
subject-03,1,457,1.05235409736633,bear,bear,0,0457_sty_s03_0_bear_00_bear-0168-ILSVRC2012-val-00022698.png
subject-03,1,458,1.16177296638489,keyboard,knife,0,0458_sty_s03_0_knife_00_knife-0014-ILSVRC2012-val-00010886.png
subject-03,1,459,0.767500877380371,clock,clock,0,0459_sty_s03_0_clock_00_clock-0010-ILSVRC2012-val-00006858.png
subject-03,1,460,0.96743106842041,bear,bear,0,0460_sty_s03_0_bear_00_bear-0106-ILSVRC2012-val-00007578.png
subject-03,1,461,0.783199071884155,cat,elephant,0,0461_sty_s03_0_elephant_00_elephant-0098-ILSVRC2012-val-00047540.png
subject-03,1,462,0.807061910629272,clock,bird,0,0462_sty_s03_0_bird_00_bird-1093-ILSVRC2012-val-00044082.png
subject-03,1,463,0.872733116149902,bear,bear,0,0463_sty_s03_0_bear_00_bear-0188-ILSVRC2012-val-00043016.png
subject-03,1,464,0.996672868728638,dog,dog,0,0464_sty_s03_0_dog_00_dog-0397-ILSVRC2012-val-00044140.png
subject-03,1,465,0.930492162704468,bottle,dog,0,0465_sty_s03_0_dog_00_dog-2539-ILSVRC2012-val-00041157.png
subject-03,1,466,0.892292022705078,knife,knife,0,0466_sty_s03_0_knife_00_knife-0038-ILSVRC2012-val-00037845.png
subject-03,1,467,1.11400508880615,car,car,0,0467_sty_s03_0_car_00_car-0145-ILSVRC2012-val-00041626.png
subject-03,1,468,0.77394700050354,cat,knife,0,0468_sty_s03_0_knife_00_knife-0012-ILSVRC2012-val-00009369.png
subject-03,1,469,0.671573877334595,oven,knife,0,0469_sty_s03_0_knife_00_knife-0016-ILSVRC2012-val-00012885.png
subject-03,1,470,0.839586019515991,bicycle,bicycle,0,0470_sty_s03_0_bicycle_00_bicycle-0013-ILSVRC2012-val-00012667.png
subject-03,1,471,0.779303073883057,oven,clock,0,0471_sty_s03_0_clock_00_clock-0100-ILSVRC2012-val-00049759.png
subject-03,1,472,0.633117914199829,cat,truck,0,0472_sty_s03_0_truck_00_truck-0225-ILSVRC2012-val-00026079.png
subject-03,1,473,0.81677508354187,dog,knife,0,0473_sty_s03_0_knife_00_knife-0028-ILSVRC2012-val-00026439.png
subject-03,1,474,0.908585071563721,oven,bottle,0,0474_sty_s03_0_bottle_00_bottle-0205-ILSVRC2012-val-00003263.png
subject-03,1,475,0.616490125656128,boat,keyboard,0,0475_sty_s03_0_keyboard_00_keyboard-0009-ILSVRC2012-val-00006513.png
subject-03,1,476,1.15241599082947,bear,elephant,0,0476_sty_s03_0_elephant_00_elephant-0046-ILSVRC2012-val-00045103.png
subject-03,1,477,1.28624105453491,cat,elephant,0,0477_sty_s03_0_elephant_00_elephant-0006-ILSVRC2012-val-00005704.png
subject-03,1,478,0.695819139480591,cat,cat,0,0478_sty_s03_0_cat_00_cat-0185-ILSVRC2012-val-00038168.png
subject-03,1,479,0.909631967544556,car,dog,0,0479_sty_s03_0_dog_00_dog-3771-ILSVRC2012-val-00020678.png
subject-03,1,480,1.06577301025391,truck,elephant,0,0480_sty_s03_0_elephant_00_elephant-0088-ILSVRC2012-val-00036121.png
subject-03,1,481,0.824231863021851,keyboard,keyboard,0,0481_sty_s03_0_keyboard_00_keyboard-0083-ILSVRC2012-val-00036727.png
subject-03,1,482,0.866162061691284,cat,cat,0,0482_sty_s03_0_cat_00_cat-0012-ILSVRC2012-val-00012377.png
subject-03,1,483,0.937818050384521,bottle,boat,0,0483_sty_s03_0_boat_00_boat-0048-ILSVRC2012-val-00046387.png
subject-03,1,484,0.625897884368896,cat,cat,0,0484_sty_s03_0_cat_00_cat-0260-ILSVRC2012-val-00006612.png
subject-03,1,485,1.28138113021851,cat,oven,0,0485_sty_s03_0_oven_00_oven-0031-ILSVRC2012-val-00029125.png
subject-03,1,486,0.839380979537964,boat,bottle,0,0486_sty_s03_0_bottle_00_bottle-0057-ILSVRC2012-val-00005967.png
subject-03,1,487,1.18916797637939,knife,oven,0,0487_sty_s03_0_oven_00_oven-0050-ILSVRC2012-val-00049391.png
subject-03,1,488,0.6808180809021,cat,clock,0,0488_sty_s03_0_clock_00_clock-0080-ILSVRC2012-val-00032946.png
subject-03,1,489,0.820801019668579,bottle,bottle,0,0489_sty_s03_0_bottle_00_bottle-0218-ILSVRC2012-val-00013667.png
subject-03,1,490,0.948532819747925,cat,boat,0,0490_sty_s03_0_boat_00_boat-0086-ILSVRC2012-val-00039559.png
subject-03,1,491,0.988665103912354,oven,knife,0,0491_sty_s03_0_knife_00_knife-0048-ILSVRC2012-val-00048029.png
subject-03,1,492,0.860144853591919,elephant,elephant,0,0492_sty_s03_0_elephant_00_elephant-0002-ILSVRC2012-val-00001850.png
subject-03,1,493,0.748085975646973,dog,dog,0,0493_sty_s03_0_dog_00_dog-2094-ILSVRC2012-val-00044284.png
subject-03,1,494,0.807796955108643,truck,truck,0,0494_sty_s03_0_truck_00_truck-0315-ILSVRC2012-val-00021882.png
subject-03,1,495,0.765583992004395,clock,clock,0,0495_sty_s03_0_clock_00_clock-0020-ILSVRC2012-val-00016889.png
subject-03,1,496,1.0774450302124,car,keyboard,0,0496_sty_s03_0_keyboard_00_keyboard-0006-ILSVRC2012-val-00002499.png
subject-03,1,497,1.09510111808777,bear,bear,0,0497_sty_s03_0_bear_00_bear-0067-ILSVRC2012-val-00017273.png
subject-03,1,498,1.06298398971558,car,truck,0,0498_sty_s03_0_truck_00_truck-0310-ILSVRC2012-val-00016077.png
subject-03,1,499,1.49887490272522,dog,dog,0,0499_sty_s03_0_dog_00_dog-2129-ILSVRC2012-val-00025424.png
subject-03,1,500,1.20862603187561,keyboard,keyboard,0,0500_sty_s03_0_keyboard_00_keyboard-0024-ILSVRC2012-val-00025409.png
subject-03,1,501,0.70080304145813,clock,bottle,0,0501_sty_s03_0_bottle_00_bottle-0055-ILSVRC2012-val-00003066.png
subject-03,1,502,1.17657089233398,keyboard,knife,0,0502_sty_s03_0_knife_00_knife-0045-ILSVRC2012-val-00041660.png
subject-03,1,503,1.19018387794495,oven,chair,0,0503_sty_s03_0_chair_00_chair-0033-ILSVRC2012-val-00031805.png
subject-03,1,504,1.10415816307068,dog,dog,0,0504_sty_s03_0_dog_00_dog-1538-ILSVRC2012-val-00038167.png
subject-03,1,505,1.02374911308289,car,car,0,0505_sty_s03_0_car_00_car-0146-ILSVRC2012-val-00043297.png
subject-03,1,506,0.979439973831177,cat,bird,0,0506_sty_s03_0_bird_00_bird-2178-ILSVRC2012-val-00026510.png
subject-03,1,507,0.72918701171875,car,car,0,0507_sty_s03_0_car_00_car-0029-ILSVRC2012-val-00027081.png
subject-03,1,508,0.805150985717773,bicycle,bicycle,0,0508_sty_s03_0_bicycle_00_bicycle-0046-ILSVRC2012-val-00042496.png
subject-03,1,509,0.881055116653442,car,car,0,0509_sty_s03_0_car_00_car-0110-ILSVRC2012-val-00006285.png
subject-03,1,510,0.966836929321289,cat,cat,0,0510_sty_s03_0_cat_00_cat-0062-ILSVRC2012-val-00013788.png
subject-03,1,511,0.658572912216187,bird,bird,0,0511_sty_s03_0_bird_00_bird-0426-ILSVRC2012-val-00030017.png
subject-03,1,512,0.932352066040039,oven,clock,0,0512_sty_s03_0_clock_00_clock-0052-ILSVRC2012-val-00003721.png
subject-03,1,513,0.86248517036438,boat,bear,0,0513_sty_s03_0_bear_00_bear-0043-ILSVRC2012-val-00046763.png
subject-03,1,514,0.904473066329956,boat,airplane,0,0514_sty_s03_0_airplane_00_airplane-0039-ILSVRC2012-val-00037801.png
subject-03,1,515,0.794119119644165,bear,bear,0,0515_sty_s03_0_bear_00_bear-0184-ILSVRC2012-val-00038961.png
subject-03,1,516,0.825639009475708,airplane,airplane,0,0516_sty_s03_0_airplane_00_airplane-0001-ILSVRC2012-val-00000631.png
subject-03,1,517,1.00953817367554,car,boat,0,0517_sty_s03_0_boat_00_boat-0103-ILSVRC2012-val-00002308.png
subject-03,1,518,0.779415130615234,oven,oven,0,0518_sty_s03_0_oven_00_oven-0005-ILSVRC2012-val-00004125.png
subject-03,1,519,0.881114959716797,oven,truck,0,0519_sty_s03_0_truck_00_truck-0177-ILSVRC2012-val-00027892.png
subject-03,1,520,0.809029102325439,car,car,0,0520_sty_s03_0_car_00_car-0065-ILSVRC2012-val-00016613.png
subject-03,1,521,0.814597129821777,keyboard,keyboard,0,0521_sty_s03_0_keyboard_00_keyboard-0086-ILSVRC2012-val-00037986.png
subject-03,1,522,0.906808853149414,car,truck,0,0522_sty_s03_0_truck_00_truck-0307-ILSVRC2012-val-00012703.png
subject-03,1,523,1.00038814544678,car,boat,0,0523_sty_s03_0_boat_00_boat-0172-ILSVRC2012-val-00020894.png
subject-03,1,524,1.36406087875366,keyboard,bird,0,0524_sty_s03_0_bird_00_bird-1861-ILSVRC2012-val-00007811.png
subject-03,1,525,1.21389102935791,keyboard,keyboard,0,0525_sty_s03_0_keyboard_00_keyboard-0005-ILSVRC2012-val-00001687.png
subject-03,1,526,0.735666990280151,bear,bear,0,0526_sty_s03_0_bear_00_bear-0031-ILSVRC2012-val-00039777.png
subject-03,1,527,0.867594957351685,bear,knife,0,0527_sty_s03_0_knife_00_knife-0050-ILSVRC2012-val-00048891.png
subject-03,1,528,0.725693941116333,bird,bird,0,0528_sty_s03_0_bird_00_bird-0701-ILSVRC2012-val-00000075.png
subject-03,1,529,0.669056177139282,chair,chair,0,0529_sty_s03_0_chair_00_chair-0127-ILSVRC2012-val-00024620.png
subject-03,1,530,0.781031131744385,oven,oven,0,0530_sty_s03_0_oven_00_oven-0048-ILSVRC2012-val-00048271.png
subject-03,1,531,1.10067510604858,bicycle,bicycle,0,0531_sty_s03_0_bicycle_00_bicycle-0008-ILSVRC2012-val-00008007.png
subject-03,1,532,1.00448608398438,bear,elephant,0,0532_sty_s03_0_elephant_00_elephant-0029-ILSVRC2012-val-00027259.png
subject-03,1,533,1.26037406921387,keyboard,chair,0,0533_sty_s03_0_chair_00_chair-0122-ILSVRC2012-val-00019867.png
subject-03,1,534,0.776279211044312,oven,airplane,0,0534_sty_s03_0_airplane_00_airplane-0042-ILSVRC2012-val-00040547.png
subject-03,1,535,0.897933006286621,oven,truck,0,0535_sty_s03_0_truck_00_truck-0373-ILSVRC2012-val-00019053.png
subject-03,1,536,1.01401400566101,truck,boat,0,0536_sty_s03_0_boat_00_boat-0165-ILSVRC2012-val-00014242.png
subject-03,1,537,1.00585293769836,bear,bear,0,0537_sty_s03_0_bear_00_bear-0009-ILSVRC2012-val-00011967.png
subject-03,1,538,1.40145611763,keyboard,chair,0,0538_sty_s03_0_chair_00_chair-0189-ILSVRC2012-val-00041883.png
subject-03,1,539,0.937328815460205,bear,elephant,0,0539_sty_s03_0_elephant_00_elephant-0081-ILSVRC2012-val-00032404.png
subject-03,1,540,0.793056011199951,cat,bottle,0,0540_sty_s03_0_bottle_00_bottle-0296-ILSVRC2012-val-00044906.png
subject-03,1,541,0.876834154129028,oven,oven,0,0541_sty_s03_0_oven_00_oven-0025-ILSVRC2012-val-00022348.png
subject-03,1,542,0.936982870101929,elephant,chair,0,0542_sty_s03_0_chair_00_chair-0188-ILSVRC2012-val-00041720.png
subject-03,1,543,0.732507944107056,bear,bear,0,0543_sty_s03_0_bear_00_bear-0094-ILSVRC2012-val-00043648.png
subject-03,1,544,0.806208848953247,oven,clock,0,0544_sty_s03_0_clock_00_clock-0092-ILSVRC2012-val-00044168.png
subject-03,1,545,0.618045806884766,boat,boat,0,0545_sty_s03_0_boat_00_boat-0077-ILSVRC2012-val-00021948.png
subject-03,1,546,0.978183031082153,cat,airplane,0,0546_sty_s03_0_airplane_00_airplane-0045-ILSVRC2012-val-00044253.png
subject-03,1,547,0.921902894973755,car,car,0,0547_sty_s03_0_car_00_car-0041-ILSVRC2012-val-00040706.png
subject-03,1,548,0.707706928253174,cat,cat,0,0548_sty_s03_0_cat_00_cat-0162-ILSVRC2012-val-00012173.png
subject-03,1,549,1.22153997421265,cat,keyboard,0,0549_sty_s03_0_keyboard_00_keyboard-0073-ILSVRC2012-val-00019503.png
subject-03,1,550,0.843368053436279,keyboard,truck,0,0550_sty_s03_0_truck_00_truck-0027-ILSVRC2012-val-00025838.png
subject-03,1,551,0.966864109039307,keyboard,airplane,0,0551_sty_s03_0_airplane_00_airplane-0028-ILSVRC2012-val-00028019.png
subject-03,1,552,0.942888021469116,keyboard,oven,0,0552_sty_s03_0_oven_00_oven-0036-ILSVRC2012-val-00035817.png
subject-03,1,553,0.692492961883545,car,car,0,0553_sty_s03_0_car_00_car-0093-ILSVRC2012-val-00038956.png
subject-03,1,554,0.720711946487427,cat,knife,0,0554_sty_s03_0_knife_00_knife-0005-ILSVRC2012-val-00003462.png
subject-03,1,555,1.04043984413147,dog,dog,0,0555_sty_s03_0_dog_00_dog-0220-ILSVRC2012-val-00017568.png
subject-03,1,556,0.85029411315918,car,car,0,0556_sty_s03_0_car_00_car-0010-ILSVRC2012-val-00012600.png
subject-03,1,557,0.987969875335693,keyboard,elephant,0,0557_sty_s03_0_elephant_00_elephant-0015-ILSVRC2012-val-00015520.png
subject-03,1,558,0.955695867538452,bear,bear,0,0558_sty_s03_0_bear_00_bear-0021-ILSVRC2012-val-00031253.png
subject-03,1,559,1.49144005775452,oven,dog,0,0559_sty_s03_0_dog_00_dog-2876-ILSVRC2012-val-00027038.png
subject-03,1,560,0.709328889846802,boat,boat,0,0560_sty_s03_0_boat_00_boat-0033-ILSVRC2012-val-00030824.png
subject-03,1,561,0.752993106842041,bear,bear,0,0561_sty_s03_0_bear_00_bear-0071-ILSVRC2012-val-00020050.png
subject-03,1,562,0.915141105651855,car,car,0,0562_sty_s03_0_car_00_car-0045-ILSVRC2012-val-00042416.png
subject-03,1,563,0.888849973678589,cat,chair,0,0563_sty_s03_0_chair_00_chair-0138-ILSVRC2012-val-00038750.png
subject-03,1,564,1.11282205581665,keyboard,clock,0,0564_sty_s03_0_clock_00_clock-0112-ILSVRC2012-val-00014635.png
subject-03,1,565,0.970395088195801,oven,boat,0,0565_sty_s03_0_boat_00_boat-0070-ILSVRC2012-val-00017026.png
subject-03,1,566,1.22606801986694,chair,airplane,0,0566_sty_s03_0_airplane_00_airplane-0013-ILSVRC2012-val-00015636.png
subject-03,1,567,0.747944831848145,cat,cat,0,0567_sty_s03_0_cat_00_cat-0294-ILSVRC2012-val-00037633.png
subject-03,1,568,0.891732931137085,cat,bear,0,0568_sty_s03_0_bear_00_bear-0132-ILSVRC2012-val-00036763.png
subject-03,1,569,0.991716861724854,cat,oven,0,0569_sty_s03_0_oven_00_oven-0039-ILSVRC2012-val-00038382.png
subject-03,1,570,0.91356897354126,dog,dog,0,0570_sty_s03_0_dog_00_dog-0247-ILSVRC2012-val-00045683.png
subject-03,1,571,0.899174928665161,cat,bottle,0,0571_sty_s03_0_bottle_00_bottle-0331-ILSVRC2012-val-00033990.png
subject-03,1,572,0.771285057067871,chair,chair,0,0572_sty_s03_0_chair_00_chair-0022-ILSVRC2012-val-00016403.png
subject-03,1,573,0.942965030670166,chair,chair,0,0573_sty_s03_0_chair_00_chair-0059-ILSVRC2012-val-00006022.png
subject-03,1,574,1.47895097732544,bottle,truck,0,0574_sty_s03_0_truck_00_truck-0022-ILSVRC2012-val-00023423.png
subject-03,1,575,1.07443618774414,cat,oven,0,0575_sty_s03_0_oven_00_oven-0022-ILSVRC2012-val-00020361.png
subject-03,1,576,1.3162260055542,dog,dog,0,0576_sty_s03_0_dog_00_dog-4009-ILSVRC2012-val-00007922.png
subject-03,1,577,1.18447613716125,bear,bear,0,0577_sty_s03_0_bear_00_bear-0058-ILSVRC2012-val-00011726.png
subject-03,1,578,1.08176183700562,dog,bird,0,0578_sty_s03_0_bird_00_bird-0175-ILSVRC2012-val-00018699.png
subject-03,1,579,0.827755928039551,dog,dog,0,0579_sty_s03_0_dog_00_dog-2629-ILSVRC2012-val-00030579.png
subject-03,1,580,0.925579071044922,bottle,knife,0,0580_sty_s03_0_knife_00_knife-0023-ILSVRC2012-val-00020998.png
subject-03,1,581,0.829324007034302,cat,cat,0,0581_sty_s03_0_cat_00_cat-0202-ILSVRC2012-val-00001496.png
subject-03,1,582,0.757260084152222,car,truck,0,0582_sty_s03_0_truck_00_truck-0121-ILSVRC2012-val-00018768.png
subject-03,1,583,1.14904284477234,oven,keyboard,0,0583_sty_s03_0_keyboard_00_keyboard-0013-ILSVRC2012-val-00012334.png
subject-03,1,584,0.706789016723633,cat,cat,0,0584_sty_s03_0_cat_00_cat-0284-ILSVRC2012-val-00027069.png
subject-03,1,585,0.820508003234863,bird,clock,0,0585_sty_s03_0_clock_00_clock-0143-ILSVRC2012-val-00041547.png
subject-03,1,586,0.898296117782593,bicycle,knife,0,0586_sty_s03_0_knife_00_knife-0015-ILSVRC2012-val-00011081.png
subject-03,1,587,1.09425520896912,oven,dog,0,0587_sty_s03_0_dog_00_dog-5267-ILSVRC2012-val-00013862.png
subject-03,1,588,0.766271829605103,bottle,bottle,0,0588_sty_s03_0_bottle_00_bottle-0172-ILSVRC2012-val-00021707.png
subject-03,1,589,0.849693059921265,oven,oven,0,0589_sty_s03_0_oven_00_oven-0044-ILSVRC2012-val-00041974.png
subject-03,1,590,1.18562197685242,knife,bicycle,0,0590_sty_s03_0_bicycle_00_bicycle-0056-ILSVRC2012-val-00005330.png
subject-03,1,591,1.17560195922852,airplane,elephant,0,0591_sty_s03_0_elephant_00_elephant-0011-ILSVRC2012-val-00011247.png
subject-03,1,592,0.813385963439941,cat,cat,0,0592_sty_s03_0_cat_00_cat-0113-ILSVRC2012-val-00007808.png
subject-03,1,593,1.10504794120789,cat,bottle,0,0593_sty_s03_0_bottle_00_bottle-0039-ILSVRC2012-val-00038570.png
subject-03,1,594,0.846923112869263,bottle,bottle,0,0594_sty_s03_0_bottle_00_bottle-0011-ILSVRC2012-val-00009225.png
subject-03,1,595,0.684821128845215,bottle,knife,0,0595_sty_s03_0_knife_00_knife-0026-ILSVRC2012-val-00024520.png
subject-03,1,596,0.880497932434082,oven,chair,0,0596_sty_s03_0_chair_00_chair-0172-ILSVRC2012-val-00023378.png
subject-03,1,597,0.660268068313599,clock,bottle,0,0597_sty_s03_0_bottle_00_bottle-0052-ILSVRC2012-val-00000252.png
subject-03,1,598,0.720063924789429,oven,cat,0,0598_sty_s03_0_cat_00_cat-0054-ILSVRC2012-val-00003295.png
subject-03,1,599,0.855870008468628,cat,boat,0,0599_sty_s03_0_boat_00_boat-0243-ILSVRC2012-val-00039131.png
subject-03,1,600,0.745839834213257,cat,boat,0,0600_sty_s03_0_boat_00_boat-0236-ILSVRC2012-val-00032584.png
subject-03,1,601,1.13365387916565,bicycle,bicycle,0,0601_sty_s03_0_bicycle_00_bicycle-0043-ILSVRC2012-val-00038415.png
subject-03,1,602,0.885284900665283,cat,keyboard,0,0602_sty_s03_0_keyboard_00_keyboard-0092-ILSVRC2012-val-00044775.png
subject-03,1,603,0.901255130767822,cat,elephant,0,0603_sty_s03_0_elephant_00_elephant-0004-ILSVRC2012-val-00004882.png
subject-03,1,604,0.620965003967285,cat,cat,0,0604_sty_s03_0_cat_00_cat-0247-ILSVRC2012-val-00044374.png
subject-03,1,605,1.09466195106506,cat,oven,0,0605_sty_s03_0_oven_00_oven-0009-ILSVRC2012-val-00007132.png
subject-03,1,606,0.734707117080688,airplane,airplane,0,0606_sty_s03_0_airplane_00_airplane-0007-ILSVRC2012-val-00009537.png
subject-03,1,607,1.06278204917908,oven,airplane,0,0607_sty_s03_0_airplane_00_airplane-0021-ILSVRC2012-val-00023316.png
subject-03,1,608,1.20817685127258,bicycle,bicycle,0,0608_sty_s03_0_bicycle_00_bicycle-0050-ILSVRC2012-val-00049382.png
subject-03,1,609,0.807912826538086,bottle,keyboard,0,0609_sty_s03_0_keyboard_00_keyboard-0059-ILSVRC2012-val-00007856.png
subject-03,1,610,1.21810007095337,bottle,bottle,0,0610_sty_s03_0_bottle_00_bottle-0153-ILSVRC2012-val-00003318.png
subject-03,1,611,0.697856187820435,oven,oven,0,0611_sty_s03_0_oven_00_oven-0008-ILSVRC2012-val-00007052.png
subject-03,1,612,0.955896139144897,bottle,keyboard,0,0612_sty_s03_0_keyboard_00_keyboard-0016-ILSVRC2012-val-00014436.png
subject-03,1,613,0.709336042404175,oven,knife,0,0613_sty_s03_0_knife_00_knife-0030-ILSVRC2012-val-00027427.png
subject-03,1,614,1.50000309944153,bottle,keyboard,0,0614_sty_s03_0_keyboard_00_keyboard-0054-ILSVRC2012-val-00001100.png
subject-03,1,615,0.762784957885742,oven,car,0,0615_sty_s03_0_car_00_car-0012-ILSVRC2012-val-00014447.png
subject-03,1,616,0.766924858093262,truck,truck,0,0616_sty_s03_0_truck_00_truck-0094-ILSVRC2012-val-00042802.png
subject-03,1,617,0.782593011856079,cat,cat,0,0617_sty_s03_0_cat_00_cat-0092-ILSVRC2012-val-00039621.png
subject-03,1,618,1.10222291946411,keyboard,bottle,0,0618_sty_s03_0_bottle_00_bottle-0022-ILSVRC2012-val-00022396.png
subject-03,1,619,0.864099979400635,dog,dog,0,0619_sty_s03_0_dog_00_dog-0099-ILSVRC2012-val-00048280.png
subject-03,1,620,1.27809596061707,dog,dog,0,0620_sty_s03_0_dog_00_dog-2391-ILSVRC2012-val-00039144.png
subject-03,1,621,1.07988905906677,oven,oven,0,0621_sty_s03_0_oven_00_oven-0045-ILSVRC2012-val-00045813.png
subject-03,1,622,1.48370289802551,oven,boat,0,0622_sty_s03_0_boat_00_boat-0244-ILSVRC2012-val-00040974.png
subject-03,1,623,1.16751790046692,bird,bottle,0,0623_sty_s03_0_bottle_00_bottle-0108-ILSVRC2012-val-00008437.png
subject-03,1,624,0.969179153442383,dog,boat,0,0624_sty_s03_0_boat_00_boat-0039-ILSVRC2012-val-00033883.png
subject-03,1,625,0.785094022750854,oven,oven,0,0625_sty_s03_0_oven_00_oven-0014-ILSVRC2012-val-00012082.png
subject-03,1,626,0.785010099411011,cat,oven,0,0626_sty_s03_0_oven_00_oven-0001-ILSVRC2012-val-00001625.png
subject-03,1,627,0.670735836029053,oven,bird,0,0627_sty_s03_0_bird_00_bird-1052-ILSVRC2012-val-00003884.png
subject-03,1,628,0.848713874816895,clock,clock,0,0628_sty_s03_0_clock_00_clock-0043-ILSVRC2012-val-00041613.png
subject-03,1,629,0.77022910118103,bear,bear,0,0629_sty_s03_0_bear_00_bear-0052-ILSVRC2012-val-00000865.png
subject-03,1,630,1.48210096359253,clock,clock,0,0630_sty_s03_0_clock_00_clock-0108-ILSVRC2012-val-00011957.png
subject-03,1,631,0.829910039901733,bicycle,bicycle,0,0631_sty_s03_0_bicycle_00_bicycle-0080-ILSVRC2012-val-00032009.png
subject-03,1,632,1.01760315895081,cat,cat,0,0632_sty_s03_0_cat_00_cat-0150-ILSVRC2012-val-00049996.png
subject-03,1,633,0.751469850540161,oven,boat,0,0633_sty_s03_0_boat_00_boat-0225-ILSVRC2012-val-00022075.png
subject-03,1,634,0.967391014099121,oven,car,0,0634_sty_s03_0_car_00_car-0050-ILSVRC2012-val-00048556.png
subject-03,1,635,0.967305183410645,dog,knife,0,0635_sty_s03_0_knife_00_knife-0007-ILSVRC2012-val-00004815.png
subject-03,1,636,1.02123403549194,cat,clock,0,0636_sty_s03_0_clock_00_clock-0045-ILSVRC2012-val-00043497.png
subject-03,1,637,0.750647068023682,clock,clock,0,0637_sty_s03_0_clock_00_clock-0082-ILSVRC2012-val-00033627.png
subject-03,1,638,0.820892095565796,bear,bear,0,0638_sty_s03_0_bear_00_bear-0005-ILSVRC2012-val-00006703.png
subject-03,1,639,0.724532842636108,oven,bear,0,0639_sty_s03_0_bear_00_bear-0129-ILSVRC2012-val-00030485.png
subject-03,1,640,0.942438125610352,boat,bicycle,0,0640_sty_s03_0_bicycle_00_bicycle-0005-ILSVRC2012-val-00005274.png
subject-03,1,641,0.686583042144775,bird,bird,0,0641_sty_s03_0_bird_00_bird-0119-ILSVRC2012-val-00016252.png
subject-03,1,642,0.710237979888916,clock,bottle,0,0642_sty_s03_0_bottle_00_bottle-0059-ILSVRC2012-val-00008984.png
subject-03,1,643,0.87610912322998,bicycle,bicycle,0,0643_sty_s03_0_bicycle_00_bicycle-0054-ILSVRC2012-val-00004147.png
subject-03,1,644,0.743849992752075,oven,oven,0,0644_sty_s03_0_oven_00_oven-0034-ILSVRC2012-val-00033304.png
subject-03,1,645,0.747678995132446,cat,bottle,0,0645_sty_s03_0_bottle_00_bottle-0283-ILSVRC2012-val-00036864.png
subject-03,1,646,0.659696102142334,cat,bottle,0,0646_sty_s03_0_bottle_00_bottle-0222-ILSVRC2012-val-00018657.png
subject-03,1,647,0.767468929290771,boat,oven,0,0647_sty_s03_0_oven_00_oven-0013-ILSVRC2012-val-00011779.png
subject-03,1,648,0.775096893310547,cat,bicycle,0,0648_sty_s03_0_bicycle_00_bicycle-0030-ILSVRC2012-val-00027620.png
subject-03,1,649,0.619110107421875,cat,cat,0,0649_sty_s03_0_cat_00_cat-0274-ILSVRC2012-val-00019370.png
subject-03,1,650,0.819087028503418,car,car,0,0650_sty_s03_0_car_00_car-0060-ILSVRC2012-val-00014208.png
subject-03,1,651,0.696935176849365,cat,cat,0,0651_sty_s03_0_cat_00_cat-0108-ILSVRC2012-val-00002967.png
subject-03,1,652,0.752384901046753,car,car,0,0652_sty_s03_0_car_00_car-0028-ILSVRC2012-val-00027049.png
subject-03,1,653,0.672167062759399,oven,car,0,0653_sty_s03_0_car_00_car-0096-ILSVRC2012-val-00043824.png
subject-03,1,654,0.83416485786438,airplane,airplane,0,0654_sty_s03_0_airplane_00_airplane-0025-ILSVRC2012-val-00024747.png
subject-03,1,655,1.14786505699158,bottle,bottle,0,0655_sty_s03_0_bottle_00_bottle-0126-ILSVRC2012-val-00022079.png
subject-03,1,656,0.941653966903687,elephant,elephant,0,0656_sty_s03_0_elephant_00_elephant-0009-ILSVRC2012-val-00010713.png
subject-03,1,657,1.02948188781738,airplane,airplane,0,0657_sty_s03_0_airplane_00_airplane-0022-ILSVRC2012-val-00023781.png
subject-03,1,658,0.981473922729492,oven,knife,0,0658_sty_s03_0_knife_00_knife-0009-ILSVRC2012-val-00008526.png
subject-03,1,659,0.883195877075195,car,truck,0,0659_sty_s03_0_truck_00_truck-0215-ILSVRC2012-val-00017360.png
subject-03,1,660,0.728852033615112,oven,bicycle,0,0660_sty_s03_0_bicycle_00_bicycle-0044-ILSVRC2012-val-00040027.png
subject-03,1,661,0.812613010406494,car,truck,0,0661_sty_s03_0_truck_00_truck-0084-ILSVRC2012-val-00034001.png
subject-03,1,662,0.782620906829834,bicycle,bicycle,0,0662_sty_s03_0_bicycle_00_bicycle-0035-ILSVRC2012-val-00033559.png
subject-03,1,663,0.726269960403442,boat,bicycle,0,0663_sty_s03_0_bicycle_00_bicycle-0037-ILSVRC2012-val-00036009.png
subject-03,1,664,0.984111785888672,keyboard,boat,0,0664_sty_s03_0_boat_00_boat-0181-ILSVRC2012-val-00031072.png
subject-03,1,665,0.6700599193573,cat,cat,0,0665_sty_s03_0_cat_00_cat-0243-ILSVRC2012-val-00040600.png
subject-03,1,666,0.69784688949585,boat,boat,0,0666_sty_s03_0_boat_00_boat-0011-ILSVRC2012-val-00011563.png
subject-03,1,667,0.721641063690186,oven,chair,0,0667_sty_s03_0_chair_00_chair-0081-ILSVRC2012-val-00033069.png
subject-03,1,668,0.757444143295288,oven,oven,0,0668_sty_s03_0_oven_00_oven-0003-ILSVRC2012-val-00002864.png
subject-03,1,669,1.00717306137085,elephant,elephant,0,0669_sty_s03_0_elephant_00_elephant-0021-ILSVRC2012-val-00021618.png
subject-03,1,670,1.23136782646179,keyboard,keyboard,0,0670_sty_s03_0_keyboard_00_keyboard-0025-ILSVRC2012-val-00026405.png
subject-03,1,671,0.580978870391846,clock,clock,0,0671_sty_s03_0_clock_00_clock-0001-ILSVRC2012-val-00001011.png
subject-03,1,672,0.710810899734497,bear,bear,0,0672_sty_s03_0_bear_00_bear-0049-ILSVRC2012-val-00049822.png
subject-03,1,673,1.06677293777466,chair,chair,0,0673_sty_s03_0_chair_00_chair-0118-ILSVRC2012-val-00018123.png
subject-03,1,674,0.842110872268677,bear,car,0,0674_sty_s03_0_car_00_car-0083-ILSVRC2012-val-00027508.png
subject-03,1,675,0.812098026275635,oven,bird,0,0675_sty_s03_0_bird_00_bird-0513-ILSVRC2012-val-00013223.png
subject-03,1,676,0.873872995376587,keyboard,airplane,0,0676_sty_s03_0_airplane_00_airplane-0036-ILSVRC2012-val-00034342.png
subject-03,1,677,1.25763583183289,keyboard,bear,0,0677_sty_s03_0_bear_00_bear-0114-ILSVRC2012-val-00017605.png
subject-03,1,678,0.982028961181641,cat,airplane,0,0678_sty_s03_0_airplane_00_airplane-0026-ILSVRC2012-val-00026189.png
subject-03,1,679,NaN,na,bird,0,0679_sty_s03_0_bird_00_bird-2410-ILSVRC2012-val-00010355.png
subject-03,1,680,0.741529941558838,oven,cat,0,0680_sty_s03_0_cat_00_cat-0258-ILSVRC2012-val-00006112.png
subject-03,1,681,0.5992591381073,bear,bicycle,0,0681_sty_s03_0_bicycle_00_bicycle-0067-ILSVRC2012-val-00018304.png
subject-03,1,682,0.872766017913818,oven,bird,0,0682_sty_s03_0_bird_00_bird-2184-ILSVRC2012-val-00034910.png
subject-03,1,683,0.556696891784668,cat,dog,0,0683_sty_s03_0_dog_00_dog-4689-ILSVRC2012-val-00034291.png
subject-03,1,684,0.650293111801147,clock,clock,0,0684_sty_s03_0_clock_00_clock-0039-ILSVRC2012-val-00033429.png
subject-03,1,685,0.888663053512573,car,car,0,0685_sty_s03_0_car_00_car-0053-ILSVRC2012-val-00004685.png
subject-03,1,686,0.598417997360229,oven,keyboard,0,0686_sty_s03_0_keyboard_00_keyboard-0030-ILSVRC2012-val-00029239.png
subject-03,1,687,0.759891986846924,oven,knife,0,0687_sty_s03_0_knife_00_knife-0035-ILSVRC2012-val-00029833.png
subject-03,1,688,0.763822793960571,cat,cat,0,0688_sty_s03_0_cat_00_cat-0264-ILSVRC2012-val-00010823.png
subject-03,1,689,0.957483053207397,keyboard,oven,0,0689_sty_s03_0_oven_00_oven-0002-ILSVRC2012-val-00002517.png
subject-03,1,690,0.80729603767395,oven,dog,0,0690_sty_s03_0_dog_00_dog-3412-ILSVRC2012-val-00014775.png
subject-03,1,691,0.832962036132812,cat,keyboard,0,0691_sty_s03_0_keyboard_00_keyboard-0022-ILSVRC2012-val-00021913.png
subject-03,1,692,0.712888956069946,keyboard,keyboard,0,0692_sty_s03_0_keyboard_00_keyboard-0029-ILSVRC2012-val-00027307.png
subject-03,1,693,0.858596086502075,oven,elephant,0,0693_sty_s03_0_elephant_00_elephant-0032-ILSVRC2012-val-00030248.png
subject-03,1,694,1.06279182434082,bicycle,bicycle,0,0694_sty_s03_0_bicycle_00_bicycle-0010-ILSVRC2012-val-00010544.png
subject-03,1,695,0.748245000839233,car,car,0,0695_sty_s03_0_car_00_car-0064-ILSVRC2012-val-00016337.png
subject-03,1,696,1.06020092964172,car,airplane,0,0696_sty_s03_0_airplane_00_airplane-0014-ILSVRC2012-val-00016995.png
subject-03,1,697,0.755964040756226,oven,bicycle,0,0697_sty_s03_0_bicycle_00_bicycle-0061-ILSVRC2012-val-00012096.png
subject-03,1,698,0.73782205581665,oven,oven,0,0698_sty_s03_0_oven_00_oven-0006-ILSVRC2012-val-00004891.png
subject-03,1,699,0.729542016983032,oven,bird,0,0699_sty_s03_0_bird_00_bird-1188-ILSVRC2012-val-00040014.png
subject-03,1,700,0.799624919891357,oven,chair,0,0700_sty_s03_0_chair_00_chair-0018-ILSVRC2012-val-00013838.png
subject-03,1,701,1.12507390975952,bear,oven,0,0701_sty_s03_0_oven_00_oven-0047-ILSVRC2012-val-00047123.png
subject-03,1,702,0.758967876434326,boat,bottle,0,0702_sty_s03_0_bottle_00_bottle-0138-ILSVRC2012-val-00032559.png
subject-03,1,703,0.7711341381073,clock,clock,0,0703_sty_s03_0_clock_00_clock-0142-ILSVRC2012-val-00041461.png
subject-03,1,704,0.592741012573242,cat,cat,0,0704_sty_s03_0_cat_00_cat-0189-ILSVRC2012-val-00040854.png
subject-03,1,705,0.756571054458618,clock,knife,0,0705_sty_s03_0_knife_00_knife-0049-ILSVRC2012-val-00048820.png
subject-03,1,706,0.874377965927124,elephant,dog,0,0706_sty_s03_0_dog_00_dog-2290-ILSVRC2012-val-00036919.png
subject-03,1,707,1.03632593154907,airplane,airplane,0,0707_sty_s03_0_airplane_00_airplane-0033-ILSVRC2012-val-00033161.png
subject-03,1,708,0.969980001449585,bottle,truck,0,0708_sty_s03_0_truck_00_truck-0185-ILSVRC2012-val-00033804.png
subject-03,1,709,1.0037829875946,bottle,bicycle,0,0709_sty_s03_0_bicycle_00_bicycle-0033-ILSVRC2012-val-00031498.png
subject-03,1,710,0.641762018203735,oven,airplane,0,0710_sty_s03_0_airplane_00_airplane-0043-ILSVRC2012-val-00041518.png
subject-03,1,711,0.731200933456421,cat,knife,0,0711_sty_s03_0_knife_00_knife-0003-ILSVRC2012-val-00001964.png
subject-03,1,712,0.627151966094971,clock,clock,0,0712_sty_s03_0_clock_00_clock-0028-ILSVRC2012-val-00021179.png
subject-03,1,713,0.98682689666748,elephant,elephant,0,0713_sty_s03_0_elephant_00_elephant-0043-ILSVRC2012-val-00040923.png
subject-03,1,714,1.11095309257507,bear,oven,0,0714_sty_s03_0_oven_00_oven-0043-ILSVRC2012-val-00041628.png
subject-03,1,715,0.826772212982178,elephant,elephant,0,0715_sty_s03_0_elephant_00_elephant-0069-ILSVRC2012-val-00017097.png
subject-03,1,716,0.740331172943115,bottle,bottle,0,0716_sty_s03_0_bottle_00_bottle-0006-ILSVRC2012-val-00004888.png
subject-03,1,717,0.910299062728882,elephant,elephant,0,0717_sty_s03_0_elephant_00_elephant-0058-ILSVRC2012-val-00004990.png
subject-03,1,718,0.739905834197998,oven,airplane,0,0718_sty_s03_0_airplane_00_airplane-0018-ILSVRC2012-val-00019677.png
subject-03,1,719,0.815713882446289,clock,clock,0,0719_sty_s03_0_clock_00_clock-0048-ILSVRC2012-val-00044752.png
subject-03,1,720,0.721538066864014,bird,bird,0,0720_sty_s03_0_bird_00_bird-1198-ILSVRC2012-val-00048142.png
subject-03,1,721,0.891422986984253,knife,knife,0,0721_sty_s03_0_knife_00_knife-0002-ILSVRC2012-val-00000582.png
subject-03,1,722,1.46136999130249,oven,boat,0,0722_sty_s03_0_boat_00_boat-0137-ILSVRC2012-val-00035374.png
subject-03,1,723,1.3830931186676,oven,bear,0,0723_sty_s03_0_bear_00_bear-0154-ILSVRC2012-val-00003499.png
subject-03,1,724,0.912914991378784,oven,airplane,0,0724_sty_s03_0_airplane_00_airplane-0047-ILSVRC2012-val-00046971.png
subject-03,1,725,1.05458998680115,knife,airplane,0,0725_sty_s03_0_airplane_00_airplane-0004-ILSVRC2012-val-00001952.png
subject-03,1,726,0.88250994682312,bottle,bottle,0,0726_sty_s03_0_bottle_00_bottle-0243-ILSVRC2012-val-00040157.png
subject-03,1,727,0.772608041763306,keyboard,keyboard,0,0727_sty_s03_0_keyboard_00_keyboard-0074-ILSVRC2012-val-00020967.png
subject-03,1,728,0.778181076049805,bottle,keyboard,0,0728_sty_s03_0_keyboard_00_keyboard-0088-ILSVRC2012-val-00041420.png
subject-03,1,729,1.095782995224,keyboard,chair,0,0729_sty_s03_0_chair_00_chair-0192-ILSVRC2012-val-00043870.png
subject-03,1,730,1.47170615196228,oven,car,0,0730_sty_s03_0_car_00_car-0052-ILSVRC2012-val-00004387.png
subject-03,1,731,1.0934681892395,oven,knife,0,0731_sty_s03_0_knife_00_knife-0006-ILSVRC2012-val-00004379.png
subject-03,1,732,0.585524082183838,cat,cat,0,0732_sty_s03_0_cat_00_cat-0242-ILSVRC2012-val-00040192.png
subject-03,1,733,0.685054779052734,oven,bottle,0,0733_sty_s03_0_bottle_00_bottle-0086-ILSVRC2012-val-00036795.png
subject-03,1,734,0.814883947372437,keyboard,airplane,0,0734_sty_s03_0_airplane_00_airplane-0016-ILSVRC2012-val-00018685.png
subject-03,1,735,0.627032995223999,car,car,0,0735_sty_s03_0_car_00_car-0021-ILSVRC2012-val-00019695.png
subject-03,1,736,0.710767030715942,keyboard,knife,0,0736_sty_s03_0_knife_00_knife-0037-ILSVRC2012-val-00034765.png
subject-03,1,737,1.07637214660645,keyboard,car,0,0737_sty_s03_0_car_00_car-0082-ILSVRC2012-val-00027293.png
subject-03,1,738,0.994055032730103,car,car,0,0738_sty_s03_0_car_00_car-0004-ILSVRC2012-val-00006084.png
subject-03,1,739,1.21010398864746,clock,clock,0,0739_sty_s03_0_clock_00_clock-0025-ILSVRC2012-val-00019663.png
subject-03,1,740,0.907788991928101,car,bicycle,0,0740_sty_s03_0_bicycle_00_bicycle-0064-ILSVRC2012-val-00017103.png
subject-03,1,741,0.811543941497803,cat,knife,0,0741_sty_s03_0_knife_00_knife-0022-ILSVRC2012-val-00019358.png
subject-03,1,742,0.73335599899292,oven,bottle,0,0742_sty_s03_0_bottle_00_bottle-0002-ILSVRC2012-val-00002968.png
subject-03,1,743,0.721125841140747,car,truck,0,0743_sty_s03_0_truck_00_truck-0107-ILSVRC2012-val-00007374.png
subject-03,1,744,1.14899301528931,car,bottle,0,0744_sty_s03_0_bottle_00_bottle-0233-ILSVRC2012-val-00031504.png
subject-03,1,745,0.767246961593628,boat,boat,0,0745_sty_s03_0_boat_00_boat-0153-ILSVRC2012-val-00002696.png
subject-03,1,746,1.03866004943848,cat,oven,0,0746_sty_s03_0_oven_00_oven-0035-ILSVRC2012-val-00034788.png
subject-03,1,747,0.920460939407349,cat,oven,0,0747_sty_s03_0_oven_00_oven-0024-ILSVRC2012-val-00021187.png
subject-03,1,748,0.880476951599121,oven,clock,0,0748_sty_s03_0_clock_00_clock-0032-ILSVRC2012-val-00024425.png
subject-03,1,749,1.23421192169189,oven,dog,0,0749_sty_s03_0_dog_00_dog-2195-ILSVRC2012-val-00046002.png
subject-03,1,750,0.735904932022095,dog,dog,0,0750_sty_s03_0_dog_00_dog-4914-ILSVRC2012-val-00011316.png
subject-03,1,751,0.799830913543701,bicycle,bicycle,0,0751_sty_s03_0_bicycle_00_bicycle-0020-ILSVRC2012-val-00022027.png
subject-03,1,752,1.02765297889709,oven,chair,0,0752_sty_s03_0_chair_00_chair-0030-ILSVRC2012-val-00026896.png
subject-03,1,753,0.939795017242432,airplane,keyboard,0,0753_sty_s03_0_keyboard_00_keyboard-0056-ILSVRC2012-val-00003296.png
subject-03,1,754,0.753207921981812,oven,knife,0,0754_sty_s03_0_knife_00_knife-0034-ILSVRC2012-val-00029248.png
subject-03,1,755,0.872859001159668,bottle,airplane,0,0755_sty_s03_0_airplane_00_airplane-0041-ILSVRC2012-val-00040136.png
subject-03,1,756,0.888907909393311,boat,boat,0,0756_sty_s03_0_boat_00_boat-0036-ILSVRC2012-val-00032433.png
subject-03,1,757,0.646653890609741,bottle,keyboard,0,0757_sty_s03_0_keyboard_00_keyboard-0015-ILSVRC2012-val-00012808.png
subject-03,1,758,0.840350866317749,bottle,boat,0,0758_sty_s03_0_boat_00_boat-0169-ILSVRC2012-val-00019970.png
subject-03,1,759,0.870359897613525,bicycle,bicycle,0,0759_sty_s03_0_bicycle_00_bicycle-0100-ILSVRC2012-val-00049750.png
subject-03,1,760,0.822487831115723,bottle,airplane,0,0760_sty_s03_0_airplane_00_airplane-0020-ILSVRC2012-val-00022975.png
subject-03,1,761,0.847754001617432,keyboard,keyboard,0,0761_sty_s03_0_keyboard_00_keyboard-0067-ILSVRC2012-val-00013266.png
subject-03,1,762,1.1721670627594,cat,cat,0,0762_sty_s03_0_cat_00_cat-0073-ILSVRC2012-val-00020140.png
subject-03,1,763,0.841896057128906,dog,elephant,0,0763_sty_s03_0_elephant_00_elephant-0080-ILSVRC2012-val-00030840.png
subject-03,1,764,0.817723035812378,keyboard,boat,0,0764_sty_s03_0_boat_00_boat-0196-ILSVRC2012-val-00042675.png
subject-03,1,765,1.05126810073853,chair,chair,0,0765_sty_s03_0_chair_00_chair-0085-ILSVRC2012-val-00036175.png
subject-03,1,766,0.714838027954102,boat,chair,0,0766_sty_s03_0_chair_00_chair-0124-ILSVRC2012-val-00022208.png
subject-03,1,767,0.744748830795288,clock,clock,0,0767_sty_s03_0_clock_00_clock-0018-ILSVRC2012-val-00015871.png
subject-03,1,768,0.954603910446167,dog,dog,0,0768_sty_s03_0_dog_00_dog-1178-ILSVRC2012-val-00022137.png
subject-03,1,769,0.672580003738403,keyboard,knife,0,0769_sty_s03_0_knife_00_knife-0025-ILSVRC2012-val-00022700.png
subject-03,1,770,0.966202020645142,oven,chair,0,0770_sty_s03_0_chair_00_chair-0195-ILSVRC2012-val-00045464.png
subject-03,1,771,0.846097946166992,keyboard,boat,0,0771_sty_s03_0_boat_00_boat-0179-ILSVRC2012-val-00026763.png
subject-03,1,772,0.815845966339111,bear,bear,0,0772_sty_s03_0_bear_00_bear-0085-ILSVRC2012-val-00035292.png
subject-03,1,773,0.773478984832764,oven,dog,0,0773_sty_s03_0_dog_00_dog-2321-ILSVRC2012-val-00015164.png
subject-03,1,774,0.735413074493408,oven,chair,0,0774_sty_s03_0_chair_00_chair-0160-ILSVRC2012-val-00012040.png
subject-03,1,775,0.943246126174927,bicycle,bicycle,0,0775_sty_s03_0_bicycle_00_bicycle-0048-ILSVRC2012-val-00045400.png
subject-03,1,776,1.32281589508057,keyboard,airplane,0,0776_sty_s03_0_airplane_00_airplane-0032-ILSVRC2012-val-00032804.png
subject-03,1,777,0.88474702835083,cat,cat,0,0777_sty_s03_0_cat_00_cat-0169-ILSVRC2012-val-00020688.png
subject-03,1,778,1.10652995109558,cat,dog,0,0778_sty_s03_0_dog_00_dog-4933-ILSVRC2012-val-00033357.png
subject-03,1,779,0.910591840744019,bird,bird,0,0779_sty_s03_0_bird_00_bird-0009-ILSVRC2012-val-00007530.png
subject-03,1,780,0.798138856887817,bicycle,bicycle,0,0780_sty_s03_0_bicycle_00_bicycle-0085-ILSVRC2012-val-00037438.png
subject-03,1,781,1.04014492034912,bird,oven,0,0781_sty_s03_0_oven_00_oven-0021-ILSVRC2012-val-00019775.png
subject-03,1,782,1.16399216651917,cat,bottle,0,0782_sty_s03_0_bottle_00_bottle-0334-ILSVRC2012-val-00036776.png
subject-03,1,783,0.919780969619751,bicycle,bicycle,0,0783_sty_s03_0_bicycle_00_bicycle-0079-ILSVRC2012-val-00031485.png
subject-03,1,784,1.06151700019836,car,car,0,0784_sty_s03_0_car_00_car-0139-ILSVRC2012-val-00037952.png
subject-03,1,785,0.953354120254517,bird,bird,0,0785_sty_s03_0_bird_00_bird-1646-ILSVRC2012-val-00039398.png
subject-03,1,786,0.983126878738403,bear,bear,0,0786_sty_s03_0_bear_00_bear-0062-ILSVRC2012-val-00014029.png
subject-03,1,787,1.03095412254333,cat,chair,0,0787_sty_s03_0_chair_00_chair-0050-ILSVRC2012-val-00049050.png
subject-03,1,788,0.676737070083618,oven,clock,0,0788_sty_s03_0_clock_00_clock-0062-ILSVRC2012-val-00014987.png
subject-03,1,789,0.712836980819702,cat,keyboard,0,0789_sty_s03_0_keyboard_00_keyboard-0062-ILSVRC2012-val-00008632.png
subject-03,1,790,0.712393999099731,bear,bear,0,0790_sty_s03_0_bear_00_bear-0131-ILSVRC2012-val-00031877.png
subject-03,1,791,1.01650786399841,cat,bottle,0,0791_sty_s03_0_bottle_00_bottle-0216-ILSVRC2012-val-00013262.png
subject-03,1,792,0.848138809204102,keyboard,keyboard,0,0792_sty_s03_0_keyboard_00_keyboard-0076-ILSVRC2012-val-00022077.png
subject-03,1,793,0.901714086532593,oven,bicycle,0,0793_sty_s03_0_bicycle_00_bicycle-0016-ILSVRC2012-val-00016532.png
subject-03,1,794,0.799685001373291,car,car,0,0794_sty_s03_0_car_00_car-0030-ILSVRC2012-val-00029057.png
subject-03,1,795,0.977298974990845,car,car,0,0795_sty_s03_0_car_00_car-0066-ILSVRC2012-val-00018249.png
subject-03,1,796,0.619247913360596,oven,knife,0,0796_sty_s03_0_knife_00_knife-0018-ILSVRC2012-val-00014608.png
subject-03,1,797,1.07691597938538,bird,cat,0,0797_sty_s03_0_cat_00_cat-0236-ILSVRC2012-val-00031185.png
subject-03,1,798,0.796801090240479,cat,cat,0,0798_sty_s03_0_cat_00_cat-0005-ILSVRC2012-val-00005358.png
subject-03,1,799,0.754535913467407,oven,truck,0,0799_sty_s03_0_truck_00_truck-0103-ILSVRC2012-val-00004552.png
subject-03,1,800,1.10447812080383,keyboard,keyboard,0,0800_sty_s03_0_keyboard_00_keyboard-0057-ILSVRC2012-val-00005863.png
