subj,Session,trial,rt,object_response,category,condition,imagename
subject-01,1,1,0.799072027206421,clock,clock,0,0001_pow_s01_0_clock_35_n03196217_10246.png
subject-01,1,2,1.10088109970093,dog,dog,pow,0002_pow_s01_pow_dog_35_n02091467_7264.png
subject-01,1,3,1.20879793167114,dog,chair,pow,0003_pow_s01_pow_chair_35_n02791124_713.png
subject-01,1,4,0.954604148864746,car,car,0,0004_pow_s01_0_car_35_n02814533_35174.png
subject-01,1,5,1.21031498908997,knife,knife,pow,0005_pow_s01_pow_knife_35_n03041632_46103.png
subject-01,1,6,0.840247869491577,bicycle,bicycle,0,0006_pow_s01_0_bicycle_35_n03792782_11306.png
subject-01,1,7,0.688066959381104,bird,bird,0,0007_pow_s01_0_bird_35_n02002556_3463.png
subject-01,1,8,0.865800142288208,bottle,keyboard,pow,0008_pow_s01_pow_keyboard_35_n03085013_22813.png
subject-01,1,9,0.949602127075195,bird,bird,0,0009_pow_s01_0_bird_35_n02025239_2961.png
subject-01,1,10,1.07932806015015,bottle,boat,pow,0010_pow_s01_pow_boat_35_n02951358_14504.png
subject-01,1,11,1.08103179931641,bear,oven,0,0011_pow_s01_0_oven_35_n04111531_19000.png
subject-01,1,12,NaN,na,bird,0,0012_pow_s01_0_bird_35_n01614925_11281.png
subject-01,1,13,0.808900117874146,knife,knife,0,0013_pow_s01_0_knife_35_n03041632_52040.png
subject-01,1,14,0.870640993118286,car,car,pow,0014_pow_s01_pow_car_35_n03100240_14206.png
subject-01,1,15,1.00053310394287,bottle,bird,0,0015_pow_s01_0_bird_35_n01817953_689.png
subject-01,1,16,0.856220006942749,chair,chair,pow,0016_pow_s01_pow_chair_35_n04099969_7934.png
subject-01,1,17,0.881978988647461,knife,knife,0,0017_pow_s01_0_knife_35_n03041632_30196.png
subject-01,1,18,0.675865888595581,car,car,0,0018_pow_s01_0_car_35_n02814533_18077.png
subject-01,1,19,0.62568211555481,cat,cat,0,0019_pow_s01_0_cat_35_n02123159_6927.png
subject-01,1,20,0.839472055435181,bird,bird,pow,0020_pow_s01_pow_bird_35_n01855672_8550.png
subject-01,1,21,0.969403982162476,truck,truck,0,0021_pow_s01_0_truck_35_n03417042_17888.png
subject-01,1,22,1.35728716850281,bicycle,truck,pow,0022_pow_s01_pow_truck_35_n04467665_45611.png
subject-01,1,23,1.00289583206177,dog,dog,pow,0023_pow_s01_pow_dog_35_n02093256_1772.png
subject-01,1,24,0.63276481628418,boat,boat,pow,0024_pow_s01_pow_boat_35_n03344393_6260.png
subject-01,1,25,1.1686007976532,chair,chair,0,0025_pow_s01_0_chair_35_n04429376_24073.png
subject-01,1,26,0.742380142211914,knife,knife,0,0026_pow_s01_0_knife_35_n03041632_29355.png
subject-01,1,27,0.606266021728516,clock,clock,0,0027_pow_s01_0_clock_35_n03196217_5907.png
subject-01,1,28,0.693960905075073,airplane,airplane,0,0028_pow_s01_0_airplane_35_n02690373_7276.png
subject-01,1,29,0.645709991455078,bicycle,bicycle,pow,0029_pow_s01_pow_bicycle_35_n03792782_15561.png
subject-01,1,30,0.477683067321777,cat,cat,0,0030_pow_s01_0_cat_35_n02123045_3505.png
subject-01,1,31,1.00545287132263,knife,knife,0,0031_pow_s01_0_knife_35_n03041632_34769.png
subject-01,1,32,1.35525512695312,oven,clock,pow,0032_pow_s01_pow_clock_35_n03196217_5206.png
subject-01,1,33,0.788997888565063,truck,truck,0,0033_pow_s01_0_truck_35_n04467665_58815.png
subject-01,1,34,0.864894866943359,bird,bird,0,0034_pow_s01_0_bird_35_n01616318_2186.png
subject-01,1,35,0.826537847518921,bicycle,bicycle,pow,0035_pow_s01_pow_bicycle_35_n03792782_12885.png
subject-01,1,36,0.8247230052948,boat,airplane,pow,0036_pow_s01_pow_airplane_35_n02690373_9264.png
subject-01,1,37,0.950408935546875,chair,chair,0,0037_pow_s01_0_chair_35_n04099969_16079.png
subject-01,1,38,0.706665992736816,bicycle,bicycle,0,0038_pow_s01_0_bicycle_35_n02835271_3027.png
subject-01,1,39,0.632045984268188,airplane,airplane,0,0039_pow_s01_0_airplane_35_n02690373_6614.png
subject-01,1,40,1.48989605903625,boat,chair,pow,0040_pow_s01_pow_chair_35_n03376595_9048.png
subject-01,1,41,0.975487232208252,bottle,oven,0,0041_pow_s01_0_oven_35_n04111531_6094.png
subject-01,1,42,0.621433973312378,clock,clock,pow,0042_pow_s01_pow_clock_35_n02708093_687.png
subject-01,1,43,0.633159875869751,bicycle,bicycle,pow,0043_pow_s01_pow_bicycle_35_n03792782_14931.png
subject-01,1,44,0.716887950897217,bottle,bottle,0,0044_pow_s01_0_bottle_35_n03937543_5567.png
subject-01,1,45,1.07064509391785,car,car,0,0045_pow_s01_0_car_35_n03100240_3073.png
subject-01,1,46,0.926741123199463,knife,knife,0,0046_pow_s01_0_knife_35_n03041632_18236.png
subject-01,1,47,1.07828688621521,bottle,knife,pow,0047_pow_s01_pow_knife_35_n03041632_9302.png
subject-01,1,48,0.778257131576538,bear,bear,0,0048_pow_s01_0_bear_35_n02134418_2590.png
subject-01,1,49,0.677935123443604,bottle,bottle,0,0049_pow_s01_0_bottle_35_n03983396_24837.png
subject-01,1,50,1.21586203575134,bear,knife,pow,0050_pow_s01_pow_knife_35_n03041632_3617.png
subject-01,1,51,1.44007110595703,bicycle,bicycle,pow,0051_pow_s01_pow_bicycle_35_n03792782_6735.png
subject-01,1,52,1.021399974823,car,car,0,0052_pow_s01_0_car_35_n03100240_5387.png
subject-01,1,53,0.975251913070679,bottle,bottle,0,0053_pow_s01_0_bottle_35_n03983396_4879.png
subject-01,1,54,0.761207103729248,car,car,0,0054_pow_s01_0_car_35_n03100240_6103.png
subject-01,1,55,0.976958036422729,boat,bird,pow,0055_pow_s01_pow_bird_35_n01796340_9255.png
subject-01,1,56,0.762609958648682,cat,cat,pow,0056_pow_s01_pow_cat_35_n02123394_2448.png
subject-01,1,57,1.01046800613403,car,car,0,0057_pow_s01_0_car_35_n04285008_13174.png
subject-01,1,58,1.38629698753357,elephant,chair,pow,0058_pow_s01_pow_chair_35_n04429376_353.png
subject-01,1,59,1.21816396713257,bird,boat,pow,0059_pow_s01_pow_boat_35_n02951358_16261.png
subject-01,1,60,0.894047021865845,car,car,pow,0060_pow_s01_pow_car_35_n04285008_15954.png
subject-01,1,61,1.04769992828369,truck,truck,pow,0061_pow_s01_pow_truck_35_n04467665_3411.png
subject-01,1,62,0.935580015182495,oven,oven,pow,0062_pow_s01_pow_oven_35_n04111531_15743.png
subject-01,1,63,0.913295030593872,dog,dog,0,0063_pow_s01_0_dog_35_n02088238_8653.png
subject-01,1,64,0.879377126693726,airplane,airplane,0,0064_pow_s01_0_airplane_35_n02690373_4681.png
subject-01,1,65,1.46902298927307,bear,bear,pow,0065_pow_s01_pow_bear_35_n02134418_5684.png
subject-01,1,66,0.775083065032959,bear,bear,pow,0066_pow_s01_pow_bear_35_n02134418_5830.png
subject-01,1,67,1.07256603240967,truck,truck,0,0067_pow_s01_0_truck_35_n04467665_45983.png
subject-01,1,68,0.824527025222778,bird,bird,0,0068_pow_s01_0_bird_35_n01795545_14302.png
subject-01,1,69,1.50001001358032,elephant,oven,pow,0069_pow_s01_pow_oven_35_n04111531_19240.png
subject-01,1,70,1.3100688457489,oven,knife,0,0070_pow_s01_0_knife_35_n03041632_22241.png
subject-01,1,71,1.48204302787781,bird,boat,pow,0071_pow_s01_pow_boat_35_n03344393_815.png
subject-01,1,72,1.10963797569275,airplane,boat,0,0072_pow_s01_0_boat_35_n03662601_2120.png
subject-01,1,73,1.28741097450256,knife,knife,pow,0073_pow_s01_pow_knife_35_n03041632_2438.png
subject-01,1,74,1.12331795692444,bird,bear,pow,0074_pow_s01_pow_bear_35_n02134418_3073.png
subject-01,1,75,0.785181045532227,bottle,bottle,pow,0075_pow_s01_pow_bottle_35_n02823428_3328.png
subject-01,1,76,0.751121044158936,car,car,pow,0076_pow_s01_pow_car_35_n04285008_13259.png
subject-01,1,77,0.736669778823853,oven,oven,0,0077_pow_s01_0_oven_35_n04111531_15852.png
subject-01,1,78,1.10863900184631,dog,dog,pow,0078_pow_s01_pow_dog_35_n02099601_447.png
subject-01,1,79,1.0406551361084,knife,oven,pow,0079_pow_s01_pow_oven_35_n04111531_18916.png
subject-01,1,80,0.708203077316284,bottle,bottle,pow,0080_pow_s01_pow_bottle_35_n04591713_1407.png
subject-01,1,81,0.696942090988159,oven,oven,0,0081_pow_s01_0_oven_35_n04111531_4585.png
subject-01,1,82,0.771149158477783,keyboard,keyboard,pow,0082_pow_s01_pow_keyboard_35_n03085013_8364.png
subject-01,1,83,0.94694995880127,bear,bear,pow,0083_pow_s01_pow_bear_35_n02132136_15462.png
subject-01,1,84,1.13262701034546,bicycle,bicycle,pow,0084_pow_s01_pow_bicycle_35_n03792782_4167.png
subject-01,1,85,0.704485177993774,boat,boat,0,0085_pow_s01_0_boat_35_n03662601_16106.png
subject-01,1,86,0.894160032272339,bottle,keyboard,pow,0086_pow_s01_pow_keyboard_35_n03085013_2277.png
subject-01,1,87,0.967900037765503,airplane,airplane,pow,0087_pow_s01_pow_airplane_35_n02690373_8461.png
subject-01,1,88,1.03816604614258,chair,chair,pow,0088_pow_s01_pow_chair_35_n03376595_3304.png
subject-01,1,89,0.931673049926758,bicycle,bicycle,0,0089_pow_s01_0_bicycle_35_n03792782_19116.png
subject-01,1,90,0.879340887069702,clock,clock,0,0090_pow_s01_0_clock_35_n02708093_6734.png
subject-01,1,91,1.43933582305908,truck,chair,0,0091_pow_s01_0_chair_35_n04429376_6480.png
subject-01,1,92,0.881204843521118,bicycle,bicycle,pow,0092_pow_s01_pow_bicycle_35_n02835271_21339.png
subject-01,1,93,0.792744874954224,keyboard,keyboard,pow,0093_pow_s01_pow_keyboard_35_n03085013_3859.png
subject-01,1,94,1.45078992843628,bottle,chair,pow,0094_pow_s01_pow_chair_35_n03376595_360.png
subject-01,1,95,1.22034811973572,elephant,elephant,pow,0095_pow_s01_pow_elephant_35_n02504013_18988.png
subject-01,1,96,1.2401819229126,bear,chair,0,0096_pow_s01_0_chair_35_n04429376_54570.png
subject-01,1,97,1.31227612495422,oven,clock,pow,0097_pow_s01_pow_clock_35_n04548280_5189.png
subject-01,1,98,1.24587392807007,truck,truck,pow,0098_pow_s01_pow_truck_35_n04467665_6626.png
subject-01,1,99,NaN,na,boat,0,0099_pow_s01_0_boat_35_n03344393_3323.png
subject-01,1,100,0.909565925598145,dog,dog,pow,0100_pow_s01_pow_dog_35_n02100583_3987.png
subject-01,1,101,0.993336915969849,elephant,elephant,pow,0101_pow_s01_pow_elephant_35_n02504013_1702.png
subject-01,1,102,0.893631935119629,truck,truck,pow,0102_pow_s01_pow_truck_35_n03417042_1841.png
subject-01,1,103,0.898803949356079,truck,truck,0,0103_pow_s01_0_truck_35_n03417042_2062.png
subject-01,1,104,0.873145818710327,bottle,bottle,0,0104_pow_s01_0_bottle_35_n03983396_4178.png
subject-01,1,105,0.984483003616333,keyboard,keyboard,pow,0105_pow_s01_pow_keyboard_35_n03085013_1698.png
subject-01,1,106,0.876341819763184,car,car,pow,0106_pow_s01_pow_car_35_n03100240_7056.png
subject-01,1,107,0.90413498878479,bear,dog,pow,0107_pow_s01_pow_dog_35_n02100735_3553.png
subject-01,1,108,1.50012612342834,bottle,oven,pow,0108_pow_s01_pow_oven_35_n04111531_11781.png
subject-01,1,109,0.812049150466919,cat,cat,0,0109_pow_s01_0_cat_35_n02123159_4914.png
subject-01,1,110,1.07396292686462,bear,dog,0,0110_pow_s01_0_dog_35_n02090622_1852.png
subject-01,1,111,0.757766962051392,car,car,pow,0111_pow_s01_pow_car_35_n03100240_24471.png
subject-01,1,112,0.859338998794556,boat,boat,pow,0112_pow_s01_pow_boat_35_n03344393_3519.png
subject-01,1,113,0.757070064544678,keyboard,keyboard,pow,0113_pow_s01_pow_keyboard_35_n03085013_22713.png
subject-01,1,114,1.14348292350769,elephant,elephant,0,0114_pow_s01_0_elephant_35_n02504013_6615.png
subject-01,1,115,0.816570043563843,cat,cat,0,0115_pow_s01_0_cat_35_n02123597_7081.png
subject-01,1,116,0.524435997009277,clock,clock,pow,0116_pow_s01_pow_clock_35_n04548280_5406.png
subject-01,1,117,0.794485092163086,bottle,bottle,0,0117_pow_s01_0_bottle_35_n03983396_21920.png
subject-01,1,118,0.80427098274231,knife,knife,0,0118_pow_s01_0_knife_35_n03041632_48675.png
subject-01,1,119,1.12029910087585,cat,cat,0,0119_pow_s01_0_cat_35_n02125311_2103.png
subject-01,1,120,1.04391312599182,bear,bird,pow,0120_pow_s01_pow_bird_35_n01798484_962.png
subject-01,1,121,1.27349805831909,bird,oven,pow,0121_pow_s01_pow_oven_35_n04111531_6393.png
subject-01,1,122,1.0373649597168,oven,oven,0,0122_pow_s01_0_oven_35_n04111531_4418.png
subject-01,1,123,0.681128025054932,car,truck,pow,0123_pow_s01_pow_truck_35_n03796401_296.png
subject-01,1,124,0.728970050811768,bicycle,bicycle,0,0124_pow_s01_0_bicycle_35_n02835271_10738.png
subject-01,1,125,0.844821929931641,elephant,elephant,0,0125_pow_s01_0_elephant_35_n02504013_4457.png
subject-01,1,126,0.942858934402466,knife,knife,0,0126_pow_s01_0_knife_35_n03041632_30573.png
subject-01,1,127,0.78255295753479,boat,boat,0,0127_pow_s01_0_boat_35_n03662601_19840.png
subject-01,1,128,0.96440315246582,bear,bear,0,0128_pow_s01_0_bear_35_n02133161_12167.png
subject-01,1,129,0.648262977600098,bottle,bottle,0,0129_pow_s01_0_bottle_35_n02823428_3028.png
subject-01,1,130,0.792104005813599,boat,boat,0,0130_pow_s01_0_boat_35_n02951358_30149.png
subject-01,1,131,0.803619146347046,car,car,0,0131_pow_s01_0_car_35_n02814533_75419.png
subject-01,1,132,0.85348916053772,keyboard,keyboard,0,0132_pow_s01_0_keyboard_35_n03085013_24449.png
subject-01,1,133,0.811336040496826,dog,dog,0,0133_pow_s01_0_dog_35_n02086240_519.png
subject-01,1,134,0.673137903213501,bird,bird,pow,0134_pow_s01_pow_bird_35_n01582220_2882.png
subject-01,1,135,0.795118093490601,bottle,oven,0,0135_pow_s01_0_oven_35_n04111531_13277.png
subject-01,1,136,1.32457208633423,elephant,bear,pow,0136_pow_s01_pow_bear_35_n02134084_6901.png
subject-01,1,137,0.756713151931763,bird,bird,0,0137_pow_s01_0_bird_35_n02002556_5447.png
subject-01,1,138,0.74220609664917,keyboard,keyboard,0,0138_pow_s01_0_keyboard_35_n03085013_20710.png
subject-01,1,139,1.40808391571045,oven,oven,pow,0139_pow_s01_pow_oven_35_n04111531_11405.png
subject-01,1,140,0.723939895629883,bear,bear,pow,0140_pow_s01_pow_bear_35_n02132136_8457.png
subject-01,1,141,0.827658891677856,bird,bird,pow,0141_pow_s01_pow_bird_35_n02009912_6788.png
subject-01,1,142,1.05946516990662,clock,chair,pow,0142_pow_s01_pow_chair_35_n04429376_9630.png
subject-01,1,143,0.861324071884155,keyboard,keyboard,0,0143_pow_s01_0_keyboard_35_n03085013_23658.png
subject-01,1,144,0.943550109863281,cat,cat,pow,0144_pow_s01_pow_cat_35_n02123045_13199.png
subject-01,1,145,0.867496013641357,clock,clock,pow,0145_pow_s01_pow_clock_35_n04548280_6411.png
subject-01,1,146,1.24690294265747,cat,bird,0,0146_pow_s01_0_bird_35_n01820546_9729.png
subject-01,1,147,0.704590082168579,boat,boat,0,0147_pow_s01_0_boat_35_n04273569_12651.png
subject-01,1,148,1.34060907363892,dog,elephant,pow,0148_pow_s01_pow_elephant_35_n02504458_3143.png
subject-01,1,149,0.656388998031616,clock,clock,0,0149_pow_s01_0_clock_35_n03196217_9786.png
subject-01,1,150,0.852286100387573,chair,chair,0,0150_pow_s01_0_chair_35_n03376595_6652.png
subject-01,1,151,0.810026168823242,bottle,bottle,pow,0151_pow_s01_pow_bottle_35_n03983396_2998.png
subject-01,1,152,0.875825166702271,elephant,elephant,0,0152_pow_s01_0_elephant_35_n02504458_5331.png
subject-01,1,153,0.739586114883423,car,car,0,0153_pow_s01_0_car_35_n04285008_8052.png
subject-01,1,154,1.09952402114868,bottle,bottle,pow,0154_pow_s01_pow_bottle_35_n04591713_3402.png
subject-01,1,155,0.783108949661255,bicycle,bicycle,pow,0155_pow_s01_pow_bicycle_35_n02835271_1701.png
subject-01,1,156,0.839040040969849,bicycle,bicycle,0,0156_pow_s01_0_bicycle_35_n02835271_5196.png
subject-01,1,157,0.965208053588867,elephant,elephant,pow,0157_pow_s01_pow_elephant_35_n02504458_5444.png
subject-01,1,158,1.10265803337097,truck,truck,0,0158_pow_s01_0_truck_35_n03417042_3422.png
subject-01,1,159,0.998330116271973,elephant,dog,pow,0159_pow_s01_pow_dog_35_n02088466_1537.png
subject-01,1,160,0.842331886291504,dog,dog,pow,0160_pow_s01_pow_dog_35_n02088632_1732.png
subject-01,1,161,0.860296964645386,truck,truck,0,0161_pow_s01_0_truck_35_n03796401_3326.png
subject-01,1,162,0.673904180526733,boat,boat,0,0162_pow_s01_0_boat_35_n04273569_19796.png
subject-01,1,163,0.957909107208252,keyboard,keyboard,pow,0163_pow_s01_pow_keyboard_35_n04505470_5125.png
subject-01,1,164,0.72149395942688,cat,cat,pow,0164_pow_s01_pow_cat_35_n02123394_1817.png
subject-01,1,165,0.709600925445557,cat,cat,pow,0165_pow_s01_pow_cat_35_n02123159_7465.png
subject-01,1,166,0.791060924530029,bear,cat,0,0166_pow_s01_0_cat_35_n02125311_33516.png
subject-01,1,167,0.925191164016724,bicycle,bicycle,pow,0167_pow_s01_pow_bicycle_35_n03792782_30246.png
subject-01,1,168,0.940622806549072,truck,truck,0,0168_pow_s01_0_truck_35_n04467665_72639.png
subject-01,1,169,0.800386190414429,bicycle,bicycle,0,0169_pow_s01_0_bicycle_35_n03792782_10395.png
subject-01,1,170,0.796454191207886,bicycle,bicycle,pow,0170_pow_s01_pow_bicycle_35_n02835271_840.png
subject-01,1,171,1.33000183105469,knife,knife,pow,0171_pow_s01_pow_knife_35_n03041632_82197.png
subject-01,1,172,1.18637800216675,keyboard,airplane,pow,0172_pow_s01_pow_airplane_35_n02690373_8942.png
subject-01,1,173,0.709866046905518,keyboard,keyboard,0,0173_pow_s01_0_keyboard_35_n03085013_21851.png
subject-01,1,174,0.613759994506836,clock,clock,pow,0174_pow_s01_pow_clock_35_n04548280_1106.png
subject-01,1,175,1.21136403083801,truck,truck,0,0175_pow_s01_0_truck_35_n03796401_4181.png
subject-01,1,176,0.787134885787964,knife,knife,pow,0176_pow_s01_pow_knife_35_n03041632_44019.png
subject-01,1,177,0.930966138839722,truck,truck,0,0177_pow_s01_0_truck_35_n03417042_1348.png
subject-01,1,178,0.794996023178101,chair,chair,0,0178_pow_s01_0_chair_35_n04099969_10516.png
subject-01,1,179,1.21454501152039,oven,chair,pow,0179_pow_s01_pow_chair_35_n04099969_24041.png
subject-01,1,180,1.26440191268921,clock,truck,pow,0180_pow_s01_pow_truck_35_n03796401_3618.png
subject-01,1,181,0.876559019088745,elephant,elephant,0,0181_pow_s01_0_elephant_35_n02504458_4414.png
subject-01,1,182,0.746111154556274,truck,truck,pow,0182_pow_s01_pow_truck_35_n03796401_3427.png
subject-01,1,183,0.834094047546387,cat,cat,0,0183_pow_s01_0_cat_35_n02123045_9907.png
subject-01,1,184,0.705610990524292,oven,oven,0,0184_pow_s01_0_oven_35_n04111531_2156.png
subject-01,1,185,0.69173002243042,bird,bird,pow,0185_pow_s01_pow_bird_35_n02002556_12696.png
subject-01,1,186,0.851290941238403,airplane,airplane,pow,0186_pow_s01_pow_airplane_35_n02690373_8791.png
subject-01,1,187,1.02914500236511,knife,knife,pow,0187_pow_s01_pow_knife_35_n03041632_27963.png
subject-01,1,188,0.967337131500244,chair,chair,0,0188_pow_s01_0_chair_35_n03376595_7772.png
subject-01,1,189,1.12064290046692,bird,boat,pow,0189_pow_s01_pow_boat_35_n04273569_3460.png
subject-01,1,190,1.31684803962708,oven,oven,0,0190_pow_s01_0_oven_35_n04111531_5694.png
subject-01,1,191,1.2263069152832,elephant,bear,pow,0191_pow_s01_pow_bear_35_n02134084_17218.png
subject-01,1,192,1.0981228351593,oven,oven,pow,0192_pow_s01_pow_oven_35_n04111531_2923.png
subject-01,1,193,0.937879085540771,keyboard,keyboard,pow,0193_pow_s01_pow_keyboard_35_n03085013_22669.png
subject-01,1,194,0.903800964355469,bottle,bottle,pow,0194_pow_s01_pow_bottle_35_n04557648_2282.png
subject-01,1,195,0.877948045730591,elephant,elephant,pow,0195_pow_s01_pow_elephant_35_n02504013_6693.png
subject-01,1,196,0.731418132781982,chair,chair,0,0196_pow_s01_0_chair_35_n04099969_39507.png
subject-01,1,197,0.783393144607544,car,car,pow,0197_pow_s01_pow_car_35_n02814533_61184.png
subject-01,1,198,0.831068992614746,keyboard,keyboard,pow,0198_pow_s01_pow_keyboard_35_n04505470_1358.png
subject-01,1,199,0.828882932662964,truck,truck,pow,0199_pow_s01_pow_truck_35_n04467665_8824.png
subject-01,1,200,0.784624099731445,keyboard,keyboard,0,0200_pow_s01_0_keyboard_35_n04505470_8937.png
subject-01,1,201,0.934380054473877,truck,truck,pow,0201_pow_s01_pow_truck_35_n03417042_7581.png
subject-01,1,202,0.860343933105469,bicycle,bicycle,pow,0202_pow_s01_pow_bicycle_35_n02835271_13234.png
subject-01,1,203,0.620207071304321,cat,cat,pow,0203_pow_s01_pow_cat_35_n02124075_3383.png
subject-01,1,204,0.918085813522339,elephant,elephant,pow,0204_pow_s01_pow_elephant_35_n02504013_474.png
subject-01,1,205,1.27421998977661,bear,chair,pow,0205_pow_s01_pow_chair_35_n04429376_1838.png
subject-01,1,206,0.723489999771118,boat,boat,pow,0206_pow_s01_pow_boat_35_n02951358_5064.png
subject-01,1,207,1.12744784355164,cat,knife,pow,0207_pow_s01_pow_knife_35_n03041632_31037.png
subject-01,1,208,0.921221971511841,cat,cat,pow,0208_pow_s01_pow_cat_35_n02123045_11501.png
subject-01,1,209,0.793171882629395,knife,keyboard,pow,0209_pow_s01_pow_keyboard_35_n03085013_17937.png
subject-01,1,210,0.66478705406189,chair,chair,0,0210_pow_s01_0_chair_35_n03376595_10881.png
subject-01,1,211,0.722647905349731,elephant,elephant,0,0211_pow_s01_0_elephant_35_n02504458_7302.png
subject-01,1,212,0.90045690536499,airplane,airplane,pow,0212_pow_s01_pow_airplane_35_n02690373_4704.png
subject-01,1,213,0.756522178649902,car,car,0,0213_pow_s01_0_car_35_n03100240_18756.png
subject-01,1,214,0.792006015777588,keyboard,keyboard,pow,0214_pow_s01_pow_keyboard_35_n03085013_20732.png
subject-01,1,215,0.758315086364746,bottle,bottle,pow,0215_pow_s01_pow_bottle_35_n04579145_2999.png
subject-01,1,216,0.583997011184692,clock,clock,pow,0216_pow_s01_pow_clock_35_n02708093_2546.png
subject-01,1,217,0.739445924758911,boat,boat,0,0217_pow_s01_0_boat_35_n03662601_13847.png
subject-01,1,218,0.657270908355713,bicycle,bicycle,0,0218_pow_s01_0_bicycle_35_n03792782_7878.png
subject-01,1,219,NaN,na,knife,pow,0219_pow_s01_pow_knife_35_n03041632_18959.png
subject-01,1,220,0.750824928283691,bear,bear,0,0220_pow_s01_0_bear_35_n02134418_10576.png
subject-01,1,221,0.708851099014282,elephant,elephant,pow,0221_pow_s01_pow_elephant_35_n02504013_213.png
subject-01,1,222,1.19046998023987,bottle,bottle,pow,0222_pow_s01_pow_bottle_35_n03983396_2944.png
subject-01,1,223,1.03444814682007,truck,truck,0,0223_pow_s01_0_truck_35_n03796401_8964.png
subject-01,1,224,1.27219700813293,elephant,knife,pow,0224_pow_s01_pow_knife_35_n03041632_13509.png
subject-01,1,225,1.02785205841064,bear,bird,pow,0225_pow_s01_pow_bird_35_n01537544_7301.png
subject-01,1,226,0.717810153961182,elephant,elephant,0,0226_pow_s01_0_elephant_35_n02504013_9618.png
subject-01,1,227,0.759446859359741,keyboard,keyboard,pow,0227_pow_s01_pow_keyboard_35_n04505470_10191.png
subject-01,1,228,0.73170804977417,bicycle,bicycle,pow,0228_pow_s01_pow_bicycle_35_n02835271_20149.png
subject-01,1,229,0.755331993103027,truck,truck,0,0229_pow_s01_0_truck_35_n04467665_2098.png
subject-01,1,230,0.909343957901001,bear,bear,0,0230_pow_s01_0_bear_35_n02133161_5274.png
subject-01,1,231,1.25875091552734,boat,bird,pow,0231_pow_s01_pow_bird_35_n01537544_20224.png
subject-01,1,232,0.888581991195679,dog,dog,pow,0232_pow_s01_pow_dog_35_n02094258_6800.png
subject-01,1,233,1.17843890190125,truck,truck,0,0233_pow_s01_0_truck_35_n03417042_27326.png
subject-01,1,234,1.05430507659912,car,oven,pow,0234_pow_s01_pow_oven_35_n04111531_6955.png
subject-01,1,235,0.628514051437378,clock,clock,0,0235_pow_s01_0_clock_35_n04548280_7135.png
subject-01,1,236,1.44600987434387,dog,dog,pow,0236_pow_s01_pow_dog_35_n02113023_12143.png
subject-01,1,237,0.739711046218872,bicycle,bicycle,0,0237_pow_s01_0_bicycle_35_n02835271_10832.png
subject-01,1,238,0.919709920883179,chair,chair,pow,0238_pow_s01_pow_chair_35_n02791124_28.png
subject-01,1,239,0.657172918319702,bicycle,bicycle,pow,0239_pow_s01_pow_bicycle_35_n03792782_1715.png
subject-01,1,240,0.653027057647705,bicycle,bicycle,0,0240_pow_s01_0_bicycle_35_n02835271_19875.png
subject-01,1,241,0.922165870666504,bird,bird,0,0241_pow_s01_0_bird_35_n02056570_8203.png
subject-01,1,242,0.89606785774231,truck,car,pow,0242_pow_s01_pow_car_35_n02814533_27588.png
subject-01,1,243,0.887783050537109,chair,bear,0,0243_pow_s01_0_bear_35_n02134418_2714.png
subject-01,1,244,0.837602138519287,bear,bear,0,0244_pow_s01_0_bear_35_n02132136_900.png
subject-01,1,245,0.951359987258911,dog,dog,0,0245_pow_s01_0_dog_35_n02095889_7413.png
subject-01,1,246,1.10137820243835,car,boat,0,0246_pow_s01_0_boat_35_n02951358_14877.png
subject-01,1,247,0.783332109451294,knife,knife,pow,0247_pow_s01_pow_knife_35_n03041632_42472.png
subject-01,1,248,1.01093077659607,clock,bottle,pow,0248_pow_s01_pow_bottle_35_n02823428_12740.png
subject-01,1,249,0.750638961791992,boat,boat,0,0249_pow_s01_0_boat_35_n02951358_2537.png
subject-01,1,250,0.980451107025146,dog,dog,0,0250_pow_s01_0_dog_35_n02106166_5135.png
subject-01,1,251,1.07824301719666,truck,oven,pow,0251_pow_s01_pow_oven_35_n04111531_23046.png
subject-01,1,252,0.917951107025146,dog,dog,pow,0252_pow_s01_pow_dog_35_n02105855_3310.png
subject-01,1,253,0.874182939529419,bird,bird,0,0253_pow_s01_0_bird_35_n01843383_2122.png
subject-01,1,254,0.811722993850708,boat,boat,pow,0254_pow_s01_pow_boat_35_n03344393_8407.png
subject-01,1,255,0.493519067764282,clock,clock,pow,0255_pow_s01_pow_clock_35_n04548280_4739.png
subject-01,1,256,0.747231006622314,keyboard,keyboard,0,0256_pow_s01_0_keyboard_35_n04505470_3531.png
subject-01,1,257,0.799025058746338,boat,airplane,pow,0257_pow_s01_pow_airplane_35_n02690373_7740.png
subject-01,1,258,0.866950988769531,bear,bear,pow,0258_pow_s01_pow_bear_35_n02132136_4699.png
subject-01,1,259,0.714773893356323,airplane,airplane,pow,0259_pow_s01_pow_airplane_35_n02690373_5277.png
subject-01,1,260,0.528575897216797,clock,clock,pow,0260_pow_s01_pow_clock_35_n04548280_8841.png
subject-01,1,261,0.892364025115967,car,truck,pow,0261_pow_s01_pow_truck_35_n03796401_142.png
subject-01,1,262,0.728378057479858,bear,bear,pow,0262_pow_s01_pow_bear_35_n02134418_4666.png
subject-01,1,263,0.77209997177124,clock,chair,0,0263_pow_s01_0_chair_35_n04429376_17074.png
subject-01,1,264,0.877781867980957,dog,dog,0,0264_pow_s01_0_dog_35_n02107683_1934.png
subject-01,1,265,0.809963941574097,bicycle,bicycle,0,0265_pow_s01_0_bicycle_35_n03792782_3765.png
subject-01,1,266,0.873580932617188,elephant,elephant,pow,0266_pow_s01_pow_elephant_35_n02504013_7026.png
subject-01,1,267,1.00305485725403,oven,clock,pow,0267_pow_s01_pow_clock_35_n03196217_3063.png
subject-01,1,268,0.781105995178223,boat,bear,pow,0268_pow_s01_pow_bear_35_n02134418_1041.png
subject-01,1,269,1.11678385734558,truck,boat,pow,0269_pow_s01_pow_boat_35_n03344393_8258.png
subject-01,1,270,0.762818098068237,oven,oven,0,0270_pow_s01_0_oven_35_n04111531_10306.png
subject-01,1,271,0.876580953598022,bottle,bottle,0,0271_pow_s01_0_bottle_35_n02823428_641.png
subject-01,1,272,0.87664008140564,oven,oven,pow,0272_pow_s01_pow_oven_35_n04111531_1873.png
subject-01,1,273,0.756235122680664,bear,bear,0,0273_pow_s01_0_bear_35_n02134418_559.png
subject-01,1,274,0.698067903518677,keyboard,keyboard,pow,0274_pow_s01_pow_keyboard_35_n04505470_4844.png
subject-01,1,275,0.64002799987793,keyboard,keyboard,0,0275_pow_s01_0_keyboard_35_n03085013_23291.png
subject-01,1,276,0.747712135314941,car,car,0,0276_pow_s01_0_car_35_n03100240_5808.png
subject-01,1,277,1.40172815322876,bear,bear,0,0277_pow_s01_0_bear_35_n02134084_15968.png
subject-01,1,278,1.00326204299927,bear,cat,0,0278_pow_s01_0_cat_35_n02125311_20238.png
subject-01,1,279,0.829010009765625,bird,bird,0,0279_pow_s01_0_bird_35_n02028035_8994.png
subject-01,1,280,0.92670202255249,airplane,airplane,pow,0280_pow_s01_pow_airplane_35_n02690373_4471.png
subject-01,1,281,0.99071192741394,truck,truck,0,0281_pow_s01_0_truck_35_n03796401_322.png
subject-01,1,282,1.41672086715698,car,car,pow,0282_pow_s01_pow_car_35_n04285008_402.png
subject-01,1,283,1.14019083976746,oven,oven,0,0283_pow_s01_0_oven_35_n04111531_807.png
subject-01,1,284,0.652163982391357,oven,oven,0,0284_pow_s01_0_oven_35_n04111531_20369.png
subject-01,1,285,1.05407309532166,clock,knife,pow,0285_pow_s01_pow_knife_35_n03041632_24114.png
subject-01,1,286,1.0177059173584,dog,dog,0,0286_pow_s01_0_dog_35_n02093256_1102.png
subject-01,1,287,0.901364088058472,bottle,bottle,0,0287_pow_s01_0_bottle_35_n03983396_17636.png
subject-01,1,288,0.883280992507935,bird,bird,0,0288_pow_s01_0_bird_35_n01855672_55167.png
subject-01,1,289,0.951012134552002,bottle,bottle,0,0289_pow_s01_0_bottle_35_n02823428_1149.png
subject-01,1,290,0.926969051361084,car,truck,pow,0290_pow_s01_pow_truck_35_n03417042_1182.png
subject-01,1,291,0.866600036621094,bear,bear,0,0291_pow_s01_0_bear_35_n02134084_22051.png
subject-01,1,292,1.31444787979126,cat,cat,pow,0292_pow_s01_pow_cat_35_n02123159_5170.png
subject-01,1,293,0.842269897460938,airplane,airplane,pow,0293_pow_s01_pow_airplane_35_n02690373_4042.png
subject-01,1,294,0.944413900375366,airplane,airplane,pow,0294_pow_s01_pow_airplane_35_n02690373_6231.png
subject-01,1,295,0.780359029769897,bear,bear,0,0295_pow_s01_0_bear_35_n02134418_4657.png
subject-01,1,296,0.781773805618286,car,car,0,0296_pow_s01_0_car_35_n03100240_24505.png
subject-01,1,297,0.735633850097656,bird,bird,0,0297_pow_s01_0_bird_35_n02006656_4031.png
subject-01,1,298,0.935739040374756,truck,truck,0,0298_pow_s01_0_truck_35_n03796401_20861.png
subject-01,1,299,0.853296995162964,truck,truck,0,0299_pow_s01_0_truck_35_n03417042_4934.png
subject-01,1,300,0.888938903808594,bird,bird,0,0300_pow_s01_0_bird_35_n01824575_3046.png
subject-01,1,301,0.864629983901978,elephant,elephant,pow,0301_pow_s01_pow_elephant_35_n02504458_3463.png
subject-01,1,302,1.22254705429077,airplane,airplane,0,0302_pow_s01_0_airplane_35_n02690373_6914.png
subject-01,1,303,0.772381782531738,bottle,bottle,0,0303_pow_s01_0_bottle_35_n03983396_3675.png
subject-01,1,304,0.910234928131104,dog,dog,pow,0304_pow_s01_pow_dog_35_n02088364_12272.png
subject-01,1,305,0.888028860092163,dog,dog,0,0305_pow_s01_0_dog_35_n02085936_1706.png
subject-01,1,306,0.691992044448853,bear,bear,0,0306_pow_s01_0_bear_35_n02134084_18372.png
subject-01,1,307,0.867626905441284,keyboard,keyboard,0,0307_pow_s01_0_keyboard_35_n04505470_751.png
subject-01,1,308,1.18955278396606,bear,bird,0,0308_pow_s01_0_bird_35_n02018207_19525.png
subject-01,1,309,0.925464868545532,bottle,bicycle,pow,0309_pow_s01_pow_bicycle_35_n02835271_3329.png
subject-01,1,310,0.671239137649536,clock,clock,pow,0310_pow_s01_pow_clock_35_n04548280_1960.png
subject-01,1,311,0.781103134155273,chair,chair,0,0311_pow_s01_0_chair_35_n03376595_6240.png
subject-01,1,312,0.758894920349121,knife,knife,pow,0312_pow_s01_pow_knife_35_n03041632_13194.png
subject-01,1,313,1.23851418495178,bottle,knife,0,0313_pow_s01_0_knife_35_n03041632_13465.png
subject-01,1,314,0.820343017578125,cat,cat,pow,0314_pow_s01_pow_cat_35_n02125311_10174.png
subject-01,1,315,0.72231912612915,car,car,pow,0315_pow_s01_pow_car_35_n02814533_7420.png
subject-01,1,316,1.17196393013,car,truck,pow,0316_pow_s01_pow_truck_35_n04467665_3876.png
subject-01,1,317,0.81199312210083,airplane,airplane,0,0317_pow_s01_0_airplane_35_n02690373_12976.png
subject-01,1,318,0.895536184310913,bear,bear,pow,0318_pow_s01_pow_bear_35_n02133161_10441.png
subject-01,1,319,0.879405975341797,chair,chair,pow,0319_pow_s01_pow_chair_35_n03376595_13703.png
subject-01,1,320,0.771354198455811,bicycle,bicycle,pow,0320_pow_s01_pow_bicycle_35_n03792782_11625.png
subject-01,1,321,1.09824109077454,car,oven,pow,0321_pow_s01_pow_oven_35_n04111531_22797.png
subject-01,1,322,1.10968995094299,chair,chair,pow,0322_pow_s01_pow_chair_35_n03376595_9651.png
subject-01,1,323,0.871628999710083,bicycle,bicycle,pow,0323_pow_s01_pow_bicycle_35_n03792782_4830.png
subject-01,1,324,0.921159982681274,boat,elephant,pow,0324_pow_s01_pow_elephant_35_n02504013_7191.png
subject-01,1,325,0.821238994598389,knife,knife,0,0325_pow_s01_0_knife_35_n03041632_120.png
subject-01,1,326,1.14478993415833,airplane,airplane,pow,0326_pow_s01_pow_airplane_35_n02690373_5465.png
subject-01,1,327,0.860879898071289,car,car,pow,0327_pow_s01_pow_car_35_n04285008_8443.png
subject-01,1,328,0.740463018417358,bottle,bottle,0,0328_pow_s01_0_bottle_35_n04557648_132.png
subject-01,1,329,0.686275005340576,airplane,airplane,pow,0329_pow_s01_pow_airplane_35_n02690373_18304.png
subject-01,1,330,0.94009804725647,knife,knife,pow,0330_pow_s01_pow_knife_35_n03041632_102764.png
subject-01,1,331,1.12386798858643,boat,chair,pow,0331_pow_s01_pow_chair_35_n02791124_16913.png
subject-01,1,332,0.932038068771362,car,bicycle,pow,0332_pow_s01_pow_bicycle_35_n02835271_324.png
subject-01,1,333,0.803812980651855,airplane,airplane,pow,0333_pow_s01_pow_airplane_35_n02690373_12966.png
subject-01,1,334,0.997308015823364,knife,keyboard,pow,0334_pow_s01_pow_keyboard_35_n03085013_24653.png
subject-01,1,335,0.779194831848145,bicycle,bicycle,0,0335_pow_s01_0_bicycle_35_n03792782_18529.png
subject-01,1,336,0.805098056793213,airplane,airplane,pow,0336_pow_s01_pow_airplane_35_n02690373_2433.png
subject-01,1,337,0.687006950378418,cat,cat,0,0337_pow_s01_0_cat_35_n02125311_28447.png
subject-01,1,338,0.812557935714722,knife,knife,0,0338_pow_s01_0_knife_35_n03041632_20504.png
subject-01,1,339,0.982484102249146,bear,bear,pow,0339_pow_s01_pow_bear_35_n02132136_15870.png
subject-01,1,340,0.782447099685669,car,car,0,0340_pow_s01_0_car_35_n02814533_11273.png
subject-01,1,341,0.82230019569397,elephant,elephant,0,0341_pow_s01_0_elephant_35_n02504013_2476.png
subject-01,1,342,1.2959930896759,bear,bear,0,0342_pow_s01_0_bear_35_n02133161_14945.png
subject-01,1,343,0.889878034591675,car,car,0,0343_pow_s01_0_car_35_n04285008_7870.png
subject-01,1,344,0.697613954544067,airplane,airplane,0,0344_pow_s01_0_airplane_35_n02690373_10129.png
subject-01,1,345,0.989300966262817,cat,truck,pow,0345_pow_s01_pow_truck_35_n03417042_1479.png
subject-01,1,346,0.709124803543091,boat,boat,pow,0346_pow_s01_pow_boat_35_n04612504_10662.png
subject-01,1,347,0.714876890182495,bird,bird,0,0347_pow_s01_0_bird_35_n02056570_5891.png
subject-01,1,348,NaN,na,elephant,pow,0348_pow_s01_pow_elephant_35_n02504458_5982.png
subject-01,1,349,0.716478109359741,truck,truck,pow,0349_pow_s01_pow_truck_35_n03417042_19955.png
subject-01,1,350,0.658277988433838,oven,oven,0,0350_pow_s01_0_oven_35_n04111531_6120.png
subject-01,1,351,0.724279880523682,oven,oven,0,0351_pow_s01_0_oven_35_n04111531_4750.png
subject-01,1,352,0.628365993499756,boat,boat,0,0352_pow_s01_0_boat_35_n02951358_29779.png
subject-01,1,353,1.34782385826111,bird,bear,0,0353_pow_s01_0_bear_35_n02134084_14168.png
subject-01,1,354,0.842034101486206,cat,cat,0,0354_pow_s01_0_cat_35_n02123597_6990.png
subject-01,1,355,0.797501802444458,chair,chair,0,0355_pow_s01_0_chair_35_n02791124_2008.png
subject-01,1,356,0.895281076431274,car,car,pow,0356_pow_s01_pow_car_35_n04285008_2185.png
subject-01,1,357,0.755167961120605,bear,bear,0,0357_pow_s01_0_bear_35_n02134084_13205.png
subject-01,1,358,0.913202047348022,bird,bird,pow,0358_pow_s01_pow_bird_35_n01558993_6351.png
subject-01,1,359,1.15869784355164,bicycle,bicycle,0,0359_pow_s01_0_bicycle_35_n02835271_8017.png
subject-01,1,360,0.598397016525269,cat,cat,0,0360_pow_s01_0_cat_35_n02124075_4189.png
subject-01,1,361,0.924216032028198,elephant,elephant,pow,0361_pow_s01_pow_elephant_35_n02504458_3616.png
subject-01,1,362,0.698137998580933,boat,boat,pow,0362_pow_s01_pow_boat_35_n04612504_8636.png
subject-01,1,363,0.86201000213623,car,car,pow,0363_pow_s01_pow_car_35_n03100240_10502.png
subject-01,1,364,0.963866949081421,bottle,bottle,0,0364_pow_s01_0_bottle_35_n03983396_2271.png
subject-01,1,365,0.62951397895813,clock,clock,0,0365_pow_s01_0_clock_35_n04548280_280.png
subject-01,1,366,0.749483108520508,truck,truck,0,0366_pow_s01_0_truck_35_n04467665_356.png
subject-01,1,367,0.79134202003479,airplane,airplane,0,0367_pow_s01_0_airplane_35_n02690373_306.png
subject-01,1,368,1.17137312889099,cat,bird,pow,0368_pow_s01_pow_bird_35_n02007558_11331.png
subject-01,1,369,0.822868824005127,dog,dog,0,0369_pow_s01_0_dog_35_n02105162_1003.png
subject-01,1,370,0.88667106628418,bird,bird,pow,0370_pow_s01_pow_bird_35_n01534433_11695.png
subject-01,1,371,0.678380012512207,oven,oven,0,0371_pow_s01_0_oven_35_n04111531_19631.png
subject-01,1,372,1.0824019908905,cat,elephant,pow,0372_pow_s01_pow_elephant_35_n02504013_8534.png
subject-01,1,373,0.648113965988159,oven,oven,0,0373_pow_s01_0_oven_35_n04111531_10436.png
subject-01,1,374,0.971801996231079,airplane,airplane,pow,0374_pow_s01_pow_airplane_35_n02690373_1819.png
subject-01,1,375,1.36778020858765,cat,cat,0,0375_pow_s01_0_cat_35_n02123597_14032.png
subject-01,1,376,0.913718938827515,elephant,elephant,0,0376_pow_s01_0_elephant_35_n02504013_10922.png
subject-01,1,377,0.745393037796021,boat,boat,0,0377_pow_s01_0_boat_35_n03662601_81.png
subject-01,1,378,0.709233045578003,bottle,bottle,pow,0378_pow_s01_pow_bottle_35_n03937543_11347.png
subject-01,1,379,1.07106709480286,oven,knife,pow,0379_pow_s01_pow_knife_35_n03041632_85416.png
subject-01,1,380,0.768777132034302,car,car,pow,0380_pow_s01_pow_car_35_n03100240_15676.png
subject-01,1,381,0.648757219314575,oven,oven,0,0381_pow_s01_0_oven_35_n04111531_4189.png
subject-01,1,382,0.824429988861084,car,car,pow,0382_pow_s01_pow_car_35_n02814533_65623.png
subject-01,1,383,0.828078031539917,airplane,airplane,0,0383_pow_s01_0_airplane_35_n02690373_4945.png
subject-01,1,384,1.1301531791687,cat,dog,0,0384_pow_s01_0_dog_35_n02088364_5801.png
subject-01,1,385,1.09183382987976,dog,dog,pow,0385_pow_s01_pow_dog_35_n02108915_8164.png
subject-01,1,386,0.73589301109314,car,car,0,0386_pow_s01_0_car_35_n03100240_1435.png
subject-01,1,387,0.823843955993652,clock,clock,0,0387_pow_s01_0_clock_35_n03196217_412.png
subject-01,1,388,1.31928896903992,oven,boat,pow,0388_pow_s01_pow_boat_35_n03344393_6713.png
subject-01,1,389,1.38716602325439,cat,knife,0,0389_pow_s01_0_knife_35_n03041632_4305.png
subject-01,1,390,1.24293088912964,car,car,pow,0390_pow_s01_pow_car_35_n04285008_10287.png
subject-01,1,391,0.838556051254272,car,car,pow,0391_pow_s01_pow_car_35_n04285008_15071.png
subject-01,1,392,1.48861598968506,knife,knife,pow,0392_pow_s01_pow_knife_35_n03041632_22214.png
subject-01,1,393,0.592391967773438,boat,boat,pow,0393_pow_s01_pow_boat_35_n04612504_3064.png
subject-01,1,394,0.690150022506714,chair,chair,0,0394_pow_s01_0_chair_35_n02791124_7193.png
subject-01,1,395,0.584001064300537,boat,boat,0,0395_pow_s01_0_boat_35_n03344393_5511.png
subject-01,1,396,0.682127952575684,boat,boat,pow,0396_pow_s01_pow_boat_35_n04273569_11997.png
subject-01,1,397,0.803593158721924,bicycle,bicycle,0,0397_pow_s01_0_bicycle_35_n03792782_1424.png
subject-01,1,398,0.977295160293579,clock,clock,pow,0398_pow_s01_pow_clock_35_n03196217_3362.png
subject-01,1,399,1.05923295021057,truck,truck,pow,0399_pow_s01_pow_truck_35_n04467665_21942.png
subject-01,1,400,0.898983001708984,clock,oven,0,0400_pow_s01_0_oven_35_n04111531_6445.png
subject-01,1,401,1.0845160484314,chair,chair,0,0401_pow_s01_0_chair_35_n04099969_1163.png
subject-01,1,402,0.746237993240356,clock,clock,pow,0402_pow_s01_pow_clock_35_n02708093_3645.png
subject-01,1,403,0.687979936599731,bicycle,bicycle,0,0403_pow_s01_0_bicycle_35_n03792782_68319.png
subject-01,1,404,0.831674098968506,cat,dog,pow,0404_pow_s01_pow_dog_35_n02111129_513.png
subject-01,1,405,0.743873834609985,airplane,airplane,pow,0405_pow_s01_pow_airplane_35_n02690373_2676.png
subject-01,1,406,0.809400796890259,airplane,airplane,0,0406_pow_s01_0_airplane_35_n02690373_1206.png
subject-01,1,407,0.689318895339966,dog,dog,0,0407_pow_s01_0_dog_35_n02100735_1445.png
subject-01,1,408,0.737213850021362,dog,dog,pow,0408_pow_s01_pow_dog_35_n02102040_312.png
subject-01,1,409,0.846801042556763,keyboard,keyboard,0,0409_pow_s01_0_keyboard_35_n03085013_22996.png
subject-01,1,410,0.546506881713867,boat,boat,0,0410_pow_s01_0_boat_35_n04612504_434.png
subject-01,1,411,0.624820947647095,cat,cat,0,0411_pow_s01_0_cat_35_n02123597_14639.png
subject-01,1,412,0.760699987411499,cat,cat,pow,0412_pow_s01_pow_cat_35_n02123159_2043.png
subject-01,1,413,0.620218992233276,clock,clock,pow,0413_pow_s01_pow_clock_35_n03196217_3647.png
subject-01,1,414,0.716104984283447,oven,oven,0,0414_pow_s01_0_oven_35_n04111531_19795.png
subject-01,1,415,0.719868898391724,truck,truck,pow,0415_pow_s01_pow_truck_35_n03417042_18625.png
subject-01,1,416,0.88189697265625,elephant,elephant,pow,0416_pow_s01_pow_elephant_35_n02504013_1763.png
subject-01,1,417,0.663590908050537,chair,chair,0,0417_pow_s01_0_chair_35_n04099969_13105.png
subject-01,1,418,1.08149600028992,bird,bicycle,pow,0418_pow_s01_pow_bicycle_35_n03792782_4931.png
subject-01,1,419,0.827250003814697,bear,bear,0,0419_pow_s01_0_bear_35_n02134418_4513.png
subject-01,1,420,0.616883039474487,cat,cat,pow,0420_pow_s01_pow_cat_35_n02123045_11224.png
subject-01,1,421,1.02045321464539,truck,chair,0,0421_pow_s01_0_chair_35_n02791124_359.png
subject-01,1,422,1.27831101417542,knife,clock,pow,0422_pow_s01_pow_clock_35_n04548280_2654.png
subject-01,1,423,0.672086954116821,cat,cat,pow,0423_pow_s01_pow_cat_35_n02123394_4713.png
subject-01,1,424,1.19390296936035,bottle,bottle,pow,0424_pow_s01_pow_bottle_35_n04557648_94.png
subject-01,1,425,0.699877023696899,chair,chair,0,0425_pow_s01_0_chair_35_n04099969_15676.png
subject-01,1,426,0.635692119598389,boat,boat,pow,0426_pow_s01_pow_boat_35_n02951358_537.png
subject-01,1,427,0.745532035827637,keyboard,clock,0,0427_pow_s01_0_clock_35_n03196217_1376.png
subject-01,1,428,1.04127192497253,chair,chair,pow,0428_pow_s01_pow_chair_35_n02791124_1594.png
subject-01,1,429,1.14315605163574,bird,bird,0,0429_pow_s01_0_bird_35_n02007558_7112.png
subject-01,1,430,0.887035131454468,bicycle,bicycle,0,0430_pow_s01_0_bicycle_35_n02835271_6094.png
subject-01,1,431,0.773154973983765,airplane,airplane,pow,0431_pow_s01_pow_airplane_35_n02690373_7676.png
subject-01,1,432,0.650677919387817,cat,cat,pow,0432_pow_s01_pow_cat_35_n02123045_3375.png
subject-01,1,433,0.730316162109375,bicycle,bicycle,0,0433_pow_s01_0_bicycle_35_n02835271_15617.png
subject-01,1,434,0.966364860534668,boat,oven,pow,0434_pow_s01_pow_oven_35_n04111531_4904.png
subject-01,1,435,0.99407696723938,boat,boat,0,0435_pow_s01_0_boat_35_n02951358_5718.png
subject-01,1,436,1.11382007598877,cat,elephant,pow,0436_pow_s01_pow_elephant_35_n02504013_7467.png
subject-01,1,437,0.785643100738525,elephant,elephant,pow,0437_pow_s01_pow_elephant_35_n02504013_1830.png
subject-01,1,438,0.817426919937134,car,car,0,0438_pow_s01_0_car_35_n02814533_59762.png
subject-01,1,439,0.835184812545776,elephant,bicycle,pow,0439_pow_s01_pow_bicycle_35_n02835271_771.png
subject-01,1,440,0.693079948425293,bicycle,bicycle,pow,0440_pow_s01_pow_bicycle_35_n02835271_4313.png
subject-01,1,441,0.876798152923584,bear,bear,0,0441_pow_s01_0_bear_35_n02132136_891.png
subject-01,1,442,0.690714836120605,bear,bear,pow,0442_pow_s01_pow_bear_35_n02132136_18276.png
subject-01,1,443,0.824567079544067,elephant,elephant,pow,0443_pow_s01_pow_elephant_35_n02504013_2865.png
subject-01,1,444,0.546442985534668,boat,boat,0,0444_pow_s01_0_boat_35_n03662601_10120.png
subject-01,1,445,1.06032109260559,knife,bottle,pow,0445_pow_s01_pow_bottle_35_n03983396_4241.png
subject-01,1,446,0.883985996246338,elephant,elephant,pow,0446_pow_s01_pow_elephant_35_n02504458_8254.png
subject-01,1,447,0.825581073760986,boat,boat,pow,0447_pow_s01_pow_boat_35_n04612504_857.png
subject-01,1,448,0.821489095687866,car,car,pow,0448_pow_s01_pow_car_35_n04285008_6037.png
subject-01,1,449,0.95931601524353,elephant,elephant,pow,0449_pow_s01_pow_elephant_35_n02504458_2888.png
subject-01,1,450,0.869061231613159,elephant,elephant,0,0450_pow_s01_0_elephant_35_n02504013_6257.png
subject-01,1,451,0.638849973678589,car,car,0,0451_pow_s01_0_car_35_n04285008_8616.png
subject-01,1,452,0.940848827362061,bird,bird,0,0452_pow_s01_0_bird_35_n01537544_5372.png
subject-01,1,453,0.774607181549072,airplane,airplane,pow,0453_pow_s01_pow_airplane_35_n02690373_2498.png
subject-01,1,454,0.832431077957153,dog,dog,0,0454_pow_s01_0_dog_35_n02099601_2980.png
subject-01,1,455,1.34034514427185,car,keyboard,pow,0455_pow_s01_pow_keyboard_35_n04505470_1904.png
subject-01,1,456,0.700042963027954,airplane,airplane,0,0456_pow_s01_0_airplane_35_n02690373_2967.png
subject-01,1,457,1.01173806190491,car,car,0,0457_pow_s01_0_car_35_n04285008_7508.png
subject-01,1,458,0.913583993911743,bird,bird,0,0458_pow_s01_0_bird_35_n02051845_6652.png
subject-01,1,459,0.917468786239624,car,truck,pow,0459_pow_s01_pow_truck_35_n03796401_6737.png
subject-01,1,460,0.743526935577393,car,bottle,pow,0460_pow_s01_pow_bottle_35_n03937543_2177.png
subject-01,1,461,0.991132020950317,keyboard,keyboard,pow,0461_pow_s01_pow_keyboard_35_n03085013_6432.png
subject-01,1,462,0.662957906723022,bird,bird,0,0462_pow_s01_0_bird_35_n01530575_10212.png
subject-01,1,463,0.622774124145508,boat,boat,pow,0463_pow_s01_pow_boat_35_n04273569_31649.png
subject-01,1,464,0.666517019271851,keyboard,keyboard,0,0464_pow_s01_0_keyboard_35_n04505470_2869.png
subject-01,1,465,0.706330060958862,oven,oven,0,0465_pow_s01_0_oven_35_n04111531_5110.png
subject-01,1,466,0.670226097106934,bottle,bottle,pow,0466_pow_s01_pow_bottle_35_n04579145_4389.png
subject-01,1,467,0.675920963287354,bottle,bottle,0,0467_pow_s01_0_bottle_35_n04557648_9310.png
subject-01,1,468,1.00179815292358,cat,dog,pow,0468_pow_s01_pow_dog_35_n02108000_6061.png
subject-01,1,469,1.04189801216125,knife,knife,pow,0469_pow_s01_pow_knife_35_n03041632_84240.png
subject-01,1,470,1.09378290176392,cat,cat,pow,0470_pow_s01_pow_cat_35_n02123394_3718.png
subject-01,1,471,1.37127685546875,bird,dog,pow,0471_pow_s01_pow_dog_35_n02098105_2157.png
subject-01,1,472,0.541069984436035,clock,clock,0,0472_pow_s01_0_clock_35_n04548280_2601.png
subject-01,1,473,0.592809915542603,cat,cat,0,0473_pow_s01_0_cat_35_n02123394_4286.png
subject-01,1,474,0.63878607749939,bottle,bottle,0,0474_pow_s01_0_bottle_35_n02823428_4569.png
subject-01,1,475,0.732439041137695,cat,bird,pow,0475_pow_s01_pow_bird_35_n02017213_15747.png
subject-01,1,476,1.02013397216797,bicycle,bicycle,0,0476_pow_s01_0_bicycle_35_n03792782_11390.png
subject-01,1,477,0.694154977798462,car,car,0,0477_pow_s01_0_car_35_n02814533_4374.png
subject-01,1,478,0.845916986465454,keyboard,keyboard,0,0478_pow_s01_0_keyboard_35_n04505470_5137.png
subject-01,1,479,0.741771936416626,elephant,elephant,0,0479_pow_s01_0_elephant_35_n02504013_306.png
subject-01,1,480,0.561490058898926,boat,boat,0,0480_pow_s01_0_boat_35_n02951358_14624.png
subject-01,1,481,0.75755786895752,cat,cat,pow,0481_pow_s01_pow_cat_35_n02125311_28114.png
subject-01,1,482,0.615533113479614,car,car,pow,0482_pow_s01_pow_car_35_n03100240_6259.png
subject-01,1,483,0.76333212852478,cat,cat,pow,0483_pow_s01_pow_cat_35_n02125311_12361.png
subject-01,1,484,0.757054090499878,bird,bird,0,0484_pow_s01_0_bird_35_n01833805_16468.png
subject-01,1,485,0.89470100402832,cat,dog,pow,0485_pow_s01_pow_dog_35_n02110063_6748.png
subject-01,1,486,0.9585120677948,bear,clock,pow,0486_pow_s01_pow_clock_35_n04548280_2943.png
subject-01,1,487,0.990577936172485,oven,chair,pow,0487_pow_s01_pow_chair_35_n03376595_14619.png
subject-01,1,488,0.99613094329834,car,car,0,0488_pow_s01_0_car_35_n03100240_5719.png
subject-01,1,489,0.651949167251587,cat,dog,0,0489_pow_s01_0_dog_35_n02093754_4677.png
subject-01,1,490,1.15969300270081,boat,boat,pow,0490_pow_s01_pow_boat_35_n04273569_113.png
subject-01,1,491,1.03550100326538,clock,clock,pow,0491_pow_s01_pow_clock_35_n02708093_148.png
subject-01,1,492,0.555356025695801,cat,cat,0,0492_pow_s01_0_cat_35_n02125311_53223.png
subject-01,1,493,0.81916618347168,bottle,knife,0,0493_pow_s01_0_knife_35_n03041632_7982.png
subject-01,1,494,1.45298910140991,elephant,elephant,0,0494_pow_s01_0_elephant_35_n02504013_7273.png
subject-01,1,495,0.944820880889893,truck,truck,pow,0495_pow_s01_pow_truck_35_n03417042_26102.png
subject-01,1,496,1.48705101013184,car,car,pow,0496_pow_s01_pow_car_35_n02814533_874.png
subject-01,1,497,0.9164719581604,bicycle,bicycle,0,0497_pow_s01_0_bicycle_35_n03792782_21148.png
subject-01,1,498,0.776236057281494,oven,oven,pow,0498_pow_s01_pow_oven_35_n04111531_4146.png
subject-01,1,499,0.89012885093689,keyboard,keyboard,pow,0499_pow_s01_pow_keyboard_35_n03085013_21183.png
subject-01,1,500,0.760317802429199,boat,boat,0,0500_pow_s01_0_boat_35_n04612504_19147.png
subject-01,1,501,0.917682886123657,bear,bear,0,0501_pow_s01_0_bear_35_n02133161_2044.png
subject-01,1,502,0.799968957901001,bottle,bottle,pow,0502_pow_s01_pow_bottle_35_n04579145_3894.png
subject-01,1,503,0.743348121643066,bicycle,bicycle,0,0503_pow_s01_0_bicycle_35_n03792782_13399.png
subject-01,1,504,0.985327005386353,bottle,knife,pow,0504_pow_s01_pow_knife_35_n03041632_21818.png
subject-01,1,505,0.72314715385437,chair,chair,0,0505_pow_s01_0_chair_35_n03376595_7010.png
subject-01,1,506,0.826924085617065,oven,oven,0,0506_pow_s01_0_oven_35_n04111531_4.png
subject-01,1,507,0.986495018005371,bird,bird,pow,0507_pow_s01_pow_bird_35_n01820546_6471.png
subject-01,1,508,0.696513891220093,bear,bear,pow,0508_pow_s01_pow_bear_35_n02132136_10352.png
subject-01,1,509,0.638171911239624,clock,clock,pow,0509_pow_s01_pow_clock_35_n04548280_8348.png
subject-01,1,510,0.809981822967529,elephant,elephant,0,0510_pow_s01_0_elephant_35_n02504013_5087.png
subject-01,1,511,0.583714008331299,boat,airplane,pow,0511_pow_s01_pow_airplane_35_n02690373_60.png
subject-01,1,512,0.685735940933228,clock,chair,pow,0512_pow_s01_pow_chair_35_n02791124_16085.png
subject-01,1,513,0.843916893005371,bottle,bottle,0,0513_pow_s01_0_bottle_35_n02823428_3611.png
subject-01,1,514,0.913623094558716,bird,bird,pow,0514_pow_s01_pow_bird_35_n01614925_8653.png
subject-01,1,515,0.873023986816406,bird,bird,pow,0515_pow_s01_pow_bird_35_n01537544_9881.png
subject-01,1,516,0.898768901824951,knife,knife,0,0516_pow_s01_0_knife_35_n03041632_35365.png
subject-01,1,517,1.20485901832581,bear,bear,0,0517_pow_s01_0_bear_35_n02132136_23202.png
subject-01,1,518,0.69244909286499,oven,oven,0,0518_pow_s01_0_oven_35_n04111531_3976.png
subject-01,1,519,1.46026611328125,chair,chair,pow,0519_pow_s01_pow_chair_35_n04429376_32124.png
subject-01,1,520,1.41817903518677,bear,bear,pow,0520_pow_s01_pow_bear_35_n02134418_848.png
subject-01,1,521,0.837899923324585,boat,boat,0,0521_pow_s01_0_boat_35_n03344393_7374.png
subject-01,1,522,1.1839599609375,bird,bird,pow,0522_pow_s01_pow_bird_35_n01532829_3914.png
subject-01,1,523,0.96962308883667,keyboard,keyboard,0,0523_pow_s01_0_keyboard_35_n04505470_5902.png
subject-01,1,524,0.827610969543457,truck,truck,pow,0524_pow_s01_pow_truck_35_n03417042_11165.png
subject-01,1,525,0.779176950454712,clock,clock,0,0525_pow_s01_0_clock_35_n02708093_5.png
subject-01,1,526,1.11924695968628,bird,elephant,pow,0526_pow_s01_pow_elephant_35_n02504458_4187.png
subject-01,1,527,0.824908018112183,knife,knife,0,0527_pow_s01_0_knife_35_n03041632_10802.png
subject-01,1,528,0.62060809135437,car,car,0,0528_pow_s01_0_car_35_n04285008_16647.png
subject-01,1,529,0.998523950576782,dog,dog,0,0529_pow_s01_0_dog_35_n02104365_3004.png
subject-01,1,530,0.866247892379761,elephant,elephant,pow,0530_pow_s01_pow_elephant_35_n02504013_21616.png
subject-01,1,531,0.804172039031982,keyboard,keyboard,0,0531_pow_s01_0_keyboard_35_n03085013_23465.png
subject-01,1,532,0.651926040649414,boat,airplane,pow,0532_pow_s01_pow_airplane_35_n02690373_911.png
subject-01,1,533,0.811935901641846,elephant,elephant,0,0533_pow_s01_0_elephant_35_n02504013_1454.png
subject-01,1,534,0.719549894332886,bicycle,bicycle,0,0534_pow_s01_0_bicycle_35_n03792782_70690.png
subject-01,1,535,1.27965402603149,chair,chair,0,0535_pow_s01_0_chair_35_n04429376_31206.png
subject-01,1,536,0.521147966384888,clock,clock,0,0536_pow_s01_0_clock_35_n02708093_2498.png
subject-01,1,537,0.821059942245483,keyboard,keyboard,0,0537_pow_s01_0_keyboard_35_n04505470_1728.png
subject-01,1,538,0.698901891708374,truck,truck,pow,0538_pow_s01_pow_truck_35_n03417042_6608.png
subject-01,1,539,0.888561010360718,bird,bird,0,0539_pow_s01_0_bird_35_n02013706_1016.png
subject-01,1,540,0.66234302520752,clock,clock,0,0540_pow_s01_0_clock_35_n04548280_5011.png
subject-01,1,541,0.592178106307983,bicycle,bicycle,0,0541_pow_s01_0_bicycle_35_n02835271_19557.png
subject-01,1,542,0.800457000732422,elephant,bear,pow,0542_pow_s01_pow_bear_35_n02134084_5827.png
subject-01,1,543,1.16780209541321,dog,dog,pow,0543_pow_s01_pow_dog_35_n02096585_1894.png
subject-01,1,544,0.948101043701172,boat,boat,pow,0544_pow_s01_pow_boat_35_n02951358_34234.png
subject-01,1,545,0.715713977813721,cat,cat,pow,0545_pow_s01_pow_cat_35_n02123597_5514.png
subject-01,1,546,1.05750298500061,bear,oven,pow,0546_pow_s01_pow_oven_35_n04111531_3580.png
subject-01,1,547,0.919497013092041,airplane,airplane,0,0547_pow_s01_0_airplane_35_n02690373_7107.png
subject-01,1,548,0.938915014266968,cat,cat,0,0548_pow_s01_0_cat_35_n02123159_5224.png
subject-01,1,549,0.736632108688354,bear,bear,pow,0549_pow_s01_pow_bear_35_n02133161_6679.png
subject-01,1,550,0.75253701210022,cat,dog,0,0550_pow_s01_0_dog_35_n02106030_22.png
subject-01,1,551,0.840581893920898,truck,truck,0,0551_pow_s01_0_truck_35_n03417042_4574.png
subject-01,1,552,0.87426495552063,dog,dog,pow,0552_pow_s01_pow_dog_35_n02097298_7577.png
subject-01,1,553,1.00207805633545,dog,dog,pow,0553_pow_s01_pow_dog_35_n02093428_16873.png
subject-01,1,554,0.94778299331665,bear,bear,0,0554_pow_s01_0_bear_35_n02132136_4157.png
subject-01,1,555,0.627655982971191,bottle,bottle,0,0555_pow_s01_0_bottle_35_n02823428_2007.png
subject-01,1,556,0.889675855636597,cat,keyboard,0,0556_pow_s01_0_keyboard_35_n03085013_24272.png
subject-01,1,557,0.79566502571106,oven,oven,0,0557_pow_s01_0_oven_35_n04111531_2074.png
subject-01,1,558,1.10104703903198,bear,bird,pow,0558_pow_s01_pow_bird_35_n01532829_4536.png
subject-01,1,559,0.781339168548584,dog,dog,0,0559_pow_s01_0_dog_35_n02109047_17100.png
subject-01,1,560,0.710726976394653,oven,oven,pow,0560_pow_s01_pow_oven_35_n04111531_4407.png
subject-01,1,561,0.771804094314575,airplane,airplane,0,0561_pow_s01_0_airplane_35_n02690373_8069.png
subject-01,1,562,0.717487096786499,bottle,bottle,0,0562_pow_s01_0_bottle_35_n04560804_8921.png
subject-01,1,563,0.667427062988281,bottle,bottle,pow,0563_pow_s01_pow_bottle_35_n03937543_2936.png
subject-01,1,564,0.689152002334595,cat,cat,0,0564_pow_s01_0_cat_35_n02123045_8031.png
subject-01,1,565,0.685058116912842,oven,oven,0,0565_pow_s01_0_oven_35_n04111531_3805.png
subject-01,1,566,0.998929023742676,truck,truck,0,0566_pow_s01_0_truck_35_n03417042_27231.png
subject-01,1,567,0.940670013427734,elephant,elephant,0,0567_pow_s01_0_elephant_35_n02504013_7232.png
subject-01,1,568,1.02666616439819,truck,knife,0,0568_pow_s01_0_knife_35_n03041632_5102.png
subject-01,1,569,1.07440280914307,dog,dog,pow,0569_pow_s01_pow_dog_35_n02110958_8916.png
subject-01,1,570,0.706093072891235,bottle,bottle,pow,0570_pow_s01_pow_bottle_35_n04557648_9790.png
subject-01,1,571,0.497928857803345,cat,cat,pow,0571_pow_s01_pow_cat_35_n02123394_3786.png
subject-01,1,572,0.783792972564697,truck,truck,0,0572_pow_s01_0_truck_35_n04467665_19132.png
subject-01,1,573,0.869661092758179,truck,truck,pow,0573_pow_s01_pow_truck_35_n03796401_2934.png
subject-01,1,574,0.78526782989502,bicycle,bicycle,0,0574_pow_s01_0_bicycle_35_n02835271_12799.png
subject-01,1,575,1.06321907043457,car,car,0,0575_pow_s01_0_car_35_n02814533_1297.png
subject-01,1,576,0.968892097473145,bear,bear,pow,0576_pow_s01_pow_bear_35_n02134418_1974.png
subject-01,1,577,0.609204053878784,cat,cat,0,0577_pow_s01_0_cat_35_n02124075_2843.png
subject-01,1,578,0.670594930648804,cat,cat,0,0578_pow_s01_0_cat_35_n02123597_5697.png
subject-01,1,579,1.13847589492798,bear,bicycle,pow,0579_pow_s01_pow_bicycle_35_n02835271_2315.png
subject-01,1,580,0.748151063919067,keyboard,keyboard,0,0580_pow_s01_0_keyboard_35_n04505470_4515.png
subject-01,1,581,1.02597713470459,knife,knife,pow,0581_pow_s01_pow_knife_35_n03041632_4269.png
subject-01,1,582,1.42997288703918,cat,cat,0,0582_pow_s01_0_cat_35_n02123045_12010.png
subject-01,1,583,0.779863834381104,clock,clock,0,0583_pow_s01_0_clock_35_n03196217_6467.png
subject-01,1,584,0.655786991119385,bottle,bottle,pow,0584_pow_s01_pow_bottle_35_n03983396_2864.png
subject-01,1,585,1.02107882499695,airplane,bottle,0,0585_pow_s01_0_bottle_35_n04557648_10171.png
subject-01,1,586,0.951145172119141,bird,bird,pow,0586_pow_s01_pow_bird_35_n01860187_2052.png
subject-01,1,587,1.20102715492249,car,car,0,0587_pow_s01_0_car_35_n04285008_5897.png
subject-01,1,588,0.766999959945679,elephant,elephant,0,0588_pow_s01_0_elephant_35_n02504458_4721.png
subject-01,1,589,0.696858167648315,car,car,0,0589_pow_s01_0_car_35_n02814533_93476.png
subject-01,1,590,1.11629796028137,bear,bird,pow,0590_pow_s01_pow_bird_35_n01824575_10337.png
subject-01,1,591,0.844210147857666,cat,dog,pow,0591_pow_s01_pow_dog_35_n02100735_10683.png
subject-01,1,592,1.35608100891113,airplane,airplane,pow,0592_pow_s01_pow_airplane_35_n02690373_4402.png
subject-01,1,593,0.747743129730225,airplane,airplane,0,0593_pow_s01_0_airplane_35_n02690373_4350.png
subject-01,1,594,0.823853015899658,bottle,bottle,pow,0594_pow_s01_pow_bottle_35_n02823428_6327.png
subject-01,1,595,0.931494951248169,dog,dog,pow,0595_pow_s01_pow_dog_35_n02104029_3041.png
subject-01,1,596,0.86720609664917,elephant,elephant,pow,0596_pow_s01_pow_elephant_35_n02504013_24810.png
subject-01,1,597,0.797213077545166,clock,clock,pow,0597_pow_s01_pow_clock_35_n04548280_4473.png
subject-01,1,598,0.738938093185425,dog,dog,pow,0598_pow_s01_pow_dog_35_n02107908_5597.png
subject-01,1,599,1.03483295440674,truck,truck,0,0599_pow_s01_0_truck_35_n04467665_57697.png
subject-01,1,600,0.844609975814819,bottle,bottle,pow,0600_pow_s01_pow_bottle_35_n03983396_6889.png
subject-01,1,601,0.92043399810791,bear,bear,pow,0601_pow_s01_pow_bear_35_n02134418_1826.png
subject-01,1,602,0.708011865615845,cat,cat,pow,0602_pow_s01_pow_cat_35_n02123159_4687.png
subject-01,1,603,0.818158864974976,boat,boat,pow,0603_pow_s01_pow_boat_35_n03344393_5798.png
subject-01,1,604,0.741719007492065,car,car,pow,0604_pow_s01_pow_car_35_n04285008_11745.png
subject-01,1,605,0.951545000076294,clock,clock,0,0605_pow_s01_0_clock_35_n02708093_353.png
subject-01,1,606,0.807355165481567,airplane,airplane,0,0606_pow_s01_0_airplane_35_n02690373_4763.png
subject-01,1,607,0.861693859100342,elephant,elephant,0,0607_pow_s01_0_elephant_35_n02504013_18498.png
subject-01,1,608,1.02713990211487,bird,cat,pow,0608_pow_s01_pow_cat_35_n02123394_159.png
subject-01,1,609,0.608658075332642,boat,boat,0,0609_pow_s01_0_boat_35_n03662601_18676.png
subject-01,1,610,0.930525064468384,truck,truck,pow,0610_pow_s01_pow_truck_35_n03796401_1789.png
subject-01,1,611,0.802629947662354,chair,chair,0,0611_pow_s01_0_chair_35_n04099969_4816.png
subject-01,1,612,1.45860409736633,elephant,elephant,0,0612_pow_s01_0_elephant_35_n02504458_7013.png
subject-01,1,613,1.01991987228394,knife,knife,pow,0613_pow_s01_pow_knife_35_n03041632_92637.png
subject-01,1,614,0.946048974990845,keyboard,keyboard,0,0614_pow_s01_0_keyboard_35_n03085013_19607.png
subject-01,1,615,0.607537984848022,cat,cat,pow,0615_pow_s01_pow_cat_35_n02123597_1027.png
subject-01,1,616,0.717381000518799,bicycle,bicycle,0,0616_pow_s01_0_bicycle_35_n02835271_9135.png
subject-01,1,617,0.943537950515747,dog,dog,pow,0617_pow_s01_pow_dog_35_n02111500_3896.png
subject-01,1,618,0.787207126617432,keyboard,oven,0,0618_pow_s01_0_oven_35_n04111531_8398.png
subject-01,1,619,0.630899906158447,oven,oven,0,0619_pow_s01_0_oven_35_n04111531_6049.png
subject-01,1,620,0.967067003250122,oven,chair,pow,0620_pow_s01_pow_chair_35_n03376595_6947.png
subject-01,1,621,0.982404947280884,cat,dog,pow,0621_pow_s01_pow_dog_35_n02097658_6717.png
subject-01,1,622,1.01844191551208,knife,knife,0,0622_pow_s01_0_knife_35_n03041632_21560.png
subject-01,1,623,1.17216300964355,bird,boat,pow,0623_pow_s01_pow_boat_35_n03662601_7642.png
subject-01,1,624,1.07970905303955,car,car,0,0624_pow_s01_0_car_35_n04285008_1313.png
subject-01,1,625,0.924082040786743,chair,chair,pow,0625_pow_s01_pow_chair_35_n03376595_6409.png
subject-01,1,626,1.08581709861755,cat,bear,pow,0626_pow_s01_pow_bear_35_n02133161_6028.png
subject-01,1,627,0.757499933242798,elephant,bear,pow,0627_pow_s01_pow_bear_35_n02132136_29029.png
subject-01,1,628,1.14946293830872,truck,truck,0,0628_pow_s01_0_truck_35_n04467665_7290.png
subject-01,1,629,0.968947887420654,bird,bird,pow,0629_pow_s01_pow_bird_35_n01537544_9745.png
subject-01,1,630,0.794806957244873,bicycle,bicycle,0,0630_pow_s01_0_bicycle_35_n03792782_15845.png
subject-01,1,631,0.772686004638672,bear,bear,pow,0631_pow_s01_pow_bear_35_n02133161_8982.png
subject-01,1,632,0.824615955352783,knife,knife,0,0632_pow_s01_0_knife_35_n03041632_6575.png
subject-01,1,633,0.764211893081665,knife,knife,0,0633_pow_s01_0_knife_35_n03041632_32785.png
subject-01,1,634,0.906088829040527,oven,chair,pow,0634_pow_s01_pow_chair_35_n04429376_12691.png
subject-01,1,635,1.19826793670654,dog,dog,pow,0635_pow_s01_pow_dog_35_n02097298_6578.png
subject-01,1,636,0.878026962280273,knife,knife,pow,0636_pow_s01_pow_knife_35_n03041632_94995.png
subject-01,1,637,0.875420808792114,clock,clock,0,0637_pow_s01_0_clock_35_n02708093_41.png
subject-01,1,638,0.703396081924438,keyboard,keyboard,0,0638_pow_s01_0_keyboard_35_n03085013_7892.png
subject-01,1,639,1.01109099388123,knife,knife,pow,0639_pow_s01_pow_knife_35_n03041632_84048.png
subject-01,1,640,0.808771133422852,airplane,airplane,0,0640_pow_s01_0_airplane_35_n02690373_3415.png
subject-01,1,641,1.36107587814331,knife,knife,0,0641_pow_s01_0_knife_35_n03041632_31483.png
subject-01,1,642,0.768598079681396,dog,dog,0,0642_pow_s01_0_dog_35_n02110958_368.png
subject-01,1,643,0.730329990386963,bird,bird,0,0643_pow_s01_0_bird_35_n02051845_539.png
subject-01,1,644,0.700179100036621,bear,bear,0,0644_pow_s01_0_bear_35_n02134084_11187.png
subject-01,1,645,0.793910026550293,bird,bird,0,0645_pow_s01_0_bird_35_n01531178_17387.png
subject-01,1,646,0.881827831268311,keyboard,keyboard,0,0646_pow_s01_0_keyboard_35_n04505470_5131.png
subject-01,1,647,0.677648067474365,cat,cat,0,0647_pow_s01_0_cat_35_n02123159_2246.png
subject-01,1,648,0.843248128890991,oven,oven,0,0648_pow_s01_0_oven_35_n04111531_1725.png
subject-01,1,649,0.539262056350708,clock,clock,0,0649_pow_s01_0_clock_35_n02708093_2295.png
subject-01,1,650,0.903141975402832,bear,cat,pow,0650_pow_s01_pow_cat_35_n02125311_5013.png
subject-01,1,651,1.14473104476929,cat,keyboard,pow,0651_pow_s01_pow_keyboard_35_n03085013_24665.png
subject-01,1,652,0.830729961395264,elephant,elephant,pow,0652_pow_s01_pow_elephant_35_n02504013_9678.png
subject-01,1,653,0.678362846374512,keyboard,keyboard,0,0653_pow_s01_0_keyboard_35_n03085013_7858.png
subject-01,1,654,0.610259056091309,boat,boat,0,0654_pow_s01_0_boat_35_n04612504_2089.png
subject-01,1,655,0.804255962371826,dog,dog,0,0655_pow_s01_0_dog_35_n02091831_4183.png
subject-01,1,656,0.621936082839966,cat,cat,0,0656_pow_s01_0_cat_35_n02125311_475.png
subject-01,1,657,0.73169994354248,clock,clock,0,0657_pow_s01_0_clock_35_n03196217_2607.png
subject-01,1,658,0.751391887664795,car,car,0,0658_pow_s01_0_car_35_n02814533_93487.png
subject-01,1,659,0.7132728099823,dog,dog,0,0659_pow_s01_0_dog_35_n02108000_6270.png
subject-01,1,660,0.655152082443237,chair,chair,pow,0660_pow_s01_pow_chair_35_n04099969_20900.png
subject-01,1,661,0.751073122024536,car,car,0,0661_pow_s01_0_car_35_n03100240_8483.png
subject-01,1,662,0.884884834289551,chair,chair,0,0662_pow_s01_0_chair_35_n03376595_2056.png
subject-01,1,663,1.11071300506592,boat,boat,pow,0663_pow_s01_pow_boat_35_n04612504_2479.png
subject-01,1,664,0.758318185806274,cat,cat,pow,0664_pow_s01_pow_cat_35_n02123045_5228.png
subject-01,1,665,0.808613061904907,airplane,airplane,0,0665_pow_s01_0_airplane_35_n02690373_10404.png
subject-01,1,666,1.13593506813049,bear,knife,0,0666_pow_s01_0_knife_35_n03041632_29427.png
subject-01,1,667,0.589855909347534,bottle,oven,0,0667_pow_s01_0_oven_35_n04111531_7355.png
subject-01,1,668,0.635756969451904,clock,clock,0,0668_pow_s01_0_clock_35_n03196217_3333.png
subject-01,1,669,1.00154209136963,bird,bird,0,0669_pow_s01_0_bird_35_n02027492_9905.png
subject-01,1,670,1.19512414932251,airplane,airplane,0,0670_pow_s01_0_airplane_35_n02690373_9709.png
subject-01,1,671,0.972975969314575,clock,clock,0,0671_pow_s01_0_clock_35_n03196217_3558.png
subject-01,1,672,1.4569079875946,elephant,elephant,pow,0672_pow_s01_pow_elephant_35_n02504013_1854.png
subject-01,1,673,1.42458200454712,bottle,boat,pow,0673_pow_s01_pow_boat_35_n03662601_15566.png
subject-01,1,674,1.4783718585968,oven,chair,pow,0674_pow_s01_pow_chair_35_n03376595_235.png
subject-01,1,675,0.682301998138428,boat,boat,0,0675_pow_s01_0_boat_35_n03344393_7669.png
subject-01,1,676,0.916166067123413,bird,cat,pow,0676_pow_s01_pow_cat_35_n02123159_4952.png
subject-01,1,677,1.15186810493469,truck,truck,pow,0677_pow_s01_pow_truck_35_n03417042_16403.png
subject-01,1,678,1.0655369758606,cat,dog,pow,0678_pow_s01_pow_dog_35_n02094258_794.png
subject-01,1,679,0.991827011108398,knife,knife,0,0679_pow_s01_0_knife_35_n03041632_3504.png
subject-01,1,680,1.04725313186646,truck,truck,0,0680_pow_s01_0_truck_35_n03796401_10878.png
subject-01,1,681,1.1250958442688,cat,bear,0,0681_pow_s01_0_bear_35_n02134084_13029.png
subject-01,1,682,1.19541382789612,bird,bird,pow,0682_pow_s01_pow_bird_35_n01534433_14336.png
subject-01,1,683,0.786906957626343,bottle,bottle,0,0683_pow_s01_0_bottle_35_n04560804_647.png
subject-01,1,684,0.942574024200439,airplane,airplane,0,0684_pow_s01_0_airplane_35_n02690373_4107.png
subject-01,1,685,1.31047892570496,chair,chair,0,0685_pow_s01_0_chair_35_n04429376_8069.png
subject-01,1,686,0.990361928939819,oven,oven,pow,0686_pow_s01_pow_oven_35_n04111531_23668.png
subject-01,1,687,0.960161924362183,airplane,airplane,pow,0687_pow_s01_pow_airplane_35_n02690373_1071.png
subject-01,1,688,0.857856035232544,elephant,elephant,0,0688_pow_s01_0_elephant_35_n02504458_7841.png
subject-01,1,689,0.841681003570557,elephant,elephant,0,0689_pow_s01_0_elephant_35_n02504458_7777.png
subject-01,1,690,0.569593191146851,clock,clock,0,0690_pow_s01_0_clock_35_n02708093_8179.png
subject-01,1,691,0.601542949676514,oven,oven,pow,0691_pow_s01_pow_oven_35_n04111531_12702.png
subject-01,1,692,1.00717401504517,oven,oven,pow,0692_pow_s01_pow_oven_35_n04111531_14441.png
subject-01,1,693,0.953006982803345,bicycle,bicycle,0,0693_pow_s01_0_bicycle_35_n03792782_2435.png
subject-01,1,694,0.872763156890869,car,boat,pow,0694_pow_s01_pow_boat_35_n04273569_23162.png
subject-01,1,695,0.616496801376343,cat,cat,0,0695_pow_s01_0_cat_35_n02123159_5270.png
subject-01,1,696,0.828263998031616,elephant,elephant,0,0696_pow_s01_0_elephant_35_n02504013_3410.png
subject-01,1,697,0.61611795425415,cat,cat,0,0697_pow_s01_0_cat_35_n02123394_506.png
subject-01,1,698,0.630006074905396,clock,bottle,0,0698_pow_s01_0_bottle_35_n04579145_2202.png
subject-01,1,699,0.861759901046753,bicycle,bicycle,pow,0699_pow_s01_pow_bicycle_35_n03792782_3357.png
subject-01,1,700,0.765681982040405,bicycle,bicycle,0,0700_pow_s01_0_bicycle_35_n03792782_12751.png
subject-01,1,701,0.663457870483398,cat,cat,pow,0701_pow_s01_pow_cat_35_n02125311_30246.png
subject-01,1,702,0.759170055389404,keyboard,keyboard,0,0702_pow_s01_0_keyboard_35_n04505470_2102.png
subject-01,1,703,0.775018930435181,bicycle,bicycle,pow,0703_pow_s01_pow_bicycle_35_n03792782_51296.png
subject-01,1,704,0.948901891708374,keyboard,keyboard,pow,0704_pow_s01_pow_keyboard_35_n03085013_29452.png
subject-01,1,705,0.848772048950195,oven,oven,pow,0705_pow_s01_pow_oven_35_n04111531_5967.png
subject-01,1,706,0.964486122131348,bottle,bottle,0,0706_pow_s01_0_bottle_35_n02823428_5850.png
subject-01,1,707,0.888187885284424,knife,knife,0,0707_pow_s01_0_knife_35_n03041632_16020.png
subject-01,1,708,0.638066053390503,bottle,bottle,pow,0708_pow_s01_pow_bottle_35_n02823428_774.png
subject-01,1,709,0.833850860595703,bottle,bottle,pow,0709_pow_s01_pow_bottle_35_n04557648_85.png
subject-01,1,710,0.549682140350342,clock,clock,0,0710_pow_s01_0_clock_35_n02708093_7535.png
subject-01,1,711,0.975906133651733,dog,dog,0,0711_pow_s01_0_dog_35_n02109961_66260.png
subject-01,1,712,0.545550107955933,cat,cat,0,0712_pow_s01_0_cat_35_n02123045_9947.png
subject-01,1,713,0.987357139587402,oven,clock,0,0713_pow_s01_0_clock_35_n03196217_1519.png
subject-01,1,714,0.863032102584839,keyboard,keyboard,0,0714_pow_s01_0_keyboard_35_n03085013_23354.png
subject-01,1,715,0.824837923049927,bicycle,bicycle,pow,0715_pow_s01_pow_bicycle_35_n02835271_3767.png
subject-01,1,716,0.6925048828125,bottle,bottle,0,0716_pow_s01_0_bottle_35_n03937543_2941.png
subject-01,1,717,0.91241192817688,chair,chair,0,0717_pow_s01_0_chair_35_n04099969_2113.png
subject-01,1,718,0.528070211410522,clock,clock,0,0718_pow_s01_0_clock_35_n03196217_4879.png
subject-01,1,719,0.471962928771973,clock,clock,0,0719_pow_s01_0_clock_35_n04548280_16378.png
subject-01,1,720,0.615789175033569,boat,boat,pow,0720_pow_s01_pow_boat_35_n03344393_6892.png
subject-01,1,721,0.947173118591309,knife,knife,0,0721_pow_s01_0_knife_35_n03041632_45312.png
subject-01,1,722,0.635056972503662,boat,boat,0,0722_pow_s01_0_boat_35_n02951358_31965.png
subject-01,1,723,0.78709602355957,knife,cat,pow,0723_pow_s01_pow_cat_35_n02123159_463.png
subject-01,1,724,0.661118030548096,cat,truck,0,0724_pow_s01_0_truck_35_n03417042_213.png
subject-01,1,725,0.768595933914185,knife,knife,0,0725_pow_s01_0_knife_35_n03041632_383.png
subject-01,1,726,0.588334083557129,boat,boat,0,0726_pow_s01_0_boat_35_n03662601_4059.png
subject-01,1,727,0.768406867980957,dog,dog,0,0727_pow_s01_0_dog_35_n02088632_2321.png
subject-01,1,728,0.755975961685181,car,car,pow,0728_pow_s01_pow_car_35_n02814533_58196.png
subject-01,1,729,0.771887063980103,bottle,bottle,0,0729_pow_s01_0_bottle_35_n04591713_5129.png
subject-01,1,730,0.78571891784668,bicycle,bicycle,0,0730_pow_s01_0_bicycle_35_n03792782_3333.png
subject-01,1,731,0.785348892211914,elephant,elephant,0,0731_pow_s01_0_elephant_35_n02504013_6973.png
subject-01,1,732,0.777602910995483,airplane,airplane,0,0732_pow_s01_0_airplane_35_n02690373_3493.png
subject-01,1,733,0.73895788192749,bear,bear,pow,0733_pow_s01_pow_bear_35_n02134084_13588.png
subject-01,1,734,0.732678890228271,knife,knife,pow,0734_pow_s01_pow_knife_35_n03041632_29276.png
subject-01,1,735,0.833018064498901,elephant,elephant,0,0735_pow_s01_0_elephant_35_n02504013_2778.png
subject-01,1,736,0.85446310043335,knife,keyboard,pow,0736_pow_s01_pow_keyboard_35_n03085013_22966.png
subject-01,1,737,1.43447518348694,boat,boat,0,0737_pow_s01_0_boat_35_n03662601_13754.png
subject-01,1,738,0.758208990097046,bird,bird,0,0738_pow_s01_0_bird_35_n02009229_8793.png
subject-01,1,739,0.738074064254761,knife,oven,pow,0739_pow_s01_pow_oven_35_n04111531_7283.png
subject-01,1,740,1.01788020133972,elephant,bear,pow,0740_pow_s01_pow_bear_35_n02133161_505.png
subject-01,1,741,0.78367018699646,elephant,elephant,pow,0741_pow_s01_pow_elephant_35_n02504458_5320.png
subject-01,1,742,0.933451890945435,bird,bird,pow,0742_pow_s01_pow_bird_35_n01829413_943.png
subject-01,1,743,0.857223033905029,knife,knife,pow,0743_pow_s01_pow_knife_35_n03041632_4494.png
subject-01,1,744,1.30887913703918,bird,bird,0,0744_pow_s01_0_bird_35_n01819313_2722.png
subject-01,1,745,0.727002859115601,bottle,bottle,pow,0745_pow_s01_pow_bottle_35_n04557648_1184.png
subject-01,1,746,0.576673030853271,bottle,bottle,0,0746_pow_s01_0_bottle_35_n03983396_16628.png
subject-01,1,747,0.716520071029663,car,car,pow,0747_pow_s01_pow_car_35_n03100240_4065.png
subject-01,1,748,0.754364967346191,elephant,elephant,pow,0748_pow_s01_pow_elephant_35_n02504013_6584.png
subject-01,1,749,0.576001882553101,cat,cat,pow,0749_pow_s01_pow_cat_35_n02123597_111.png
subject-01,1,750,0.847770929336548,clock,clock,pow,0750_pow_s01_pow_clock_35_n04548280_17907.png
subject-01,1,751,0.781599998474121,airplane,airplane,pow,0751_pow_s01_pow_airplane_35_n02690373_2147.png
subject-01,1,752,0.891489028930664,airplane,airplane,pow,0752_pow_s01_pow_airplane_35_n02690373_4225.png
subject-01,1,753,0.797274827957153,bottle,bottle,pow,0753_pow_s01_pow_bottle_35_n04591713_1767.png
subject-01,1,754,0.597506046295166,boat,boat,0,0754_pow_s01_0_boat_35_n04273569_5767.png
subject-01,1,755,0.744908094406128,dog,dog,0,0755_pow_s01_0_dog_35_n02106550_4880.png
subject-01,1,756,1.34297704696655,chair,truck,0,0756_pow_s01_0_truck_35_n03417042_3327.png
subject-01,1,757,1.02853202819824,bottle,keyboard,pow,0757_pow_s01_pow_keyboard_35_n03085013_21325.png
subject-01,1,758,0.988278865814209,airplane,airplane,pow,0758_pow_s01_pow_airplane_35_n02690373_6755.png
subject-01,1,759,1.05807089805603,elephant,elephant,0,0759_pow_s01_0_elephant_35_n02504013_1715.png
subject-01,1,760,1.18598890304565,elephant,elephant,pow,0760_pow_s01_pow_elephant_35_n02504458_3891.png
subject-01,1,761,1.50015497207642,airplane,airplane,0,0761_pow_s01_0_airplane_35_n02690373_6618.png
subject-01,1,762,0.851516008377075,bicycle,bicycle,pow,0762_pow_s01_pow_bicycle_35_n03792782_8172.png
subject-01,1,763,0.92148494720459,truck,truck,pow,0763_pow_s01_pow_truck_35_n03796401_3273.png
subject-01,1,764,0.809256792068481,boat,truck,pow,0764_pow_s01_pow_truck_35_n03417042_3913.png
subject-01,1,765,0.613107919692993,boat,boat,0,0765_pow_s01_0_boat_35_n03344393_10748.png
subject-01,1,766,1.13276696205139,knife,knife,0,0766_pow_s01_0_knife_35_n03041632_11932.png
subject-01,1,767,0.816581010818481,cat,cat,pow,0767_pow_s01_pow_cat_35_n02123597_6370.png
subject-01,1,768,0.970747947692871,dog,dog,pow,0768_pow_s01_pow_dog_35_n02088364_7145.png
subject-01,1,769,0.90028715133667,truck,truck,0,0769_pow_s01_0_truck_35_n04467665_3714.png
subject-01,1,770,0.794636964797974,bottle,bottle,0,0770_pow_s01_0_bottle_35_n03983396_11632.png
subject-01,1,771,0.858091115951538,oven,clock,0,0771_pow_s01_0_clock_35_n03196217_1234.png
subject-01,1,772,0.879684925079346,bicycle,bicycle,pow,0772_pow_s01_pow_bicycle_35_n03792782_20190.png
subject-01,1,773,0.651575088500977,cat,cat,0,0773_pow_s01_0_cat_35_n02123394_1997.png
subject-01,1,774,0.847479104995728,knife,knife,pow,0774_pow_s01_pow_knife_35_n03041632_94620.png
subject-01,1,775,0.823048830032349,boat,boat,0,0775_pow_s01_0_boat_35_n03344393_8380.png
subject-01,1,776,1.05890202522278,knife,keyboard,pow,0776_pow_s01_pow_keyboard_35_n03085013_24793.png
subject-01,1,777,0.900709867477417,chair,chair,0,0777_pow_s01_0_chair_35_n04099969_17428.png
subject-01,1,778,0.756747961044312,bottle,bottle,0,0778_pow_s01_0_bottle_35_n04591713_7164.png
subject-01,1,779,0.880458831787109,airplane,airplane,pow,0779_pow_s01_pow_airplane_35_n02690373_3269.png
subject-01,1,780,1.2101731300354,chair,bear,pow,0780_pow_s01_pow_bear_35_n02133161_1309.png
subject-01,1,781,0.835981130599976,airplane,airplane,pow,0781_pow_s01_pow_airplane_35_n02690373_5866.png
subject-01,1,782,1.0157470703125,knife,keyboard,0,0782_pow_s01_0_keyboard_35_n04505470_8828.png
subject-01,1,783,1.24964284896851,bear,bear,pow,0783_pow_s01_pow_bear_35_n02134084_18469.png
subject-01,1,784,1.20978784561157,oven,truck,pow,0784_pow_s01_pow_truck_35_n03417042_9610.png
subject-01,1,785,0.567302942276001,clock,clock,0,0785_pow_s01_0_clock_35_n03196217_6185.png
subject-01,1,786,0.731462955474854,oven,oven,pow,0786_pow_s01_pow_oven_35_n04111531_8805.png
subject-01,1,787,1.07500195503235,bird,bird,pow,0787_pow_s01_pow_bird_35_n01534433_14255.png
subject-01,1,788,0.823122978210449,truck,truck,pow,0788_pow_s01_pow_truck_35_n04467665_3433.png
subject-01,1,789,1.0167019367218,dog,dog,0,0789_pow_s01_0_dog_35_n02095570_2009.png
subject-01,1,790,0.78474497795105,bicycle,bicycle,pow,0790_pow_s01_pow_bicycle_35_n02835271_1436.png
subject-01,1,791,0.704092025756836,keyboard,keyboard,0,0791_pow_s01_0_keyboard_35_n03085013_19759.png
subject-01,1,792,0.795976161956787,airplane,airplane,pow,0792_pow_s01_pow_airplane_35_n02690373_8521.png
subject-01,1,793,0.803881168365479,airplane,airplane,pow,0793_pow_s01_pow_airplane_35_n02690373_10510.png
subject-01,1,794,0.75354790687561,airplane,airplane,0,0794_pow_s01_0_airplane_35_n02690373_8560.png
subject-01,1,795,0.943921804428101,dog,clock,pow,0795_pow_s01_pow_clock_35_n04548280_2765.png
subject-01,1,796,1.06329298019409,knife,knife,0,0796_pow_s01_0_knife_35_n03041632_13424.png
subject-01,1,797,1.05909109115601,airplane,airplane,0,0797_pow_s01_0_airplane_35_n02690373_2643.png
subject-01,1,798,0.697267055511475,car,car,pow,0798_pow_s01_pow_car_35_n02814533_46997.png
subject-01,1,799,1.3208110332489,bear,bear,0,0799_pow_s01_0_bear_35_n02132136_24633.png
subject-01,1,800,1.35447192192078,clock,truck,pow,0800_pow_s01_pow_truck_35_n04467665_42823.png
subject-01,1,801,1.08379101753235,clock,chair,pow,0801_pow_s01_pow_chair_35_n04429376_13678.png
subject-01,1,802,0.521398067474365,clock,clock,pow,0802_pow_s01_pow_clock_35_n03196217_3104.png
subject-01,1,803,0.827396154403687,chair,chair,0,0803_pow_s01_0_chair_35_n04099969_5364.png
subject-01,1,804,0.869126081466675,bicycle,bicycle,pow,0804_pow_s01_pow_bicycle_35_n03792782_6023.png
subject-01,1,805,0.663246154785156,cat,bear,pow,0805_pow_s01_pow_bear_35_n02132136_30306.png
subject-01,1,806,0.562879085540771,clock,clock,0,0806_pow_s01_0_clock_35_n04548280_11806.png
subject-01,1,807,0.798541784286499,bicycle,bicycle,pow,0807_pow_s01_pow_bicycle_35_n02835271_5643.png
subject-01,1,808,1.27475690841675,elephant,cat,pow,0808_pow_s01_pow_cat_35_n02123597_6405.png
subject-01,1,809,0.766525983810425,oven,oven,0,0809_pow_s01_0_oven_35_n04111531_14903.png
subject-01,1,810,0.632024049758911,bird,bird,pow,0810_pow_s01_pow_bird_35_n01592084_5716.png
subject-01,1,811,0.722158908843994,cat,cat,0,0811_pow_s01_0_cat_35_n02123394_1899.png
subject-01,1,812,1.07564520835876,bottle,bottle,0,0812_pow_s01_0_bottle_35_n04560804_17783.png
subject-01,1,813,0.869621992111206,dog,dog,pow,0813_pow_s01_pow_dog_35_n02095570_8343.png
subject-01,1,814,1.22738099098206,bear,bear,0,0814_pow_s01_0_bear_35_n02134084_19791.png
subject-01,1,815,0.807417869567871,bear,bear,pow,0815_pow_s01_pow_bear_35_n02132136_3603.png
subject-01,1,816,0.69690990447998,chair,chair,0,0816_pow_s01_0_chair_35_n04429376_14680.png
subject-01,1,817,0.618961095809937,clock,clock,0,0817_pow_s01_0_clock_35_n04548280_183.png
subject-01,1,818,0.670629024505615,chair,chair,0,0818_pow_s01_0_chair_35_n04099969_114.png
subject-01,1,819,0.890353918075562,bottle,bottle,0,0819_pow_s01_0_bottle_35_n03983396_5093.png
subject-01,1,820,0.874177932739258,dog,dog,0,0820_pow_s01_0_dog_35_n02086240_1231.png
subject-01,1,821,0.858006000518799,airplane,airplane,0,0821_pow_s01_0_airplane_35_n02690373_3729.png
subject-01,1,822,0.651831865310669,chair,chair,pow,0822_pow_s01_pow_chair_35_n03376595_11661.png
subject-01,1,823,0.775646924972534,clock,clock,pow,0823_pow_s01_pow_clock_35_n04548280_82.png
subject-01,1,824,1.12526512145996,bottle,knife,0,0824_pow_s01_0_knife_35_n03041632_32377.png
subject-01,1,825,0.965540885925293,cat,dog,0,0825_pow_s01_0_dog_35_n02101006_11799.png
subject-01,1,826,0.839255094528198,bicycle,bicycle,pow,0826_pow_s01_pow_bicycle_35_n02835271_747.png
subject-01,1,827,0.852942228317261,oven,knife,pow,0827_pow_s01_pow_knife_35_n03041632_85488.png
subject-01,1,828,1.05677890777588,car,car,0,0828_pow_s01_0_car_35_n03100240_10244.png
subject-01,1,829,0.892443895339966,knife,knife,pow,0829_pow_s01_pow_knife_35_n03041632_27960.png
subject-01,1,830,0.806336164474487,bear,elephant,0,0830_pow_s01_0_elephant_35_n02504458_3250.png
subject-01,1,831,0.922233819961548,keyboard,keyboard,pow,0831_pow_s01_pow_keyboard_35_n03085013_4636.png
subject-01,1,832,1.00785684585571,cat,cat,0,0832_pow_s01_0_cat_35_n02125311_27218.png
subject-01,1,833,1.32011580467224,car,car,pow,0833_pow_s01_pow_car_35_n02814533_40913.png
subject-01,1,834,0.665877103805542,boat,boat,pow,0834_pow_s01_pow_boat_35_n04273569_14262.png
subject-01,1,835,0.853886127471924,knife,knife,pow,0835_pow_s01_pow_knife_35_n03041632_32292.png
subject-01,1,836,0.677232980728149,keyboard,keyboard,0,0836_pow_s01_0_keyboard_35_n03085013_6986.png
subject-01,1,837,0.81710410118103,airplane,airplane,0,0837_pow_s01_0_airplane_35_n02690373_2607.png
subject-01,1,838,0.794728994369507,knife,knife,pow,0838_pow_s01_pow_knife_35_n03041632_29858.png
subject-01,1,839,0.798765182495117,car,car,0,0839_pow_s01_0_car_35_n03100240_17108.png
subject-01,1,840,1.11247205734253,bicycle,bicycle,0,0840_pow_s01_0_bicycle_35_n03792782_7713.png
subject-01,1,841,1.18417406082153,oven,oven,0,0841_pow_s01_0_oven_35_n04111531_1050.png
subject-01,1,842,1.3780357837677,bird,bird,0,0842_pow_s01_0_bird_35_n01829413_6608.png
subject-01,1,843,0.71181321144104,bear,bear,0,0843_pow_s01_0_bear_35_n02134084_23292.png
subject-01,1,844,1.04972290992737,cat,bird,pow,0844_pow_s01_pow_bird_35_n02017213_5095.png
subject-01,1,845,1.32152485847473,bear,bear,pow,0845_pow_s01_pow_bear_35_n02134084_22032.png
subject-01,1,846,0.657348871231079,keyboard,keyboard,pow,0846_pow_s01_pow_keyboard_35_n03085013_20882.png
subject-01,1,847,1.20900106430054,bear,elephant,0,0847_pow_s01_0_elephant_35_n02504458_568.png
subject-01,1,848,0.659034967422485,bottle,bottle,0,0848_pow_s01_0_bottle_35_n03983396_10013.png
subject-01,1,849,1.04061698913574,elephant,elephant,0,0849_pow_s01_0_elephant_35_n02504013_354.png
subject-01,1,850,0.808475017547607,bird,bird,0,0850_pow_s01_0_bird_35_n01534433_4900.png
subject-01,1,851,1.16641592979431,dog,dog,pow,0851_pow_s01_pow_dog_35_n02110185_8777.png
subject-01,1,852,0.610307931900024,chair,chair,0,0852_pow_s01_0_chair_35_n04099969_9713.png
subject-01,1,853,0.78223705291748,airplane,airplane,pow,0853_pow_s01_pow_airplane_35_n02690373_10931.png
subject-01,1,854,0.743760108947754,oven,oven,pow,0854_pow_s01_pow_oven_35_n04111531_18949.png
subject-01,1,855,1.24566006660461,knife,oven,pow,0855_pow_s01_pow_oven_35_n04111531_3193.png
subject-01,1,856,0.531373023986816,bird,bird,pow,0856_pow_s01_pow_bird_35_n01796340_11783.png
subject-01,1,857,0.937267065048218,bear,bear,pow,0857_pow_s01_pow_bear_35_n02134418_4452.png
subject-01,1,858,0.552965879440308,clock,clock,pow,0858_pow_s01_pow_clock_35_n04548280_4947.png
subject-01,1,859,1.50002098083496,elephant,elephant,0,0859_pow_s01_0_elephant_35_n02504458_13382.png
subject-01,1,860,0.818706035614014,knife,knife,pow,0860_pow_s01_pow_knife_35_n03041632_37513.png
subject-01,1,861,1.00426602363586,clock,keyboard,pow,0861_pow_s01_pow_keyboard_35_n04505470_7728.png
subject-01,1,862,0.63614296913147,car,car,pow,0862_pow_s01_pow_car_35_n02814533_39666.png
subject-01,1,863,0.682448863983154,bird,bird,0,0863_pow_s01_0_bird_35_n01537544_292.png
subject-01,1,864,0.635926008224487,cat,cat,0,0864_pow_s01_0_cat_35_n02123045_939.png
subject-01,1,865,0.78360915184021,oven,oven,pow,0865_pow_s01_pow_oven_35_n04111531_14269.png
subject-01,1,866,0.743588924407959,clock,chair,0,0866_pow_s01_0_chair_35_n04429376_16372.png
subject-01,1,867,0.771685838699341,bird,bird,0,0867_pow_s01_0_bird_35_n02027492_7770.png
subject-01,1,868,0.809191942214966,bird,bird,pow,0868_pow_s01_pow_bird_35_n01818515_10185.png
subject-01,1,869,0.59888219833374,boat,boat,0,0869_pow_s01_0_boat_35_n03344393_12983.png
subject-01,1,870,1.11323690414429,car,car,0,0870_pow_s01_0_car_35_n03100240_17583.png
subject-01,1,871,0.90067195892334,airplane,airplane,0,0871_pow_s01_0_airplane_35_n02690373_13384.png
subject-01,1,872,0.672369956970215,boat,boat,pow,0872_pow_s01_pow_boat_35_n02951358_912.png
subject-01,1,873,1.05225896835327,bear,elephant,pow,0873_pow_s01_pow_elephant_35_n02504013_482.png
subject-01,1,874,0.97388482093811,knife,chair,pow,0874_pow_s01_pow_chair_35_n03376595_3239.png
subject-01,1,875,0.694101095199585,cat,cat,0,0875_pow_s01_0_cat_35_n02123394_5586.png
subject-01,1,876,0.879729986190796,bottle,chair,pow,0876_pow_s01_pow_chair_35_n02791124_3018.png
subject-01,1,877,1.0176408290863,bottle,oven,0,0877_pow_s01_0_oven_35_n04111531_13172.png
subject-01,1,878,0.729151010513306,dog,dog,0,0878_pow_s01_0_dog_35_n02086646_7920.png
subject-01,1,879,0.823084831237793,elephant,elephant,0,0879_pow_s01_0_elephant_35_n02504013_6141.png
subject-01,1,880,0.664849996566772,bottle,keyboard,pow,0880_pow_s01_pow_keyboard_35_n04505470_4761.png
subject-01,1,881,0.704133987426758,dog,dog,0,0881_pow_s01_0_dog_35_n02102973_7681.png
subject-01,1,882,0.711920976638794,keyboard,keyboard,0,0882_pow_s01_0_keyboard_35_n03085013_19343.png
subject-01,1,883,0.845526933670044,airplane,airplane,0,0883_pow_s01_0_airplane_35_n02690373_7281.png
subject-01,1,884,0.773551940917969,dog,bear,pow,0884_pow_s01_pow_bear_35_n02134418_904.png
subject-01,1,885,0.753152132034302,clock,clock,0,0885_pow_s01_0_clock_35_n03196217_713.png
subject-01,1,886,0.577033996582031,boat,boat,pow,0886_pow_s01_pow_boat_35_n04612504_22353.png
subject-01,1,887,0.744866132736206,clock,clock,0,0887_pow_s01_0_clock_35_n04548280_4768.png
subject-01,1,888,1.01664400100708,keyboard,airplane,pow,0888_pow_s01_pow_airplane_35_n02690373_10455.png
subject-01,1,889,0.6789231300354,dog,dog,0,0889_pow_s01_0_dog_35_n02099601_11986.png
subject-01,1,890,0.666484832763672,oven,oven,pow,0890_pow_s01_pow_oven_35_n04111531_5212.png
subject-01,1,891,1.3921639919281,airplane,bear,0,0891_pow_s01_0_bear_35_n02132136_10654.png
subject-01,1,892,0.70586895942688,chair,chair,0,0892_pow_s01_0_chair_35_n02791124_45.png
subject-01,1,893,0.983684062957764,car,car,0,0893_pow_s01_0_car_35_n02814533_3561.png
subject-01,1,894,0.749683856964111,keyboard,keyboard,pow,0894_pow_s01_pow_keyboard_35_n03085013_19618.png
subject-01,1,895,0.813398122787476,bird,bird,pow,0895_pow_s01_pow_bird_35_n02009229_1091.png
subject-01,1,896,1.50005006790161,knife,knife,0,0896_pow_s01_0_knife_35_n03041632_7380.png
subject-01,1,897,0.699134111404419,chair,chair,pow,0897_pow_s01_pow_chair_35_n04099969_24378.png
subject-01,1,898,0.832714080810547,bear,bear,pow,0898_pow_s01_pow_bear_35_n02134418_2298.png
subject-01,1,899,0.71711802482605,bird,bird,pow,0899_pow_s01_pow_bird_35_n02017213_4528.png
subject-01,1,900,0.778459072113037,boat,car,pow,0900_pow_s01_pow_car_35_n04285008_7776.png
subject-01,1,901,0.702219009399414,bottle,bottle,pow,0901_pow_s01_pow_bottle_35_n04591713_6827.png
subject-01,1,902,0.709959983825684,car,car,0,0902_pow_s01_0_car_35_n02814533_13079.png
subject-01,1,903,0.739892959594727,bicycle,bicycle,0,0903_pow_s01_0_bicycle_35_n02835271_22263.png
subject-01,1,904,0.815646171569824,chair,cat,0,0904_pow_s01_0_cat_35_n02123159_643.png
subject-01,1,905,0.96354603767395,bicycle,bicycle,0,0905_pow_s01_0_bicycle_35_n02835271_18537.png
subject-01,1,906,0.659386157989502,boat,boat,0,0906_pow_s01_0_boat_35_n04612504_18536.png
subject-01,1,907,0.871339082717896,bottle,bottle,pow,0907_pow_s01_pow_bottle_35_n02823428_1733.png
subject-01,1,908,1.13725304603577,elephant,elephant,pow,0908_pow_s01_pow_elephant_35_n02504013_7309.png
subject-01,1,909,0.894670963287354,bottle,bottle,pow,0909_pow_s01_pow_bottle_35_n03983396_2256.png
subject-01,1,910,0.908936977386475,car,chair,pow,0910_pow_s01_pow_chair_35_n02791124_13435.png
subject-01,1,911,0.740442991256714,bear,bear,0,0911_pow_s01_0_bear_35_n02134084_15558.png
subject-01,1,912,0.822219848632812,airplane,airplane,0,0912_pow_s01_0_airplane_35_n02690373_5714.png
subject-01,1,913,1.15595316886902,bird,bird,pow,0913_pow_s01_pow_bird_35_n01514859_12245.png
subject-01,1,914,1.50002503395081,car,keyboard,pow,0914_pow_s01_pow_keyboard_35_n03085013_22386.png
subject-01,1,915,0.719763040542603,elephant,elephant,pow,0915_pow_s01_pow_elephant_35_n02504458_4716.png
subject-01,1,916,0.817516803741455,truck,truck,0,0916_pow_s01_0_truck_35_n03417042_3659.png
subject-01,1,917,1.30942106246948,bottle,bottle,0,0917_pow_s01_0_bottle_35_n03937543_1680.png
subject-01,1,918,1.40890979766846,cat,boat,0,0918_pow_s01_0_boat_35_n02951358_18804.png
subject-01,1,919,0.838989019393921,cat,dog,0,0919_pow_s01_0_dog_35_n02091032_250.png
subject-01,1,920,0.902696847915649,elephant,bird,pow,0920_pow_s01_pow_bird_35_n01860187_486.png
subject-01,1,921,1.09655594825745,bird,dog,pow,0921_pow_s01_pow_dog_35_n02105641_6742.png
subject-01,1,922,0.776275157928467,bottle,bottle,0,0922_pow_s01_0_bottle_35_n03983396_6281.png
subject-01,1,923,0.883997917175293,elephant,elephant,0,0923_pow_s01_0_elephant_35_n02504458_4463.png
subject-01,1,924,1.33811211585999,elephant,cat,pow,0924_pow_s01_pow_cat_35_n02125311_8963.png
subject-01,1,925,1.14967107772827,truck,truck,pow,0925_pow_s01_pow_truck_35_n04467665_31539.png
subject-01,1,926,1.45364308357239,oven,clock,0,0926_pow_s01_0_clock_35_n03196217_5300.png
subject-01,1,927,1.07177400588989,bird,bird,0,0927_pow_s01_0_bird_35_n01833805_7528.png
subject-01,1,928,1.21129989624023,oven,oven,0,0928_pow_s01_0_oven_35_n04111531_13296.png
subject-01,1,929,0.872956037521362,truck,truck,0,0929_pow_s01_0_truck_35_n03796401_22759.png
subject-01,1,930,0.69514799118042,clock,clock,0,0930_pow_s01_0_clock_35_n03196217_3762.png
subject-01,1,931,1.29466509819031,bear,bear,pow,0931_pow_s01_pow_bear_35_n02132136_31257.png
subject-01,1,932,1.1405930519104,dog,dog,0,0932_pow_s01_0_dog_35_n02111500_3947.png
subject-01,1,933,0.822322130203247,cat,cat,0,0933_pow_s01_0_cat_35_n02123394_593.png
subject-01,1,934,0.940207958221436,cat,dog,pow,0934_pow_s01_pow_dog_35_n02104029_54.png
subject-01,1,935,0.760092973709106,clock,clock,pow,0935_pow_s01_pow_clock_35_n02708093_2283.png
subject-01,1,936,0.969657182693481,chair,chair,0,0936_pow_s01_0_chair_35_n03376595_7660.png
subject-01,1,937,0.889421939849854,truck,truck,0,0937_pow_s01_0_truck_35_n04467665_68137.png
subject-01,1,938,1.45947098731995,truck,truck,pow,0938_pow_s01_pow_truck_35_n03417042_24155.png
subject-01,1,939,1.09110498428345,keyboard,keyboard,0,0939_pow_s01_0_keyboard_35_n03085013_3656.png
subject-01,1,940,1.08294606208801,car,car,pow,0940_pow_s01_pow_car_35_n02814533_40876.png
subject-01,1,941,0.870867967605591,keyboard,keyboard,pow,0941_pow_s01_pow_keyboard_35_n03085013_24087.png
subject-01,1,942,0.76073694229126,car,car,0,0942_pow_s01_0_car_35_n03100240_9150.png
subject-01,1,943,1.268306016922,keyboard,keyboard,0,0943_pow_s01_0_keyboard_35_n03085013_7058.png
subject-01,1,944,0.888104200363159,dog,dog,0,0944_pow_s01_0_dog_35_n02113624_1707.png
subject-01,1,945,0.746092081069946,truck,truck,0,0945_pow_s01_0_truck_35_n03796401_5873.png
subject-01,1,946,0.630244970321655,clock,clock,pow,0946_pow_s01_pow_clock_35_n02708093_6822.png
subject-01,1,947,0.98996901512146,oven,oven,pow,0947_pow_s01_pow_oven_35_n04111531_7883.png
subject-01,1,948,0.669381141662598,boat,boat,pow,0948_pow_s01_pow_boat_35_n04273569_28992.png
subject-01,1,949,0.827718019485474,knife,knife,0,0949_pow_s01_0_knife_35_n03041632_46720.png
subject-01,1,950,0.819221973419189,car,car,pow,0950_pow_s01_pow_car_35_n04285008_8465.png
subject-01,1,951,1.24124789237976,car,bicycle,0,0951_pow_s01_0_bicycle_35_n02835271_8271.png
subject-01,1,952,1.02279591560364,elephant,elephant,0,0952_pow_s01_0_elephant_35_n02504013_891.png
subject-01,1,953,0.52851390838623,clock,clock,pow,0953_pow_s01_pow_clock_35_n02708093_3755.png
subject-01,1,954,1.38830018043518,cat,knife,pow,0954_pow_s01_pow_knife_35_n03041632_10777.png
subject-01,1,955,1.25418996810913,keyboard,keyboard,pow,0955_pow_s01_pow_keyboard_35_n03085013_24591.png
subject-01,1,956,0.940372943878174,bird,bird,0,0956_pow_s01_0_bird_35_n01817953_31391.png
subject-01,1,957,0.970154047012329,boat,boat,pow,0957_pow_s01_pow_boat_35_n03344393_6978.png
subject-01,1,958,0.683767080307007,boat,boat,pow,0958_pow_s01_pow_boat_35_n04273569_23293.png
subject-01,1,959,1.27767515182495,bottle,oven,0,0959_pow_s01_0_oven_35_n04111531_5582.png
subject-01,1,960,0.729343175888062,bear,bear,0,0960_pow_s01_0_bear_35_n02134084_9774.png
subject-01,1,961,0.915374040603638,clock,clock,pow,0961_pow_s01_pow_clock_35_n04548280_2362.png
subject-01,1,962,0.726990938186646,car,car,pow,0962_pow_s01_pow_car_35_n02814533_24730.png
subject-01,1,963,1.10080099105835,bird,bottle,pow,0963_pow_s01_pow_bottle_35_n02823428_6250.png
subject-01,1,964,0.998573064804077,bear,bear,0,0964_pow_s01_0_bear_35_n02132136_10979.png
subject-01,1,965,0.852560043334961,bicycle,bicycle,0,0965_pow_s01_0_bicycle_35_n02835271_24131.png
subject-01,1,966,0.636358022689819,clock,clock,0,0966_pow_s01_0_clock_35_n02708093_3509.png
subject-01,1,967,0.702133893966675,airplane,airplane,0,0967_pow_s01_0_airplane_35_n02690373_3032.png
subject-01,1,968,0.732038021087646,bottle,bottle,pow,0968_pow_s01_pow_bottle_35_n04560804_3847.png
subject-01,1,969,0.951754093170166,bear,bear,0,0969_pow_s01_0_bear_35_n02134418_261.png
subject-01,1,970,0.695927858352661,bottle,oven,0,0970_pow_s01_0_oven_35_n04111531_10476.png
subject-01,1,971,0.639827966690063,chair,chair,0,0971_pow_s01_0_chair_35_n02791124_2003.png
subject-01,1,972,0.805078029632568,bottle,bottle,0,0972_pow_s01_0_bottle_35_n03983396_12525.png
subject-01,1,973,1.36899304389954,bottle,oven,pow,0973_pow_s01_pow_oven_35_n04111531_2462.png
subject-01,1,974,0.80672812461853,bicycle,bicycle,0,0974_pow_s01_0_bicycle_35_n02835271_27777.png
subject-01,1,975,0.766892910003662,cat,oven,pow,0975_pow_s01_pow_oven_35_n04111531_20591.png
subject-01,1,976,1.16056394577026,airplane,airplane,0,0976_pow_s01_0_airplane_35_n02690373_4873.png
subject-01,1,977,0.940207004547119,car,car,pow,0977_pow_s01_pow_car_35_n02814533_3754.png
subject-01,1,978,0.916296005249023,boat,keyboard,pow,0978_pow_s01_pow_keyboard_35_n03085013_19416.png
subject-01,1,979,1.20589017868042,knife,oven,pow,0979_pow_s01_pow_oven_35_n04111531_9455.png
subject-01,1,980,1.16816711425781,chair,chair,pow,0980_pow_s01_pow_chair_35_n04099969_5294.png
subject-01,1,981,0.815567970275879,bicycle,bicycle,pow,0981_pow_s01_pow_bicycle_35_n02835271_9092.png
subject-01,1,982,0.877427101135254,oven,oven,0,0982_pow_s01_0_oven_35_n04111531_7625.png
subject-01,1,983,0.541060209274292,boat,boat,0,0983_pow_s01_0_boat_35_n03662601_6230.png
subject-01,1,984,0.761051177978516,boat,bottle,pow,0984_pow_s01_pow_bottle_35_n03983396_12895.png
subject-01,1,985,0.653092861175537,cat,cat,0,0985_pow_s01_0_cat_35_n02124075_13663.png
subject-01,1,986,0.932721138000488,bird,bird,0,0986_pow_s01_0_bird_35_n02028035_5332.png
subject-01,1,987,0.806926012039185,car,car,pow,0987_pow_s01_pow_car_35_n02814533_95669.png
subject-01,1,988,1.04818487167358,bird,bird,pow,0988_pow_s01_pow_bird_35_n01819313_6752.png
subject-01,1,989,0.860121965408325,oven,oven,pow,0989_pow_s01_pow_oven_35_n04111531_6211.png
subject-01,1,990,1.16370582580566,bird,oven,pow,0990_pow_s01_pow_oven_35_n04111531_12103.png
subject-01,1,991,0.957632064819336,knife,boat,pow,0991_pow_s01_pow_boat_35_n04612504_12657.png
subject-01,1,992,0.809473991394043,clock,clock,pow,0992_pow_s01_pow_clock_35_n02708093_1023.png
subject-01,1,993,0.719186067581177,keyboard,keyboard,0,0993_pow_s01_0_keyboard_35_n03085013_24522.png
subject-01,1,994,0.78899097442627,airplane,airplane,0,0994_pow_s01_0_airplane_35_n02690373_19104.png
subject-01,1,995,1.13911294937134,car,airplane,pow,0995_pow_s01_pow_airplane_35_n02690373_5149.png
subject-01,1,996,1.26448893547058,dog,chair,pow,0996_pow_s01_pow_chair_35_n04429376_30249.png
subject-01,1,997,1.11478805541992,truck,truck,pow,0997_pow_s01_pow_truck_35_n04467665_37935.png
subject-01,1,998,0.93646502494812,car,car,pow,0998_pow_s01_pow_car_35_n02814533_96695.png
subject-01,1,999,1.17012691497803,cat,bicycle,pow,0999_pow_s01_pow_bicycle_35_n03792782_471.png
subject-01,1,1000,0.777855157852173,airplane,airplane,0,1000_pow_s01_0_airplane_35_n02690373_1229.png
subject-01,1,1001,0.702085971832275,bottle,bottle,0,1001_pow_s01_0_bottle_35_n04560804_3801.png
subject-01,1,1002,0.739718914031982,chair,chair,pow,1002_pow_s01_pow_chair_35_n04099969_5577.png
subject-01,1,1003,0.78952693939209,elephant,elephant,pow,1003_pow_s01_pow_elephant_35_n02504013_1081.png
subject-01,1,1004,1.38333702087402,boat,boat,0,1004_pow_s01_0_boat_35_n03662601_5849.png
subject-01,1,1005,0.818837881088257,airplane,airplane,0,1005_pow_s01_0_airplane_35_n02690373_1797.png
subject-01,1,1006,1.04492998123169,bottle,knife,pow,1006_pow_s01_pow_knife_35_n03041632_36789.png
subject-01,1,1007,1.07057189941406,dog,dog,0,1007_pow_s01_0_dog_35_n02087394_10517.png
subject-01,1,1008,0.740829944610596,elephant,elephant,0,1008_pow_s01_0_elephant_35_n02504013_3843.png
subject-01,1,1009,1.3102970123291,bear,airplane,pow,1009_pow_s01_pow_airplane_35_n02690373_4578.png
subject-01,1,1010,0.770133972167969,keyboard,keyboard,pow,1010_pow_s01_pow_keyboard_35_n04505470_4521.png
subject-01,1,1011,0.871854066848755,truck,truck,pow,1011_pow_s01_pow_truck_35_n03796401_9105.png
subject-01,1,1012,0.707613945007324,bear,bear,0,1012_pow_s01_0_bear_35_n02134418_4475.png
subject-01,1,1013,0.959636926651001,bicycle,bicycle,pow,1013_pow_s01_pow_bicycle_35_n02835271_542.png
subject-01,1,1014,0.859102010726929,keyboard,keyboard,0,1014_pow_s01_0_keyboard_35_n03085013_21166.png
subject-01,1,1015,0.625168800354004,bottle,bottle,pow,1015_pow_s01_pow_bottle_35_n03937543_5625.png
subject-01,1,1016,0.720767974853516,chair,chair,0,1016_pow_s01_0_chair_35_n04429376_10544.png
subject-01,1,1017,0.83076810836792,truck,truck,pow,1017_pow_s01_pow_truck_35_n03417042_27931.png
subject-01,1,1018,1.00246000289917,chair,chair,pow,1018_pow_s01_pow_chair_35_n04429376_10438.png
subject-01,1,1019,1.00043201446533,airplane,airplane,0,1019_pow_s01_0_airplane_35_n02690373_9165.png
subject-01,1,1020,0.758585929870605,bottle,bottle,pow,1020_pow_s01_pow_bottle_35_n02823428_5374.png
subject-01,1,1021,1.33626794815063,dog,dog,pow,1021_pow_s01_pow_dog_35_n02109525_23299.png
subject-01,1,1022,0.841707944869995,cat,cat,pow,1022_pow_s01_pow_cat_35_n02124075_10456.png
subject-01,1,1023,0.801435947418213,car,car,0,1023_pow_s01_0_car_35_n02814533_79224.png
subject-01,1,1024,1.13547420501709,car,car,pow,1024_pow_s01_pow_car_35_n04285008_5699.png
subject-01,1,1025,1.22911810874939,bear,elephant,0,1025_pow_s01_0_elephant_35_n02504458_6079.png
subject-01,1,1026,1.1130850315094,truck,truck,pow,1026_pow_s01_pow_truck_35_n03417042_15903.png
subject-01,1,1027,0.902724981307983,cat,cat,pow,1027_pow_s01_pow_cat_35_n02125311_40746.png
subject-01,1,1028,0.674649000167847,bottle,bottle,pow,1028_pow_s01_pow_bottle_35_n03983396_9695.png
subject-01,1,1029,0.824598073959351,bird,bird,pow,1029_pow_s01_pow_bird_35_n01614925_5578.png
subject-01,1,1030,0.918319940567017,clock,clock,pow,1030_pow_s01_pow_clock_35_n02708093_6.png
subject-01,1,1031,0.822098016738892,keyboard,keyboard,0,1031_pow_s01_0_keyboard_35_n03085013_20906.png
subject-01,1,1032,0.871890068054199,bicycle,bicycle,pow,1032_pow_s01_pow_bicycle_35_n03792782_5034.png
subject-01,1,1033,0.829855918884277,elephant,elephant,pow,1033_pow_s01_pow_elephant_35_n02504013_6552.png
subject-01,1,1034,1.12139892578125,car,car,pow,1034_pow_s01_pow_car_35_n04285008_5528.png
subject-01,1,1035,0.745465993881226,bottle,bottle,pow,1035_pow_s01_pow_bottle_35_n04591713_7005.png
subject-01,1,1036,0.971529006958008,keyboard,keyboard,pow,1036_pow_s01_pow_keyboard_35_n04505470_1253.png
subject-01,1,1037,0.760964870452881,truck,truck,pow,1037_pow_s01_pow_truck_35_n04467665_63626.png
subject-01,1,1038,0.668717861175537,keyboard,keyboard,0,1038_pow_s01_0_keyboard_35_n03085013_19096.png
subject-01,1,1039,0.856357097625732,knife,knife,0,1039_pow_s01_0_knife_35_n03041632_11475.png
subject-01,1,1040,0.8802649974823,knife,knife,0,1040_pow_s01_0_knife_35_n03041632_102887.png
subject-01,1,1041,0.903795957565308,elephant,elephant,0,1041_pow_s01_0_elephant_35_n02504458_6618.png
subject-01,1,1042,0.667582035064697,bottle,bottle,pow,1042_pow_s01_pow_bottle_35_n04557648_4620.png
subject-01,1,1043,0.565464019775391,clock,clock,pow,1043_pow_s01_pow_clock_35_n02708093_2710.png
subject-01,1,1044,0.869422912597656,chair,chair,pow,1044_pow_s01_pow_chair_35_n02791124_15457.png
subject-01,1,1045,0.791084051132202,truck,truck,0,1045_pow_s01_0_truck_35_n03796401_15097.png
subject-01,1,1046,0.845242023468018,knife,knife,0,1046_pow_s01_0_knife_35_n03041632_37274.png
subject-01,1,1047,0.620693922042847,cat,cat,0,1047_pow_s01_0_cat_35_n02125311_20179.png
subject-01,1,1048,0.794561862945557,chair,chair,0,1048_pow_s01_0_chair_35_n03376595_9653.png
subject-01,1,1049,0.944169044494629,dog,dog,0,1049_pow_s01_0_dog_35_n02112706_3099.png
subject-01,1,1050,0.934108018875122,truck,truck,0,1050_pow_s01_0_truck_35_n03417042_7036.png
subject-01,1,1051,0.838440895080566,elephant,oven,pow,1051_pow_s01_pow_oven_35_n04111531_1989.png
subject-01,1,1052,1.21370482444763,cat,bear,pow,1052_pow_s01_pow_bear_35_n02134418_3232.png
subject-01,1,1053,0.813671112060547,bottle,bottle,0,1053_pow_s01_0_bottle_35_n03983396_13698.png
subject-01,1,1054,0.877437114715576,bear,elephant,pow,1054_pow_s01_pow_elephant_35_n02504458_6120.png
subject-01,1,1055,0.633527040481567,bear,bear,0,1055_pow_s01_0_bear_35_n02134084_21207.png
subject-01,1,1056,0.72891092300415,bicycle,bicycle,0,1056_pow_s01_0_bicycle_35_n02835271_4534.png
subject-01,1,1057,0.672762870788574,truck,truck,0,1057_pow_s01_0_truck_35_n04467665_64402.png
subject-01,1,1058,0.752657890319824,knife,knife,pow,1058_pow_s01_pow_knife_35_n03041632_12651.png
subject-01,1,1059,0.83650803565979,elephant,elephant,pow,1059_pow_s01_pow_elephant_35_n02504013_7353.png
subject-01,1,1060,1.08024597167969,elephant,oven,pow,1060_pow_s01_pow_oven_35_n04111531_892.png
subject-01,1,1061,0.588079929351807,boat,boat,pow,1061_pow_s01_pow_boat_35_n02951358_28889.png
subject-01,1,1062,0.895833015441895,cat,bear,0,1062_pow_s01_0_bear_35_n02132136_8033.png
