subj,Session,trial,rt,object_response,category,condition,imagename
subject-03,1,1,1.47366499900818,boat,airplane,pow,0001_pow_s03_pow_airplane_35_n02690373_7740.png
subject-03,1,2,0.759574890136719,chair,chair,0,0002_pow_s03_0_chair_35_n04099969_39507.png
subject-03,1,3,0.733356952667236,bird,bird,0,0003_pow_s03_0_bird_35_n02028035_8994.png
subject-03,1,4,0.989081859588623,dog,dog,pow,0004_pow_s03_pow_dog_35_n02098105_2157.png
subject-03,1,5,0.955012083053589,chair,chair,pow,0005_pow_s03_pow_chair_35_n02791124_713.png
subject-03,1,6,1.2409200668335,airplane,boat,pow,0006_pow_s03_pow_boat_35_n03662601_7642.png
subject-03,1,7,0.886468172073364,dog,dog,0,0007_pow_s03_0_dog_35_n02095570_2009.png
subject-03,1,8,0.868574857711792,elephant,elephant,pow,0008_pow_s03_pow_elephant_35_n02504013_1702.png
subject-03,1,9,0.784194946289062,cat,cat,0,0009_pow_s03_0_cat_35_n02125311_33516.png
subject-03,1,10,0.79030704498291,car,car,pow,0010_pow_s03_pow_car_35_n04285008_5699.png
subject-03,1,11,0.765961170196533,bear,bear,0,0011_pow_s03_0_bear_35_n02134084_15558.png
subject-03,1,12,0.931719064712524,oven,oven,0,0012_pow_s03_0_oven_35_n04111531_10306.png
subject-03,1,13,0.945626020431519,car,car,0,0013_pow_s03_0_car_35_n02814533_79224.png
subject-03,1,14,0.781338930130005,bear,bear,0,0014_pow_s03_0_bear_35_n02134084_21207.png
subject-03,1,15,0.997190952301025,clock,knife,pow,0015_pow_s03_pow_knife_35_n03041632_3617.png
subject-03,1,16,1.23687791824341,dog,dog,0,0016_pow_s03_0_dog_35_n02106166_5135.png
subject-03,1,17,0.75089693069458,cat,cat,pow,0017_pow_s03_pow_cat_35_n02123394_3786.png
subject-03,1,18,0.842448949813843,knife,knife,0,0018_pow_s03_0_knife_35_n03041632_46720.png
subject-03,1,19,0.988320112228394,chair,chair,pow,0019_pow_s03_pow_chair_35_n02791124_16913.png
subject-03,1,20,1.19647693634033,elephant,elephant,pow,0020_pow_s03_pow_elephant_35_n02504013_6693.png
subject-03,1,21,0.960490942001343,keyboard,keyboard,pow,0021_pow_s03_pow_keyboard_35_n03085013_4636.png
subject-03,1,22,1.28367614746094,knife,knife,0,0022_pow_s03_0_knife_35_n03041632_32785.png
subject-03,1,23,NaN,na,bear,0,0023_pow_s03_0_bear_35_n02134084_13029.png
subject-03,1,24,0.951601982116699,car,car,pow,0024_pow_s03_pow_car_35_n04285008_15954.png
subject-03,1,25,1.03915905952454,knife,knife,pow,0025_pow_s03_pow_knife_35_n03041632_18959.png
subject-03,1,26,1.24096083641052,elephant,elephant,0,0026_pow_s03_0_elephant_35_n02504458_6079.png
subject-03,1,27,1.08074402809143,elephant,elephant,pow,0027_pow_s03_pow_elephant_35_n02504013_213.png
subject-03,1,28,0.922708034515381,keyboard,keyboard,0,0028_pow_s03_0_keyboard_35_n03085013_19759.png
subject-03,1,29,0.984832048416138,dog,dog,0,0029_pow_s03_0_dog_35_n02110958_368.png
subject-03,1,30,0.818306922912598,boat,boat,0,0030_pow_s03_0_boat_35_n03344393_5511.png
subject-03,1,31,0.788305997848511,bicycle,bicycle,pow,0031_pow_s03_pow_bicycle_35_n02835271_21339.png
subject-03,1,32,0.988002061843872,oven,oven,0,0032_pow_s03_0_oven_35_n04111531_13172.png
subject-03,1,33,0.861892938613892,clock,clock,pow,0033_pow_s03_pow_clock_35_n02708093_3755.png
subject-03,1,34,0.875702857971191,bird,bird,0,0034_pow_s03_0_bird_35_n01530575_10212.png
subject-03,1,35,0.955363988876343,truck,truck,0,0035_pow_s03_0_truck_35_n03417042_4574.png
subject-03,1,36,1.20321416854858,clock,knife,0,0036_pow_s03_0_knife_35_n03041632_13424.png
subject-03,1,37,0.677374839782715,clock,clock,pow,0037_pow_s03_pow_clock_35_n02708093_1023.png
subject-03,1,38,1.05886483192444,bear,bear,0,0038_pow_s03_0_bear_35_n02133161_14945.png
subject-03,1,39,1.0529670715332,bottle,bottle,0,0039_pow_s03_0_bottle_35_n03983396_10013.png
subject-03,1,40,0.902518033981323,clock,clock,0,0040_pow_s03_0_clock_35_n02708093_8079.png
subject-03,1,41,1.02251601219177,bear,bear,pow,0041_pow_s03_pow_bear_35_n02134084_6901.png
subject-03,1,42,0.824114084243774,bird,bird,pow,0042_pow_s03_pow_bird_35_n01855672_8550.png
subject-03,1,43,0.919811964035034,dog,dog,pow,0043_pow_s03_pow_dog_35_n02102040_312.png
subject-03,1,44,0.89355993270874,elephant,elephant,0,0044_pow_s03_0_elephant_35_n02504458_4721.png
subject-03,1,45,0.869513988494873,bicycle,bicycle,0,0045_pow_s03_0_bicycle_35_n02835271_3027.png
subject-03,1,46,0.859173059463501,chair,chair,0,0046_pow_s03_0_chair_35_n03376595_6652.png
subject-03,1,47,0.96906304359436,knife,knife,0,0047_pow_s03_0_knife_35_n03041632_6575.png
subject-03,1,48,0.666822195053101,clock,clock,0,0048_pow_s03_0_clock_35_n02708093_8179.png
subject-03,1,49,0.9149010181427,airplane,airplane,pow,0049_pow_s03_pow_airplane_35_n02690373_4320.png
subject-03,1,50,0.896420955657959,chair,chair,pow,0050_pow_s03_pow_chair_35_n03376595_3239.png
subject-03,1,51,0.780594110488892,boat,airplane,pow,0051_pow_s03_pow_airplane_35_n02690373_9264.png
subject-03,1,52,0.992146968841553,bird,bird,0,0052_pow_s03_0_bird_35_n02002556_5447.png
subject-03,1,53,0.876116991043091,bear,bear,pow,0053_pow_s03_pow_bear_35_n02132136_15870.png
subject-03,1,54,0.683788061141968,boat,boat,0,0054_pow_s03_0_boat_35_n03344393_7374.png
subject-03,1,55,0.937533140182495,bear,bear,0,0055_pow_s03_0_bear_35_n02132136_24633.png
subject-03,1,56,0.84726095199585,keyboard,keyboard,0,0056_pow_s03_0_keyboard_35_n03085013_7892.png
subject-03,1,57,0.967105865478516,bicycle,bicycle,pow,0057_pow_s03_pow_bicycle_35_n03792782_4167.png
subject-03,1,58,0.683115005493164,clock,clock,pow,0058_pow_s03_pow_clock_35_n04548280_8348.png
subject-03,1,59,0.693045854568481,cat,cat,0,0059_pow_s03_0_cat_35_n02123045_9907.png
subject-03,1,60,0.828765869140625,elephant,elephant,pow,0060_pow_s03_pow_elephant_35_n02504458_4716.png
subject-03,1,61,0.818514823913574,chair,chair,0,0061_pow_s03_0_chair_35_n02791124_45.png
subject-03,1,62,1.12837886810303,keyboard,keyboard,pow,0062_pow_s03_pow_keyboard_35_n03085013_22386.png
subject-03,1,63,1.0221221446991,car,car,pow,0063_pow_s03_pow_car_35_n02814533_95669.png
subject-03,1,64,0.643958806991577,oven,oven,0,0064_pow_s03_0_oven_35_n04111531_19795.png
subject-03,1,65,0.774159908294678,car,car,0,0065_pow_s03_0_car_35_n02814533_13079.png
subject-03,1,66,0.769625186920166,cat,cat,pow,0066_pow_s03_pow_cat_35_n02125311_8963.png
subject-03,1,67,1.43971991539001,keyboard,oven,0,0067_pow_s03_0_oven_35_n04111531_10436.png
subject-03,1,68,0.859557151794434,car,truck,pow,0068_pow_s03_pow_truck_35_n03796401_296.png
subject-03,1,69,0.664999961853027,cat,cat,0,0069_pow_s03_0_cat_35_n02123394_593.png
subject-03,1,70,0.810671091079712,keyboard,keyboard,pow,0070_pow_s03_pow_keyboard_35_n03085013_24087.png
subject-03,1,71,0.730597019195557,oven,oven,0,0071_pow_s03_0_oven_35_n04111531_10476.png
subject-03,1,72,0.636511087417603,oven,oven,0,0072_pow_s03_0_oven_35_n04111531_4189.png
subject-03,1,73,0.704226970672607,airplane,airplane,0,0073_pow_s03_0_airplane_35_n02690373_4350.png
subject-03,1,74,1.12204313278198,knife,knife,0,0074_pow_s03_0_knife_35_n03041632_30573.png
subject-03,1,75,0.684110879898071,boat,boat,pow,0075_pow_s03_pow_boat_35_n04612504_2479.png
subject-03,1,76,0.940148830413818,bird,bird,pow,0076_pow_s03_pow_bird_35_n01582220_2882.png
subject-03,1,77,1.09546899795532,elephant,elephant,pow,0077_pow_s03_pow_elephant_35_n02504013_6420.png
subject-03,1,78,0.903320074081421,cat,cat,pow,0078_pow_s03_pow_cat_35_n02125311_5013.png
subject-03,1,79,0.759174108505249,bear,bear,pow,0079_pow_s03_pow_bear_35_n02133161_505.png
subject-03,1,80,0.82886004447937,bicycle,bicycle,0,0080_pow_s03_0_bicycle_35_n03792782_11390.png
subject-03,1,81,0.671530961990356,bicycle,bicycle,0,0081_pow_s03_0_bicycle_35_n03792782_2435.png
subject-03,1,82,0.717188835144043,clock,clock,0,0082_pow_s03_0_clock_35_n04548280_280.png
subject-03,1,83,0.848839044570923,car,car,pow,0083_pow_s03_pow_car_35_n04285008_8465.png
subject-03,1,84,1.04443693161011,oven,oven,pow,0084_pow_s03_pow_oven_35_n04111531_4904.png
subject-03,1,85,0.668281078338623,airplane,airplane,0,0085_pow_s03_0_airplane_35_n02690373_10404.png
subject-03,1,86,0.89836597442627,truck,truck,0,0086_pow_s03_0_truck_35_n03417042_3422.png
subject-03,1,87,0.777988195419312,clock,clock,0,0087_pow_s03_0_clock_35_n04548280_5011.png
subject-03,1,88,0.923884153366089,car,car,pow,0088_pow_s03_pow_car_35_n02814533_96695.png
subject-03,1,89,0.695678949356079,cat,cat,pow,0089_pow_s03_pow_cat_35_n02123597_111.png
subject-03,1,90,1.01375079154968,chair,boat,pow,0090_pow_s03_pow_boat_35_n02951358_14504.png
subject-03,1,91,1.05530905723572,keyboard,keyboard,0,0091_pow_s03_0_keyboard_35_n03085013_7058.png
subject-03,1,92,0.720979928970337,boat,boat,pow,0092_pow_s03_pow_boat_35_n02951358_537.png
subject-03,1,93,0.772974967956543,cat,cat,pow,0093_pow_s03_pow_cat_35_n02125311_28114.png
subject-03,1,94,0.846581935882568,bird,bird,0,0094_pow_s03_0_bird_35_n01616318_1935.png
subject-03,1,95,0.778764963150024,cat,bear,pow,0095_pow_s03_pow_bear_35_n02134084_22032.png
subject-03,1,96,1.03422689437866,car,truck,pow,0096_pow_s03_pow_truck_35_n03417042_3913.png
subject-03,1,97,0.906182050704956,truck,truck,pow,0097_pow_s03_pow_truck_35_n03796401_1789.png
subject-03,1,98,0.810369968414307,keyboard,keyboard,pow,0098_pow_s03_pow_keyboard_35_n04505470_1358.png
subject-03,1,99,0.775753021240234,truck,truck,0,0099_pow_s03_0_truck_35_n03796401_5873.png
subject-03,1,100,1.50000882148743,chair,boat,pow,0100_pow_s03_pow_boat_35_n03662601_15566.png
subject-03,1,101,0.735357046127319,bird,bird,0,0101_pow_s03_0_bird_35_n02002556_3463.png
subject-03,1,102,0.881214141845703,keyboard,keyboard,0,0102_pow_s03_0_keyboard_35_n03085013_21851.png
subject-03,1,103,0.70693302154541,clock,chair,pow,0103_pow_s03_pow_chair_35_n04099969_24041.png
subject-03,1,104,0.548846006393433,boat,boat,0,0104_pow_s03_0_boat_35_n03662601_13754.png
subject-03,1,105,0.914515972137451,truck,truck,pow,0105_pow_s03_pow_truck_35_n04467665_21942.png
subject-03,1,106,0.680830001831055,boat,boat,0,0106_pow_s03_0_boat_35_n04612504_18536.png
subject-03,1,107,0.902193069458008,bicycle,bicycle,pow,0107_pow_s03_pow_bicycle_35_n02835271_4313.png
subject-03,1,108,1.06401109695435,dog,dog,0,0108_pow_s03_0_dog_35_n02112706_3099.png
subject-03,1,109,1.11582493782043,bicycle,truck,pow,0109_pow_s03_pow_truck_35_n04467665_45611.png
subject-03,1,110,0.81567120552063,oven,oven,pow,0110_pow_s03_pow_oven_35_n04111531_2923.png
subject-03,1,111,0.889708995819092,bottle,bottle,0,0111_pow_s03_0_bottle_35_n04591713_7164.png
subject-03,1,112,0.817301034927368,airplane,airplane,0,0112_pow_s03_0_airplane_35_n02690373_9709.png
subject-03,1,113,0.921271085739136,bear,bear,pow,0113_pow_s03_pow_bear_35_n02134418_1974.png
subject-03,1,114,1.00928211212158,knife,keyboard,pow,0114_pow_s03_pow_keyboard_35_n03085013_19416.png
subject-03,1,115,1.03694105148315,knife,oven,pow,0115_pow_s03_pow_oven_35_n04111531_5967.png
subject-03,1,116,0.616578102111816,clock,clock,0,0116_pow_s03_0_clock_35_n04548280_7135.png
subject-03,1,117,0.750293016433716,bicycle,bicycle,0,0117_pow_s03_0_bicycle_35_n02835271_6094.png
subject-03,1,118,0.834181070327759,car,car,0,0118_pow_s03_0_car_35_n03100240_1435.png
subject-03,1,119,0.883929014205933,boat,boat,pow,0119_pow_s03_pow_boat_35_n03344393_8258.png
subject-03,1,120,0.733649969100952,oven,oven,pow,0120_pow_s03_pow_oven_35_n04111531_7883.png
subject-03,1,121,0.965557098388672,bottle,bottle,0,0121_pow_s03_0_bottle_35_n04560804_17783.png
subject-03,1,122,1.01526594161987,oven,clock,pow,0122_pow_s03_pow_clock_35_n04548280_2943.png
subject-03,1,123,0.825296878814697,bird,bird,0,0123_pow_s03_0_bird_35_n02027492_9905.png
subject-03,1,124,0.77295708656311,chair,chair,pow,0124_pow_s03_pow_chair_35_n03376595_11661.png
subject-03,1,125,0.955207109451294,elephant,elephant,0,0125_pow_s03_0_elephant_35_n02504013_6615.png
subject-03,1,126,0.820759057998657,clock,clock,pow,0126_pow_s03_pow_clock_35_n02708093_6822.png
subject-03,1,127,0.944464921951294,car,car,0,0127_pow_s03_0_car_35_n04285008_8052.png
subject-03,1,128,1.06614303588867,car,car,pow,0128_pow_s03_pow_car_35_n02814533_40876.png
subject-03,1,129,1.01405501365662,truck,truck,0,0129_pow_s03_0_truck_35_n04467665_7290.png
subject-03,1,130,0.914381980895996,elephant,elephant,0,0130_pow_s03_0_elephant_35_n02504013_891.png
subject-03,1,131,0.771713972091675,chair,chair,0,0131_pow_s03_0_chair_35_n04099969_114.png
subject-03,1,132,1.11351203918457,knife,knife,pow,0132_pow_s03_pow_knife_35_n03041632_21818.png
subject-03,1,133,0.947357177734375,truck,truck,pow,0133_pow_s03_pow_truck_35_n03796401_2934.png
subject-03,1,134,1.04347801208496,truck,truck,0,0134_pow_s03_0_truck_35_n04467665_72639.png
subject-03,1,135,0.962950944900513,bear,bear,0,0135_pow_s03_0_bear_35_n02132136_8033.png
subject-03,1,136,1.00679683685303,chair,chair,pow,0136_pow_s03_pow_chair_35_n03376595_6947.png
subject-03,1,137,0.964678049087524,truck,truck,0,0137_pow_s03_0_truck_35_n04467665_356.png
subject-03,1,138,0.990362167358398,bicycle,bicycle,pow,0138_pow_s03_pow_bicycle_35_n03792782_471.png
subject-03,1,139,0.776321172714233,bottle,bottle,pow,0139_pow_s03_pow_bottle_35_n04579145_3894.png
subject-03,1,140,0.860209941864014,chair,chair,0,0140_pow_s03_0_chair_35_n04099969_17428.png
subject-03,1,141,0.7399001121521,clock,bottle,pow,0141_pow_s03_pow_bottle_35_n03983396_2864.png
subject-03,1,142,0.847687959671021,elephant,elephant,0,0142_pow_s03_0_elephant_35_n02504013_5186.png
subject-03,1,143,0.881378173828125,airplane,airplane,0,0143_pow_s03_0_airplane_35_n02690373_2967.png
subject-03,1,144,0.703421115875244,car,car,pow,0144_pow_s03_pow_car_35_n04285008_10287.png
subject-03,1,145,0.803001880645752,bottle,bottle,pow,0145_pow_s03_pow_bottle_35_n04591713_3402.png
subject-03,1,146,0.934916019439697,dog,dog,pow,0146_pow_s03_pow_dog_35_n02093428_16873.png
subject-03,1,147,0.80692982673645,elephant,elephant,pow,0147_pow_s03_pow_elephant_35_n02504013_21616.png
subject-03,1,148,0.836465120315552,car,car,0,0148_pow_s03_0_car_35_n03100240_10244.png
subject-03,1,149,0.894232034683228,elephant,elephant,0,0149_pow_s03_0_elephant_35_n02504013_6973.png
subject-03,1,150,0.74846887588501,bicycle,bicycle,pow,0150_pow_s03_pow_bicycle_35_n03792782_51296.png
subject-03,1,151,1.11397194862366,bird,bird,0,0151_pow_s03_0_bird_35_n01829413_6608.png
subject-03,1,152,0.731794118881226,car,car,pow,0152_pow_s03_pow_car_35_n04285008_15071.png
subject-03,1,153,0.861662864685059,elephant,elephant,pow,0153_pow_s03_pow_elephant_35_n02504458_5320.png
subject-03,1,154,0.919412851333618,elephant,elephant,pow,0154_pow_s03_pow_elephant_35_n02504013_7026.png
subject-03,1,155,0.993306875228882,bicycle,bicycle,0,0155_pow_s03_0_bicycle_35_n03792782_18529.png
subject-03,1,156,0.802971124649048,truck,truck,0,0156_pow_s03_0_truck_35_n03417042_2062.png
subject-03,1,157,1.18498396873474,chair,knife,pow,0157_pow_s03_pow_knife_35_n03041632_84048.png
subject-03,1,158,0.834773063659668,elephant,elephant,pow,0158_pow_s03_pow_elephant_35_n02504013_6552.png
subject-03,1,159,1.08252906799316,dog,dog,0,0159_pow_s03_0_dog_35_n02109961_66260.png
subject-03,1,160,1.10017800331116,cat,cat,0,0160_pow_s03_0_cat_35_n02125311_27218.png
subject-03,1,161,0.895810127258301,cat,bird,pow,0161_pow_s03_pow_bird_35_n01514859_12245.png
subject-03,1,162,0.805608034133911,dog,dog,pow,0162_pow_s03_pow_dog_35_n02104029_3041.png
subject-03,1,163,1.06524920463562,bottle,bottle,0,0163_pow_s03_0_bottle_35_n03983396_12525.png
subject-03,1,164,1.00332999229431,dog,truck,0,0164_pow_s03_0_truck_35_n03417042_213.png
subject-03,1,165,0.904875040054321,bottle,bottle,0,0165_pow_s03_0_bottle_35_n02823428_5850.png
subject-03,1,166,0.776638984680176,chair,chair,0,0166_pow_s03_0_chair_35_n04429376_10544.png
subject-03,1,167,0.976579904556274,bottle,bottle,pow,0167_pow_s03_pow_bottle_35_n02823428_6327.png
subject-03,1,168,0.866446018218994,car,car,pow,0168_pow_s03_pow_car_35_n04285008_11745.png
subject-03,1,169,0.640166997909546,boat,boat,0,0169_pow_s03_0_boat_35_n02951358_5718.png
subject-03,1,170,0.909948110580444,dog,dog,0,0170_pow_s03_0_dog_35_n02088238_8653.png
subject-03,1,171,0.842133045196533,clock,clock,pow,0171_pow_s03_pow_clock_35_n02708093_687.png
subject-03,1,172,0.901721000671387,car,car,0,0172_pow_s03_0_car_35_n02814533_93487.png
subject-03,1,173,0.633371829986572,clock,clock,pow,0173_pow_s03_pow_clock_35_n04548280_8841.png
subject-03,1,174,0.861125946044922,car,car,0,0174_pow_s03_0_car_35_n03100240_17583.png
subject-03,1,175,0.669266939163208,boat,boat,0,0175_pow_s03_0_boat_35_n04273569_19796.png
subject-03,1,176,0.806977987289429,bear,bear,pow,0176_pow_s03_pow_bear_35_n02134418_5830.png
subject-03,1,177,0.922539949417114,airplane,airplane,0,0177_pow_s03_0_airplane_35_n02690373_306.png
subject-03,1,178,0.786419868469238,keyboard,keyboard,pow,0178_pow_s03_pow_keyboard_35_n03085013_19618.png
subject-03,1,179,0.90057110786438,keyboard,keyboard,pow,0179_pow_s03_pow_keyboard_35_n03085013_24653.png
subject-03,1,180,0.730017900466919,oven,oven,pow,0180_pow_s03_pow_oven_35_n04111531_11781.png
subject-03,1,181,0.639816045761108,cat,cat,0,0181_pow_s03_0_cat_35_n02124075_13663.png
subject-03,1,182,0.942038059234619,bottle,bottle,0,0182_pow_s03_0_bottle_35_n04557648_132.png
subject-03,1,183,0.931848049163818,bird,bird,0,0183_pow_s03_0_bird_35_n02027492_7770.png
subject-03,1,184,0.823653936386108,elephant,elephant,0,0184_pow_s03_0_elephant_35_n02504013_6141.png
subject-03,1,185,0.759159088134766,bottle,bottle,pow,0185_pow_s03_pow_bottle_35_n03983396_4241.png
subject-03,1,186,0.792876958847046,airplane,airplane,pow,0186_pow_s03_pow_airplane_35_n02690373_8461.png
subject-03,1,187,0.846881866455078,bicycle,bicycle,pow,0187_pow_s03_pow_bicycle_35_n03792782_56250.png
subject-03,1,188,0.780769109725952,clock,clock,0,0188_pow_s03_0_clock_35_n04548280_2601.png
subject-03,1,189,0.892371892929077,knife,knife,0,0189_pow_s03_0_knife_35_n03041632_3247.png
subject-03,1,190,1.21815705299377,bicycle,bicycle,0,0190_pow_s03_0_bicycle_35_n03792782_70690.png
subject-03,1,191,0.678070068359375,oven,oven,pow,0191_pow_s03_pow_oven_35_n04111531_5212.png
subject-03,1,192,0.55604887008667,boat,boat,0,0192_pow_s03_0_boat_35_n03662601_19840.png
subject-03,1,193,0.843523025512695,knife,knife,0,0193_pow_s03_0_knife_35_n03041632_11932.png
subject-03,1,194,0.781470060348511,boat,boat,0,0194_pow_s03_0_boat_35_n03344393_8380.png
subject-03,1,195,1.08707809448242,airplane,airplane,pow,0195_pow_s03_pow_airplane_35_n02690373_4578.png
subject-03,1,196,0.71514892578125,car,car,pow,0196_pow_s03_pow_car_35_n03100240_14206.png
subject-03,1,197,0.892760038375854,truck,truck,0,0197_pow_s03_0_truck_35_n03417042_15893.png
subject-03,1,198,0.764802932739258,cat,cat,pow,0198_pow_s03_pow_cat_35_n02123394_4713.png
subject-03,1,199,1.09664416313171,knife,oven,pow,0199_pow_s03_pow_oven_35_n04111531_9455.png
subject-03,1,200,0.850244998931885,knife,knife,0,0200_pow_s03_0_knife_35_n03041632_52040.png
subject-03,1,201,0.690232038497925,bottle,bottle,pow,0201_pow_s03_pow_bottle_35_n02823428_12740.png
subject-03,1,202,0.996237993240356,chair,chair,pow,0202_pow_s03_pow_chair_35_n04099969_5577.png
subject-03,1,203,0.899940013885498,bird,bird,0,0203_pow_s03_0_bird_35_n02018207_19525.png
subject-03,1,204,0.937932014465332,bicycle,bicycle,0,0204_pow_s03_0_bicycle_35_n02835271_8017.png
subject-03,1,205,1.1277060508728,keyboard,clock,0,0205_pow_s03_0_clock_35_n03196217_1234.png
subject-03,1,206,0.953250885009766,airplane,airplane,pow,0206_pow_s03_pow_airplane_35_n02690373_1071.png
subject-03,1,207,0.870990037918091,keyboard,keyboard,0,0207_pow_s03_0_keyboard_35_n03085013_19343.png
subject-03,1,208,0.684765815734863,clock,clock,0,0208_pow_s03_0_clock_35_n04548280_183.png
subject-03,1,209,0.756489992141724,bird,bird,0,0209_pow_s03_0_bird_35_n01824575_3046.png
subject-03,1,210,0.830379962921143,bottle,bottle,0,0210_pow_s03_0_bottle_35_n03983396_2271.png
subject-03,1,211,1.1401150226593,truck,oven,pow,0211_pow_s03_pow_oven_35_n04111531_22797.png
subject-03,1,212,0.73595404624939,airplane,airplane,pow,0212_pow_s03_pow_airplane_35_n02690373_60.png
subject-03,1,213,0.58405613899231,cat,cat,0,0213_pow_s03_0_cat_35_n02123159_4914.png
subject-03,1,214,0.901875019073486,bear,bear,0,0214_pow_s03_0_bear_35_n02132136_891.png
subject-03,1,215,0.975494146347046,airplane,airplane,0,0215_pow_s03_0_airplane_35_n02690373_7276.png
subject-03,1,216,0.913296937942505,bear,cat,pow,0216_pow_s03_pow_cat_35_n02123394_159.png
subject-03,1,217,1.00514101982117,car,car,0,0217_pow_s03_0_car_35_n02814533_3561.png
subject-03,1,218,1.37490701675415,oven,knife,0,0218_pow_s03_0_knife_35_n03041632_32377.png
subject-03,1,219,0.624624013900757,clock,clock,0,0219_pow_s03_0_clock_35_n03196217_5907.png
subject-03,1,220,0.758466958999634,keyboard,keyboard,0,0220_pow_s03_0_keyboard_35_n03085013_23465.png
subject-03,1,221,0.756271123886108,bicycle,bicycle,pow,0221_pow_s03_pow_bicycle_35_n02835271_13234.png
subject-03,1,222,0.708091974258423,bicycle,bicycle,0,0222_pow_s03_0_bicycle_35_n03792782_21148.png
subject-03,1,223,0.834007978439331,bear,bear,pow,0223_pow_s03_pow_bear_35_n02134418_848.png
subject-03,1,224,0.555855989456177,boat,boat,0,0224_pow_s03_0_boat_35_n03662601_13847.png
subject-03,1,225,0.997725009918213,bottle,bottle,pow,0225_pow_s03_pow_bottle_35_n02823428_6250.png
subject-03,1,226,0.665462017059326,airplane,airplane,0,0226_pow_s03_0_airplane_35_n02690373_1206.png
subject-03,1,227,0.651340961456299,bottle,bottle,0,0227_pow_s03_0_bottle_35_n03983396_3675.png
subject-03,1,228,0.852965116500854,knife,knife,pow,0228_pow_s03_pow_knife_35_n03041632_44019.png
subject-03,1,229,0.706935167312622,bottle,bottle,0,0229_pow_s03_0_bottle_35_n03937543_2941.png
subject-03,1,230,0.680727958679199,clock,clock,0,0230_pow_s03_0_clock_35_n04548280_7565.png
subject-03,1,231,0.810637950897217,chair,chair,0,0231_pow_s03_0_chair_35_n03376595_10881.png
subject-03,1,232,0.780482053756714,bicycle,bicycle,pow,0232_pow_s03_pow_bicycle_35_n02835271_542.png
subject-03,1,233,0.832226037979126,bicycle,bicycle,pow,0233_pow_s03_pow_bicycle_35_n03792782_15561.png
subject-03,1,234,0.868079900741577,airplane,airplane,pow,0234_pow_s03_pow_airplane_35_n02690373_8521.png
subject-03,1,235,0.995833873748779,oven,oven,0,0235_pow_s03_0_oven_35_n04111531_4585.png
subject-03,1,236,0.679619073867798,chair,chair,pow,0236_pow_s03_pow_chair_35_n04099969_24378.png
subject-03,1,237,1.10746002197266,airplane,airplane,0,0237_pow_s03_0_airplane_35_n02690373_1229.png
subject-03,1,238,0.719151020050049,cat,cat,pow,0238_pow_s03_pow_cat_35_n02123597_1027.png
subject-03,1,239,0.889086008071899,bottle,bottle,0,0239_pow_s03_0_bottle_35_n03937543_1680.png
subject-03,1,240,1.01114797592163,knife,knife,pow,0240_pow_s03_pow_knife_35_n03041632_22214.png
subject-03,1,241,1.03066515922546,bear,bird,pow,0241_pow_s03_pow_bird_35_n02025239_15554.png
subject-03,1,242,1.07636094093323,knife,knife,0,0242_pow_s03_0_knife_35_n03041632_34769.png
subject-03,1,243,0.992093086242676,oven,chair,pow,0243_pow_s03_pow_chair_35_n02791124_13435.png
subject-03,1,244,0.737870931625366,bird,bird,pow,0244_pow_s03_pow_bird_35_n01796340_11783.png
subject-03,1,245,0.679531097412109,boat,boat,0,0245_pow_s03_0_boat_35_n03344393_7669.png
subject-03,1,246,0.759397983551025,airplane,airplane,0,0246_pow_s03_0_airplane_35_n02690373_5126.png
subject-03,1,247,1.07750296592712,bicycle,bicycle,0,0247_pow_s03_0_bicycle_35_n02835271_10738.png
subject-03,1,248,0.80967116355896,oven,oven,pow,0248_pow_s03_pow_oven_35_n04111531_6181.png
subject-03,1,249,0.930922031402588,knife,knife,0,0249_pow_s03_0_knife_35_n03041632_45312.png
subject-03,1,250,0.786730051040649,clock,chair,0,0250_pow_s03_0_chair_35_n04429376_17074.png
subject-03,1,251,0.846665859222412,keyboard,keyboard,0,0251_pow_s03_0_keyboard_35_n04505470_1728.png
subject-03,1,252,0.89446496963501,truck,truck,0,0252_pow_s03_0_truck_35_n03417042_27326.png
subject-03,1,253,1.0522129535675,bear,elephant,0,0253_pow_s03_0_elephant_35_n02504458_7841.png
subject-03,1,254,1.01794290542603,bottle,bottle,0,0254_pow_s03_0_bottle_35_n04579145_2202.png
subject-03,1,255,0.785689115524292,clock,clock,0,0255_pow_s03_0_clock_35_n02708093_41.png
subject-03,1,256,0.929605960845947,bear,bear,pow,0256_pow_s03_pow_bear_35_n02132136_31257.png
subject-03,1,257,1.44381499290466,bird,bird,pow,0257_pow_s03_pow_bird_35_n01798484_962.png
subject-03,1,258,0.861274003982544,dog,dog,0,0258_pow_s03_0_dog_35_n02086646_7920.png
subject-03,1,259,0.897342920303345,bear,bear,0,0259_pow_s03_0_bear_35_n02134084_19791.png
subject-03,1,260,0.784805059432983,car,car,0,0260_pow_s03_0_car_35_n03100240_6103.png
subject-03,1,261,0.806745052337646,oven,oven,0,0261_pow_s03_0_oven_35_n04111531_12843.png
subject-03,1,262,1.10642886161804,dog,dog,0,0262_pow_s03_0_dog_35_n02100583_5392.png
subject-03,1,263,0.90027904510498,dog,dog,pow,0263_pow_s03_pow_dog_35_n02107908_5597.png
subject-03,1,264,1.07020711898804,bicycle,bicycle,pow,0264_pow_s03_pow_bicycle_35_n03792782_4931.png
subject-03,1,265,1.04425406455994,bird,bear,0,0265_pow_s03_0_bear_35_n02134084_14168.png
subject-03,1,266,1.13594794273376,clock,clock,pow,0266_pow_s03_pow_clock_35_n03196217_5206.png
subject-03,1,267,0.885656118392944,bottle,bottle,pow,0267_pow_s03_pow_bottle_35_n04591713_7005.png
subject-03,1,268,1.24134707450867,dog,dog,0,0268_pow_s03_0_dog_35_n02088632_2321.png
subject-03,1,269,0.927270889282227,bear,bear,pow,0269_pow_s03_pow_bear_35_n02134084_17218.png
subject-03,1,270,0.991099834442139,bear,bear,pow,0270_pow_s03_pow_bear_35_n02133161_8982.png
subject-03,1,271,0.830874919891357,bear,bear,pow,0271_pow_s03_pow_bear_35_n02132136_30306.png
subject-03,1,272,0.946531057357788,car,car,pow,0272_pow_s03_pow_car_35_n02814533_874.png
subject-03,1,273,0.954510927200317,bicycle,bicycle,pow,0273_pow_s03_pow_bicycle_35_n02835271_1701.png
subject-03,1,274,1.14437007904053,bicycle,bicycle,0,0274_pow_s03_0_bicycle_35_n02835271_3256.png
subject-03,1,275,1.03207612037659,knife,knife,0,0275_pow_s03_0_knife_35_n03041632_44238.png
subject-03,1,276,1.04985880851746,airplane,airplane,pow,0276_pow_s03_pow_airplane_35_n02690373_18304.png
subject-03,1,277,1.05360007286072,elephant,chair,pow,0277_pow_s03_pow_chair_35_n03376595_235.png
subject-03,1,278,0.985574007034302,truck,truck,pow,0278_pow_s03_pow_truck_35_n03796401_9105.png
subject-03,1,279,1.00539779663086,bird,bird,pow,0279_pow_s03_pow_bird_35_n01614925_5578.png
subject-03,1,280,0.72099494934082,clock,clock,0,0280_pow_s03_0_clock_35_n04548280_4768.png
subject-03,1,281,1.10079097747803,bottle,keyboard,0,0281_pow_s03_0_keyboard_35_n04505470_5131.png
subject-03,1,282,1.12499499320984,oven,oven,pow,0282_pow_s03_pow_oven_35_n04111531_452.png
subject-03,1,283,0.876694917678833,oven,oven,0,0283_pow_s03_0_oven_35_n04111531_15852.png
subject-03,1,284,0.850332021713257,airplane,airplane,pow,0284_pow_s03_pow_airplane_35_n02690373_4402.png
subject-03,1,285,0.840219020843506,airplane,airplane,0,0285_pow_s03_0_airplane_35_n02690373_4873.png
subject-03,1,286,0.822026968002319,elephant,elephant,0,0286_pow_s03_0_elephant_35_n02504013_7232.png
subject-03,1,287,0.689825057983398,bicycle,bicycle,0,0287_pow_s03_0_bicycle_35_n02835271_27777.png
subject-03,1,288,0.953544855117798,bird,bird,0,0288_pow_s03_0_bird_35_n01817953_31391.png
subject-03,1,289,0.735688924789429,chair,chair,0,0289_pow_s03_0_chair_35_n04099969_1163.png
subject-03,1,290,0.675255060195923,clock,clock,pow,0290_pow_s03_pow_clock_35_n04548280_2362.png
subject-03,1,291,0.899080991744995,dog,dog,pow,0291_pow_s03_pow_dog_35_n02111500_3896.png
subject-03,1,292,0.872983932495117,oven,knife,pow,0292_pow_s03_pow_knife_35_n03041632_85416.png
subject-03,1,293,1.16661691665649,bear,elephant,pow,0293_pow_s03_pow_elephant_35_n02504013_7191.png
subject-03,1,294,0.974434852600098,keyboard,knife,pow,0294_pow_s03_pow_knife_35_n03041632_76163.png
subject-03,1,295,0.75236701965332,car,car,0,0295_pow_s03_0_car_35_n04285008_1313.png
subject-03,1,296,0.880259990692139,keyboard,keyboard,0,0296_pow_s03_0_keyboard_35_n03085013_23086.png
subject-03,1,297,1.03199696540833,elephant,elephant,pow,0297_pow_s03_pow_elephant_35_n02504458_8254.png
subject-03,1,298,0.81574010848999,clock,clock,0,0298_pow_s03_0_clock_35_n03196217_412.png
subject-03,1,299,0.91370701789856,keyboard,keyboard,pow,0299_pow_s03_pow_keyboard_35_n03085013_20453.png
subject-03,1,300,1.16135501861572,airplane,airplane,0,0300_pow_s03_0_airplane_35_n02690373_8069.png
subject-03,1,301,0.963044166564941,dog,dog,0,0301_pow_s03_0_dog_35_n02109047_17100.png
subject-03,1,302,1.45693111419678,chair,chair,pow,0302_pow_s03_pow_chair_35_n02791124_16085.png
subject-03,1,303,0.638634204864502,cat,cat,0,0303_pow_s03_0_cat_35_n02123597_5697.png
subject-03,1,304,0.916619062423706,airplane,airplane,pow,0304_pow_s03_pow_airplane_35_n02690373_7676.png
subject-03,1,305,0.794376850128174,oven,oven,0,0305_pow_s03_0_oven_35_n04111531_13277.png
subject-03,1,306,0.766158103942871,knife,knife,pow,0306_pow_s03_pow_knife_35_n03041632_42472.png
subject-03,1,307,0.888115882873535,clock,chair,0,0307_pow_s03_0_chair_35_n04429376_31206.png
subject-03,1,308,0.970186233520508,elephant,elephant,0,0308_pow_s03_0_elephant_35_n02504458_13382.png
subject-03,1,309,0.745604991912842,knife,knife,0,0309_pow_s03_0_knife_35_n03041632_35365.png
subject-03,1,310,0.673542022705078,clock,clock,0,0310_pow_s03_0_clock_35_n02708093_7535.png
subject-03,1,311,0.827280044555664,cat,cat,pow,0311_pow_s03_pow_cat_35_n02123159_2043.png
subject-03,1,312,0.731197118759155,car,car,pow,0312_pow_s03_pow_car_35_n03100240_7056.png
subject-03,1,313,0.963191032409668,bottle,bottle,pow,0313_pow_s03_pow_bottle_35_n04557648_9790.png
subject-03,1,314,0.724526882171631,bottle,bottle,pow,0314_pow_s03_pow_bottle_35_n03983396_6889.png
subject-03,1,315,0.870528936386108,boat,boat,0,0315_pow_s03_0_boat_35_n03662601_6230.png
subject-03,1,316,1.50017595291138,elephant,bicycle,pow,0316_pow_s03_pow_bicycle_35_n02835271_2315.png
subject-03,1,317,0.862226963043213,elephant,elephant,pow,0317_pow_s03_pow_elephant_35_n02504013_7353.png
subject-03,1,318,0.889900922775269,car,car,0,0318_pow_s03_0_car_35_n04285008_7508.png
subject-03,1,319,0.793637990951538,bottle,bottle,0,0319_pow_s03_0_bottle_35_n03983396_16628.png
subject-03,1,320,0.811461925506592,bird,bird,0,0320_pow_s03_0_bird_35_n01855672_55167.png
subject-03,1,321,1.06661200523376,airplane,airplane,0,0321_pow_s03_0_airplane_35_n02690373_9165.png
subject-03,1,322,0.764796018600464,oven,oven,0,0322_pow_s03_0_oven_35_n04111531_4750.png
subject-03,1,323,0.726641893386841,car,car,0,0323_pow_s03_0_car_35_n02814533_18077.png
subject-03,1,324,0.974277019500732,chair,chair,pow,0324_pow_s03_pow_chair_35_n03376595_6409.png
subject-03,1,325,1.07006096839905,dog,bear,0,0325_pow_s03_0_bear_35_n02134418_261.png
subject-03,1,326,0.605944871902466,oven,oven,0,0326_pow_s03_0_oven_35_n04111531_3976.png
subject-03,1,327,0.849472999572754,elephant,elephant,pow,0327_pow_s03_pow_elephant_35_n02504013_6584.png
subject-03,1,328,0.827146053314209,bottle,bottle,0,0328_pow_s03_0_bottle_35_n02823428_641.png
subject-03,1,329,0.717229843139648,car,car,pow,0329_pow_s03_pow_car_35_n03100240_3874.png
subject-03,1,330,0.970932006835938,bicycle,bicycle,pow,0330_pow_s03_pow_bicycle_35_n03792782_8172.png
subject-03,1,331,0.638751983642578,bottle,bottle,0,0331_pow_s03_0_bottle_35_n02823428_2007.png
subject-03,1,332,0.85463285446167,elephant,elephant,pow,0332_pow_s03_pow_elephant_35_n02504458_2888.png
subject-03,1,333,0.72658896446228,bear,bear,pow,0333_pow_s03_pow_bear_35_n02133161_6028.png
subject-03,1,334,0.662164926528931,cat,cat,0,0334_pow_s03_0_cat_35_n02123159_2246.png
subject-03,1,335,0.997940063476562,bottle,bottle,pow,0335_pow_s03_pow_bottle_35_n03983396_16742.png
subject-03,1,336,1.50003814697266,cat,truck,pow,0336_pow_s03_pow_truck_35_n04467665_42823.png
subject-03,1,337,1.38960599899292,oven,oven,0,0337_pow_s03_0_oven_35_n04111531_5582.png
subject-03,1,338,1.05738806724548,dog,dog,pow,0338_pow_s03_pow_dog_35_n02105641_6742.png
subject-03,1,339,1.09505820274353,knife,knife,0,0339_pow_s03_0_knife_35_n03041632_29427.png
subject-03,1,340,0.897034168243408,cat,cat,pow,0340_pow_s03_pow_cat_35_n02124075_10456.png
subject-03,1,341,0.698918104171753,car,car,pow,0341_pow_s03_pow_car_35_n03100240_24471.png
subject-03,1,342,0.742588043212891,chair,chair,pow,0342_pow_s03_pow_chair_35_n02791124_28.png
subject-03,1,343,0.720366954803467,car,car,pow,0343_pow_s03_pow_car_35_n03100240_4065.png
subject-03,1,344,0.800504922866821,truck,truck,0,0344_pow_s03_0_truck_35_n03796401_22759.png
subject-03,1,345,1.05414295196533,knife,knife,0,0345_pow_s03_0_knife_35_n03041632_102887.png
subject-03,1,346,0.85804009437561,oven,oven,pow,0346_pow_s03_pow_oven_35_n04111531_19240.png
subject-03,1,347,0.561650037765503,boat,boat,0,0347_pow_s03_0_boat_35_n03662601_10120.png
subject-03,1,348,0.953400135040283,dog,dog,0,0348_pow_s03_0_dog_35_n02086240_1231.png
subject-03,1,349,0.799389123916626,bicycle,bicycle,0,0349_pow_s03_0_bicycle_35_n02835271_12799.png
subject-03,1,350,1.33512496948242,knife,clock,pow,0350_pow_s03_pow_clock_35_n04548280_2654.png
subject-03,1,351,0.636889934539795,boat,boat,0,0351_pow_s03_0_boat_35_n02951358_14624.png
subject-03,1,352,0.858747005462646,keyboard,keyboard,pow,0352_pow_s03_pow_keyboard_35_n04505470_5125.png
subject-03,1,353,0.628649950027466,cat,cat,0,0353_pow_s03_0_cat_35_n02123394_506.png
subject-03,1,354,0.782441139221191,cat,cat,pow,0354_pow_s03_pow_cat_35_n02123394_2448.png
subject-03,1,355,0.980103015899658,bicycle,bear,pow,0355_pow_s03_pow_bear_35_n02134418_5684.png
subject-03,1,356,1.38392090797424,bird,bird,pow,0356_pow_s03_pow_bird_35_n01537544_20224.png
subject-03,1,357,1.12780213356018,boat,boat,pow,0357_pow_s03_pow_boat_35_n03344393_3519.png
subject-03,1,358,0.493759870529175,boat,boat,pow,0358_pow_s03_pow_boat_35_n04612504_3064.png
subject-03,1,359,0.693769931793213,truck,truck,pow,0359_pow_s03_pow_truck_35_n04467665_3411.png
subject-03,1,360,1.17548513412476,truck,truck,0,0360_pow_s03_0_truck_35_n03796401_10878.png
subject-03,1,361,1.34508895874023,keyboard,clock,pow,0361_pow_s03_pow_clock_35_n03196217_3063.png
subject-03,1,362,0.906889915466309,knife,knife,0,0362_pow_s03_0_knife_35_n03041632_18236.png
subject-03,1,363,0.956752061843872,bird,bird,pow,0363_pow_s03_pow_bird_35_n01532829_15193.png
subject-03,1,364,0.92887806892395,bottle,bottle,0,0364_pow_s03_0_bottle_35_n04560804_8921.png
subject-03,1,365,0.830453872680664,airplane,airplane,0,0365_pow_s03_0_airplane_35_n02690373_3032.png
subject-03,1,366,0.844084978103638,truck,truck,pow,0366_pow_s03_pow_truck_35_n04467665_8824.png
subject-03,1,367,1.02588891983032,elephant,elephant,pow,0367_pow_s03_pow_elephant_35_n02504013_1763.png
subject-03,1,368,1.17163705825806,knife,knife,pow,0368_pow_s03_pow_knife_35_n03041632_9302.png
subject-03,1,369,1.01192498207092,dog,dog,0,0369_pow_s03_0_dog_35_n02099601_11986.png
subject-03,1,370,1.04768013954163,bottle,bottle,pow,0370_pow_s03_pow_bottle_35_n04591713_1767.png
subject-03,1,371,1.30317401885986,keyboard,clock,0,0371_pow_s03_0_clock_35_n03196217_3558.png
subject-03,1,372,0.806990146636963,elephant,elephant,pow,0372_pow_s03_pow_elephant_35_n02504458_3616.png
subject-03,1,373,1.16875696182251,bear,bear,0,0373_pow_s03_0_bear_35_n02134418_2714.png
subject-03,1,374,0.634648084640503,boat,boat,0,0374_pow_s03_0_boat_35_n03662601_16106.png
subject-03,1,375,0.64452600479126,bear,bear,0,0375_pow_s03_0_bear_35_n02134084_13205.png
subject-03,1,376,0.744395971298218,bear,bear,pow,0376_pow_s03_pow_bear_35_n02134418_3232.png
subject-03,1,377,1.108069896698,keyboard,keyboard,pow,0377_pow_s03_pow_keyboard_35_n04505470_1904.png
subject-03,1,378,0.875892877578735,bottle,bottle,0,0378_pow_s03_0_bottle_35_n03937543_5567.png
subject-03,1,379,0.707828998565674,car,car,0,0379_pow_s03_0_car_35_n03100240_5387.png
subject-03,1,380,0.701573133468628,oven,knife,0,0380_pow_s03_0_knife_35_n03041632_37274.png
subject-03,1,381,0.877315044403076,truck,truck,0,0381_pow_s03_0_truck_35_n03796401_15097.png
subject-03,1,382,1.04515910148621,oven,dog,pow,0382_pow_s03_pow_dog_35_n02104029_54.png
subject-03,1,383,0.821069002151489,dog,dog,0,0383_pow_s03_0_dog_35_n02111500_3947.png
subject-03,1,384,0.841159820556641,knife,knife,pow,0384_pow_s03_pow_knife_35_n03041632_27960.png
subject-03,1,385,0.618544101715088,cat,cat,0,0385_pow_s03_0_cat_35_n02123597_7081.png
subject-03,1,386,0.770732164382935,bottle,bottle,0,0386_pow_s03_0_bottle_35_n03983396_6281.png
subject-03,1,387,0.964251041412354,dog,dog,pow,0387_pow_s03_pow_dog_35_n02094258_6800.png
subject-03,1,388,0.65602707862854,bear,bear,0,0388_pow_s03_0_bear_35_n02132136_4157.png
subject-03,1,389,0.794018983840942,bottle,bottle,0,0389_pow_s03_0_bottle_35_n02823428_1149.png
subject-03,1,390,0.978066921234131,bird,bird,pow,0390_pow_s03_pow_bird_35_n01829413_943.png
subject-03,1,391,0.777450084686279,bottle,bottle,pow,0391_pow_s03_pow_bottle_35_n04591713_6827.png
subject-03,1,392,0.867175102233887,bear,bear,pow,0392_pow_s03_pow_bear_35_n02132136_3603.png
subject-03,1,393,0.97319507598877,knife,knife,pow,0393_pow_s03_pow_knife_35_n03041632_102764.png
subject-03,1,394,0.946983098983765,elephant,elephant,0,0394_pow_s03_0_elephant_35_n02504458_4414.png
subject-03,1,395,0.801033973693848,bird,bird,0,0395_pow_s03_0_bird_35_n02025239_2961.png
subject-03,1,396,1.06258296966553,airplane,airplane,pow,0396_pow_s03_pow_airplane_35_n02690373_763.png
subject-03,1,397,1.03624606132507,bicycle,bicycle,0,0397_pow_s03_0_bicycle_35_n02835271_4534.png
subject-03,1,398,0.898117065429688,elephant,elephant,pow,0398_pow_s03_pow_elephant_35_n02504013_1830.png
subject-03,1,399,0.808027982711792,bird,bird,0,0399_pow_s03_0_bird_35_n01795545_14302.png
subject-03,1,400,0.617631912231445,boat,boat,0,0400_pow_s03_0_boat_35_n04612504_434.png
subject-03,1,401,1.00063395500183,bird,cat,0,0401_pow_s03_0_cat_35_n02125311_20238.png
subject-03,1,402,0.87249493598938,truck,truck,0,0402_pow_s03_0_truck_35_n03417042_9023.png
subject-03,1,403,0.838272094726562,bicycle,bicycle,pow,0403_pow_s03_pow_bicycle_35_n02835271_771.png
subject-03,1,404,0.954115152359009,clock,clock,0,0404_pow_s03_0_clock_35_n04548280_11806.png
subject-03,1,405,0.912083864212036,chair,chair,pow,0405_pow_s03_pow_chair_35_n03376595_2916.png
subject-03,1,406,0.898097991943359,knife,knife,0,0406_pow_s03_0_knife_35_n03041632_16020.png
subject-03,1,407,0.853744029998779,clock,clock,0,0407_pow_s03_0_clock_35_n03196217_3762.png
subject-03,1,408,0.783523797988892,bicycle,bicycle,0,0408_pow_s03_0_bicycle_35_n03792782_12751.png
subject-03,1,409,1.12319993972778,elephant,elephant,0,0409_pow_s03_0_elephant_35_n02504458_5331.png
subject-03,1,410,0.704962015151978,bicycle,bicycle,0,0410_pow_s03_0_bicycle_35_n03792782_3333.png
subject-03,1,411,0.802718162536621,car,car,pow,0411_pow_s03_pow_car_35_n02814533_24730.png
subject-03,1,412,0.652708053588867,clock,clock,0,0412_pow_s03_0_clock_35_n02708093_2295.png
subject-03,1,413,0.678813934326172,car,car,0,0413_pow_s03_0_car_35_n02814533_11273.png
subject-03,1,414,0.722378015518188,keyboard,keyboard,pow,0414_pow_s03_pow_keyboard_35_n03085013_24591.png
subject-03,1,415,0.654036998748779,cat,cat,pow,0415_pow_s03_pow_cat_35_n02124075_9723.png
subject-03,1,416,0.775951862335205,bicycle,bicycle,pow,0416_pow_s03_pow_bicycle_35_n03792782_6023.png
subject-03,1,417,0.695626020431519,chair,chair,0,0417_pow_s03_0_chair_35_n04099969_15676.png
subject-03,1,418,0.753592014312744,clock,clock,0,0418_pow_s03_0_clock_35_n03196217_2607.png
subject-03,1,419,0.891410112380981,bottle,bottle,pow,0419_pow_s03_pow_bottle_35_n02823428_3328.png
subject-03,1,420,1.18509411811829,elephant,elephant,pow,0420_pow_s03_pow_elephant_35_n02504013_7467.png
subject-03,1,421,0.953310012817383,car,truck,pow,0421_pow_s03_pow_truck_35_n03796401_142.png
subject-03,1,422,0.804692983627319,chair,chair,pow,0422_pow_s03_pow_chair_35_n04099969_5294.png
subject-03,1,423,0.81869101524353,knife,knife,0,0423_pow_s03_0_knife_35_n03041632_11475.png
subject-03,1,424,0.728554964065552,clock,clock,pow,0424_pow_s03_pow_clock_35_n02708093_2546.png
subject-03,1,425,0.864629983901978,airplane,airplane,pow,0425_pow_s03_pow_airplane_35_n02690373_4225.png
subject-03,1,426,0.666032075881958,cat,cat,0,0426_pow_s03_0_cat_35_n02123597_6990.png
subject-03,1,427,0.817698955535889,bicycle,bicycle,0,0427_pow_s03_0_bicycle_35_n02835271_19875.png
subject-03,1,428,0.955526113510132,bear,boat,pow,0428_pow_s03_pow_boat_35_n02951358_16261.png
subject-03,1,429,0.609515905380249,boat,boat,pow,0429_pow_s03_pow_boat_35_n04612504_10662.png
subject-03,1,430,1.32137608528137,oven,oven,pow,0430_pow_s03_pow_oven_35_n04111531_14269.png
subject-03,1,431,0.725164175033569,clock,oven,pow,0431_pow_s03_pow_oven_35_n04111531_2462.png
subject-03,1,432,0.814742088317871,bicycle,bicycle,pow,0432_pow_s03_pow_bicycle_35_n03792782_3357.png
subject-03,1,433,0.858835935592651,elephant,elephant,0,0433_pow_s03_0_elephant_35_n02504013_354.png
subject-03,1,434,0.738425970077515,oven,oven,0,0434_pow_s03_0_oven_35_n04111531_3805.png
subject-03,1,435,0.638185024261475,boat,boat,pow,0435_pow_s03_pow_boat_35_n04273569_28992.png
subject-03,1,436,1.27412819862366,clock,chair,0,0436_pow_s03_0_chair_35_n04429376_24073.png
subject-03,1,437,0.549785137176514,boat,boat,0,0437_pow_s03_0_boat_35_n03344393_4106.png
subject-03,1,438,0.711817026138306,bottle,bottle,0,0438_pow_s03_0_bottle_35_n03983396_21920.png
subject-03,1,439,0.747545957565308,keyboard,keyboard,pow,0439_pow_s03_pow_keyboard_35_n03085013_3859.png
subject-03,1,440,0.647614002227783,clock,chair,0,0440_pow_s03_0_chair_35_n04429376_16372.png
subject-03,1,441,0.547139883041382,cat,cat,0,0441_pow_s03_0_cat_35_n02124075_2843.png
subject-03,1,442,1.09144902229309,bird,oven,pow,0442_pow_s03_pow_oven_35_n04111531_3580.png
subject-03,1,443,0.698951959609985,knife,knife,pow,0443_pow_s03_pow_knife_35_n03041632_56436.png
subject-03,1,444,0.710756063461304,bird,bird,0,0444_pow_s03_0_bird_35_n01537544_292.png
subject-03,1,445,0.674481868743896,clock,clock,pow,0445_pow_s03_pow_clock_35_n03196217_3104.png
subject-03,1,446,1.07035899162292,knife,oven,pow,0446_pow_s03_pow_oven_35_n04111531_18916.png
subject-03,1,447,0.617971897125244,boat,boat,pow,0447_pow_s03_pow_boat_35_n04612504_22353.png
subject-03,1,448,0.775808811187744,chair,chair,pow,0448_pow_s03_pow_chair_35_n02791124_15457.png
subject-03,1,449,0.623829126358032,cat,cat,pow,0449_pow_s03_pow_cat_35_n02123597_5514.png
subject-03,1,450,0.839363098144531,elephant,elephant,pow,0450_pow_s03_pow_elephant_35_n02504013_2865.png
subject-03,1,451,0.721102952957153,car,car,0,0451_pow_s03_0_car_35_n02814533_93476.png
subject-03,1,452,0.791133880615234,airplane,airplane,0,0452_pow_s03_0_airplane_35_n02690373_1797.png
subject-03,1,453,0.833021879196167,airplane,airplane,0,0453_pow_s03_0_airplane_35_n02690373_6614.png
subject-03,1,454,0.73675799369812,car,car,0,0454_pow_s03_0_car_35_n03100240_18756.png
subject-03,1,455,0.882597923278809,bottle,bottle,0,0455_pow_s03_0_bottle_35_n02823428_3028.png
subject-03,1,456,0.790518999099731,elephant,elephant,pow,0456_pow_s03_pow_elephant_35_n02504013_8534.png
subject-03,1,457,0.708374977111816,bear,bear,pow,0457_pow_s03_pow_bear_35_n02134418_3073.png
subject-03,1,458,0.674143075942993,cat,cat,pow,0458_pow_s03_pow_cat_35_n02123394_2573.png
subject-03,1,459,0.781904935836792,boat,boat,pow,0459_pow_s03_pow_boat_35_n04612504_8636.png
subject-03,1,460,0.769731998443604,bicycle,bicycle,pow,0460_pow_s03_pow_bicycle_35_n03792782_6735.png
subject-03,1,461,0.563403129577637,clock,clock,0,0461_pow_s03_0_clock_35_n03196217_10246.png
subject-03,1,462,0.871397018432617,knife,knife,pow,0462_pow_s03_pow_knife_35_n03041632_12651.png
subject-03,1,463,1.04095602035522,bicycle,chair,pow,0463_pow_s03_pow_chair_35_n04429376_9630.png
subject-03,1,464,0.656863927841187,bear,bear,0,0464_pow_s03_0_bear_35_n02134084_18372.png
subject-03,1,465,0.664967060089111,bottle,bottle,0,0465_pow_s03_0_bottle_35_n03983396_5093.png
subject-03,1,466,0.684525966644287,cat,cat,0,0466_pow_s03_0_cat_35_n02123394_5586.png
subject-03,1,467,1.11421704292297,dog,bicycle,pow,0467_pow_s03_pow_bicycle_35_n02835271_747.png
subject-03,1,468,0.668242931365967,boat,boat,pow,0468_pow_s03_pow_boat_35_n04273569_23293.png
subject-03,1,469,0.819970846176147,bottle,bottle,0,0469_pow_s03_0_bottle_35_n03983396_11632.png
subject-03,1,470,0.962148904800415,cat,cat,pow,0470_pow_s03_pow_cat_35_n02123045_11224.png
subject-03,1,471,0.687635898590088,bicycle,bicycle,pow,0471_pow_s03_pow_bicycle_35_n03792782_5034.png
subject-03,1,472,0.841591835021973,bottle,bottle,pow,0472_pow_s03_pow_bottle_35_n02823428_1733.png
subject-03,1,473,0.877238035202026,elephant,elephant,pow,0473_pow_s03_pow_elephant_35_n02504458_3463.png
subject-03,1,474,0.699054956436157,bear,bear,0,0474_pow_s03_0_bear_35_n02134084_9774.png
subject-03,1,475,0.80469799041748,bear,bear,0,0475_pow_s03_0_bear_35_n02134418_4657.png
subject-03,1,476,0.880733013153076,airplane,airplane,pow,0476_pow_s03_pow_airplane_35_n02690373_12966.png
subject-03,1,477,0.780426979064941,bottle,bottle,pow,0477_pow_s03_pow_bottle_35_n04579145_2999.png
subject-03,1,478,1.5,dog,dog,0,0478_pow_s03_0_dog_35_n02088364_5801.png
subject-03,1,479,0.690043926239014,cat,cat,0,0479_pow_s03_0_cat_35_n02123394_4286.png
subject-03,1,480,0.967744827270508,airplane,airplane,pow,0480_pow_s03_pow_airplane_35_n02690373_4471.png
subject-03,1,481,0.64004111289978,clock,clock,0,0481_pow_s03_0_clock_35_n03196217_4879.png
subject-03,1,482,0.754151105880737,bird,dog,pow,0482_pow_s03_pow_dog_35_n02088466_1537.png
subject-03,1,483,0.979596853256226,dog,dog,0,0483_pow_s03_0_dog_35_n02093256_1102.png
subject-03,1,484,0.745520830154419,knife,knife,0,0484_pow_s03_0_knife_35_n03041632_383.png
subject-03,1,485,1.03321003913879,dog,dog,pow,0485_pow_s03_pow_dog_35_n02088364_7145.png
subject-03,1,486,0.819391012191772,chair,chair,0,0486_pow_s03_0_chair_35_n03376595_6240.png
subject-03,1,487,0.886834144592285,keyboard,keyboard,pow,0487_pow_s03_pow_keyboard_35_n03085013_22713.png
subject-03,1,488,1.50001406669617,truck,oven,pow,0488_pow_s03_pow_oven_35_n04111531_3193.png
subject-03,1,489,0.808668851852417,car,car,pow,0489_pow_s03_pow_car_35_n03100240_6259.png
subject-03,1,490,0.744281053543091,elephant,elephant,0,0490_pow_s03_0_elephant_35_n02504013_10922.png
subject-03,1,491,0.694188117980957,truck,truck,pow,0491_pow_s03_pow_truck_35_n03417042_16403.png
subject-03,1,492,0.901926040649414,clock,chair,pow,0492_pow_s03_pow_chair_35_n04429376_10438.png
subject-03,1,493,0.859561920166016,knife,knife,0,0493_pow_s03_0_knife_35_n03041632_21560.png
subject-03,1,494,1.07339191436768,dog,dog,0,0494_pow_s03_0_dog_35_n02085936_1706.png
subject-03,1,495,0.781209945678711,car,car,0,0495_pow_s03_0_car_35_n04285008_16647.png
subject-03,1,496,0.927148103713989,dog,dog,pow,0496_pow_s03_pow_dog_35_n02110958_8916.png
subject-03,1,497,0.63292407989502,boat,boat,pow,0497_pow_s03_pow_boat_35_n04612504_857.png
subject-03,1,498,0.65877103805542,dog,dog,0,0498_pow_s03_0_dog_35_n02100735_1445.png
subject-03,1,499,0.976493835449219,keyboard,clock,0,0499_pow_s03_0_clock_35_n03196217_1519.png
subject-03,1,500,0.528407096862793,boat,boat,0,0500_pow_s03_0_boat_35_n02951358_30149.png
subject-03,1,501,0.772382974624634,elephant,bird,pow,0501_pow_s03_pow_bird_35_n01860187_486.png
subject-03,1,502,1.00423002243042,bear,bear,0,0502_pow_s03_0_bear_35_n02133161_5274.png
subject-03,1,503,0.819803953170776,bicycle,bicycle,0,0503_pow_s03_0_bicycle_35_n03792782_3765.png
subject-03,1,504,0.769861936569214,elephant,elephant,0,0504_pow_s03_0_elephant_35_n02504013_1715.png
subject-03,1,505,0.727545022964478,bicycle,bicycle,pow,0505_pow_s03_pow_bicycle_35_n02835271_5643.png
subject-03,1,506,1.35134291648865,boat,truck,pow,0506_pow_s03_pow_truck_35_n03796401_3273.png
subject-03,1,507,1.18123197555542,boat,bear,0,0507_pow_s03_0_bear_35_n02134084_15968.png
subject-03,1,508,0.792868852615356,truck,truck,pow,0508_pow_s03_pow_truck_35_n03417042_27931.png
subject-03,1,509,0.892926931381226,dog,dog,0,0509_pow_s03_0_dog_35_n02091831_4183.png
subject-03,1,510,0.85834002494812,bird,bird,pow,0510_pow_s03_pow_bird_35_n01558993_6351.png
subject-03,1,511,0.988351106643677,truck,truck,pow,0511_pow_s03_pow_truck_35_n04467665_37935.png
subject-03,1,512,0.52215313911438,boat,boat,pow,0512_pow_s03_pow_boat_35_n04273569_27839.png
subject-03,1,513,0.802319049835205,clock,clock,pow,0513_pow_s03_pow_clock_35_n02708093_3645.png
subject-03,1,514,0.831645011901855,bicycle,bicycle,0,0514_pow_s03_0_bicycle_35_n03792782_13399.png
subject-03,1,515,0.847598075866699,elephant,elephant,pow,0515_pow_s03_pow_elephant_35_n02504013_1081.png
subject-03,1,516,0.715639114379883,airplane,airplane,pow,0516_pow_s03_pow_airplane_35_n02690373_5277.png
subject-03,1,517,0.933237075805664,knife,knife,pow,0517_pow_s03_pow_knife_35_n03041632_13194.png
subject-03,1,518,1.02298998832703,bear,cat,pow,0518_pow_s03_pow_cat_35_n02125311_12361.png
subject-03,1,519,0.812714815139771,elephant,elephant,pow,0519_pow_s03_pow_elephant_35_n02504013_474.png
subject-03,1,520,0.770609140396118,bottle,bottle,0,0520_pow_s03_0_bottle_35_n02823428_4569.png
subject-03,1,521,1.2904109954834,cat,dog,0,0521_pow_s03_0_dog_35_n02090622_1852.png
subject-03,1,522,0.896384954452515,elephant,elephant,0,0522_pow_s03_0_elephant_35_n02504458_7302.png
subject-03,1,523,0.886500120162964,car,car,pow,0523_pow_s03_pow_car_35_n02814533_65623.png
subject-03,1,524,0.765918970108032,keyboard,keyboard,0,0524_pow_s03_0_keyboard_35_n03085013_22996.png
subject-03,1,525,0.871803998947144,truck,truck,pow,0525_pow_s03_pow_truck_35_n03796401_3618.png
subject-03,1,526,0.939784049987793,keyboard,keyboard,pow,0526_pow_s03_pow_keyboard_35_n04505470_4844.png
subject-03,1,527,0.891434907913208,dog,dog,pow,0527_pow_s03_pow_dog_35_n02100583_3987.png
subject-03,1,528,0.801272869110107,elephant,elephant,0,0528_pow_s03_0_elephant_35_n02504013_18498.png
subject-03,1,529,0.814998149871826,bear,bear,pow,0529_pow_s03_pow_bear_35_n02132136_8457.png
subject-03,1,530,0.600652933120728,car,car,0,0530_pow_s03_0_car_35_n02814533_4449.png
subject-03,1,531,0.940568923950195,bicycle,bear,pow,0531_pow_s03_pow_bear_35_n02133161_1309.png
subject-03,1,532,0.750305891036987,cat,cat,0,0532_pow_s03_0_cat_35_n02125311_53223.png
subject-03,1,533,0.976131916046143,elephant,elephant,0,0533_pow_s03_0_elephant_35_n02504013_1454.png
subject-03,1,534,0.924094915390015,clock,chair,0,0534_pow_s03_0_chair_35_n04429376_8069.png
subject-03,1,535,0.8819580078125,bicycle,bicycle,0,0535_pow_s03_0_bicycle_35_n03792782_7878.png
subject-03,1,536,0.789910078048706,bicycle,bicycle,0,0536_pow_s03_0_bicycle_35_n02835271_5196.png
subject-03,1,537,0.747477054595947,cat,cat,0,0537_pow_s03_0_cat_35_n02125311_55770.png
subject-03,1,538,0.869232892990112,elephant,elephant,0,0538_pow_s03_0_elephant_35_n02504013_3843.png
subject-03,1,539,0.765103816986084,airplane,airplane,0,0539_pow_s03_0_airplane_35_n02690373_3415.png
subject-03,1,540,0.964795112609863,elephant,oven,pow,0540_pow_s03_pow_oven_35_n04111531_18949.png
subject-03,1,541,0.859060049057007,keyboard,keyboard,pow,0541_pow_s03_pow_keyboard_35_n03085013_8364.png
subject-03,1,542,0.644429922103882,oven,oven,0,0542_pow_s03_0_oven_35_n04111531_5110.png
subject-03,1,543,1.39049291610718,elephant,bird,pow,0543_pow_s03_pow_bird_35_n01532829_4536.png
subject-03,1,544,1.146164894104,bear,bear,0,0544_pow_s03_0_bear_35_n02133161_1360.png
subject-03,1,545,1.18191409111023,dog,dog,pow,0545_pow_s03_pow_dog_35_n02113023_12143.png
subject-03,1,546,0.663839101791382,cat,cat,0,0546_pow_s03_0_cat_35_n02124075_4189.png
subject-03,1,547,0.801699876785278,bear,bear,0,0547_pow_s03_0_bear_35_n02134084_23292.png
subject-03,1,548,0.921449184417725,bottle,bottle,pow,0548_pow_s03_pow_bottle_35_n03983396_2944.png
subject-03,1,549,0.695103168487549,bird,bird,0,0549_pow_s03_0_bird_35_n01531178_17387.png
subject-03,1,550,0.897018909454346,elephant,elephant,0,0550_pow_s03_0_elephant_35_n02504458_3250.png
subject-03,1,551,0.64909291267395,oven,oven,0,0551_pow_s03_0_oven_35_n04111531_6049.png
subject-03,1,552,0.824673175811768,car,car,0,0552_pow_s03_0_car_35_n04285008_5897.png
subject-03,1,553,0.814812898635864,chair,chair,0,0553_pow_s03_0_chair_35_n04099969_2113.png
subject-03,1,554,1.08216309547424,oven,keyboard,pow,0554_pow_s03_pow_keyboard_35_n03085013_17937.png
subject-03,1,555,1.29443597793579,airplane,airplane,pow,0555_pow_s03_pow_airplane_35_n02690373_4042.png
subject-03,1,556,0.845812082290649,chair,chair,0,0556_pow_s03_0_chair_35_n04099969_10516.png
subject-03,1,557,0.867662191390991,keyboard,keyboard,0,0557_pow_s03_0_keyboard_35_n03085013_23354.png
subject-03,1,558,0.591569900512695,clock,clock,pow,0558_pow_s03_pow_clock_35_n04548280_1106.png
subject-03,1,559,0.939281940460205,bear,bear,pow,0559_pow_s03_pow_bear_35_n02134084_13588.png
subject-03,1,560,0.841082096099854,bear,bear,0,0560_pow_s03_0_bear_35_n02133161_12167.png
subject-03,1,561,0.620553016662598,keyboard,keyboard,0,0561_pow_s03_0_keyboard_35_n03085013_23291.png
subject-03,1,562,0.688567161560059,cat,cat,pow,0562_pow_s03_pow_cat_35_n02123159_4687.png
subject-03,1,563,0.972386837005615,cat,cat,pow,0563_pow_s03_pow_cat_35_n02123045_11501.png
subject-03,1,564,0.860076904296875,keyboard,keyboard,0,0564_pow_s03_0_keyboard_35_n03085013_7858.png
subject-03,1,565,1.06796503067017,knife,knife,pow,0565_pow_s03_pow_knife_35_n03041632_24114.png
subject-03,1,566,0.741805076599121,clock,clock,pow,0566_pow_s03_pow_clock_35_n02708093_2283.png
subject-03,1,567,1.35768890380859,car,oven,pow,0567_pow_s03_pow_oven_35_n04111531_23046.png
subject-03,1,568,0.557539939880371,clock,clock,0,0568_pow_s03_0_clock_35_n03196217_3333.png
subject-03,1,569,0.991070032119751,car,car,pow,0569_pow_s03_pow_car_35_n02814533_39666.png
subject-03,1,570,0.668935060501099,airplane,airplane,0,0570_pow_s03_0_airplane_35_n02690373_6618.png
subject-03,1,571,0.675096988677979,oven,oven,0,0571_pow_s03_0_oven_35_n04111531_19631.png
subject-03,1,572,0.801035165786743,truck,truck,0,0572_pow_s03_0_truck_35_n04467665_45983.png
subject-03,1,573,0.742786169052124,bottle,bottle,0,0573_pow_s03_0_bottle_35_n03983396_17636.png
subject-03,1,574,0.932178020477295,bear,bear,pow,0574_pow_s03_pow_bear_35_n02134418_2298.png
subject-03,1,575,1.11801886558533,keyboard,keyboard,pow,0575_pow_s03_pow_keyboard_35_n03085013_22669.png
subject-03,1,576,0.763903141021729,airplane,airplane,pow,0576_pow_s03_pow_airplane_35_n02690373_2147.png
subject-03,1,577,1.48783397674561,clock,knife,pow,0577_pow_s03_pow_knife_35_n03041632_13509.png
subject-03,1,578,0.609477043151855,cat,cat,pow,0578_pow_s03_pow_cat_35_n02123159_7465.png
subject-03,1,579,0.60535192489624,clock,clock,pow,0579_pow_s03_pow_clock_35_n04548280_1960.png
subject-03,1,580,0.555173873901367,boat,boat,pow,0580_pow_s03_pow_boat_35_n02951358_912.png
subject-03,1,581,0.627348899841309,boat,boat,pow,0581_pow_s03_pow_boat_35_n04273569_31649.png
subject-03,1,582,1.27513194084167,clock,truck,0,0582_pow_s03_0_truck_35_n03417042_4934.png
subject-03,1,583,0.944561004638672,airplane,airplane,0,0583_pow_s03_0_airplane_35_n02690373_4763.png
subject-03,1,584,0.866241931915283,truck,bottle,pow,0584_pow_s03_pow_bottle_35_n03937543_2177.png
subject-03,1,585,0.990486145019531,chair,cat,0,0585_pow_s03_0_cat_35_n02123159_643.png
subject-03,1,586,1.29607391357422,airplane,airplane,pow,0586_pow_s03_pow_airplane_35_n02690373_10510.png
subject-03,1,587,0.986180067062378,keyboard,keyboard,pow,0587_pow_s03_pow_keyboard_35_n03085013_22813.png
subject-03,1,588,1.0454580783844,boat,boat,0,0588_pow_s03_0_boat_35_n03662601_2120.png
subject-03,1,589,1.10945010185242,dog,dog,0,0589_pow_s03_0_dog_35_n02106550_4880.png
subject-03,1,590,0.965166091918945,airplane,airplane,pow,0590_pow_s03_pow_airplane_35_n02690373_911.png
subject-03,1,591,0.985442161560059,clock,clock,pow,0591_pow_s03_pow_clock_35_n04548280_5189.png
subject-03,1,592,0.666826963424683,bicycle,bicycle,pow,0592_pow_s03_pow_bicycle_35_n02835271_1436.png
subject-03,1,593,0.870822191238403,bird,boat,pow,0593_pow_s03_pow_boat_35_n04273569_3460.png
subject-03,1,594,0.970498085021973,truck,truck,pow,0594_pow_s03_pow_truck_35_n03417042_6608.png
subject-03,1,595,0.770357847213745,cat,cat,pow,0595_pow_s03_pow_cat_35_n02123045_13199.png
subject-03,1,596,1.22216486930847,truck,airplane,pow,0596_pow_s03_pow_airplane_35_n02690373_5149.png
subject-03,1,597,0.81389594078064,bear,dog,pow,0597_pow_s03_pow_dog_35_n02105056_6724.png
subject-03,1,598,0.583749055862427,clock,clock,pow,0598_pow_s03_pow_clock_35_n04548280_82.png
subject-03,1,599,0.855600833892822,truck,truck,pow,0599_pow_s03_pow_truck_35_n04467665_3433.png
subject-03,1,600,1.0093400478363,cat,chair,pow,0600_pow_s03_pow_chair_35_n03376595_9048.png
subject-03,1,601,0.74727988243103,clock,clock,0,0601_pow_s03_0_clock_35_n02708093_353.png
subject-03,1,602,0.651131868362427,oven,oven,pow,0602_pow_s03_pow_oven_35_n04111531_12702.png
subject-03,1,603,0.84519100189209,bicycle,bicycle,0,0603_pow_s03_0_bicycle_35_n03792782_68319.png
subject-03,1,604,1.08059501647949,chair,chair,0,0604_pow_s03_0_chair_35_n04099969_4816.png
subject-03,1,605,0.726341009140015,oven,oven,0,0605_pow_s03_0_oven_35_n04111531_1725.png
subject-03,1,606,0.740206003189087,elephant,elephant,0,0606_pow_s03_0_elephant_35_n02504458_6618.png
subject-03,1,607,0.845898866653442,bicycle,bicycle,0,0607_pow_s03_0_bicycle_35_n02835271_22263.png
subject-03,1,608,0.8018958568573,bottle,bottle,0,0608_pow_s03_0_bottle_35_n03983396_24837.png
subject-03,1,609,0.697802066802979,keyboard,keyboard,0,0609_pow_s03_0_keyboard_35_n03085013_20906.png
subject-03,1,610,0.719831943511963,cat,cat,pow,0610_pow_s03_pow_cat_35_n02123597_589.png
subject-03,1,611,0.64345121383667,boat,boat,pow,0611_pow_s03_pow_boat_35_n03344393_6260.png
subject-03,1,612,0.789459943771362,car,car,pow,0612_pow_s03_pow_car_35_n04285008_6037.png
subject-03,1,613,0.803033113479614,clock,clock,0,0613_pow_s03_0_clock_35_n02708093_2498.png
subject-03,1,614,0.954652070999146,airplane,airplane,0,0614_pow_s03_0_airplane_35_n02690373_2607.png
subject-03,1,615,1.12444519996643,bicycle,bicycle,0,0615_pow_s03_0_bicycle_35_n02835271_19557.png
subject-03,1,616,0.900294065475464,truck,truck,pow,0616_pow_s03_pow_truck_35_n03417042_1841.png
subject-03,1,617,1.05452299118042,bird,bird,0,0617_pow_s03_0_bird_35_n02056570_8203.png
subject-03,1,618,0.918026924133301,elephant,elephant,0,0618_pow_s03_0_elephant_35_n02504013_1916.png
subject-03,1,619,0.633832931518555,cat,cat,pow,0619_pow_s03_pow_cat_35_n02125311_30246.png
subject-03,1,620,1.0115020275116,oven,knife,0,0620_pow_s03_0_knife_35_n03041632_4305.png
subject-03,1,621,0.76531195640564,bear,bear,0,0621_pow_s03_0_bear_35_n02134418_2590.png
subject-03,1,622,0.95921516418457,bird,bird,pow,0622_pow_s03_pow_bird_35_n01537544_9881.png
subject-03,1,623,0.896967887878418,boat,boat,0,0623_pow_s03_0_boat_35_n02951358_29779.png
subject-03,1,624,0.910887002944946,dog,dog,pow,0624_pow_s03_pow_dog_35_n02108915_8164.png
subject-03,1,625,1.0945839881897,elephant,elephant,0,0625_pow_s03_0_elephant_35_n02504013_7273.png
subject-03,1,626,0.794640779495239,keyboard,keyboard,pow,0626_pow_s03_pow_keyboard_35_n03085013_21183.png
subject-03,1,627,0.878262042999268,cat,cat,pow,0627_pow_s03_pow_cat_35_n02123597_6370.png
subject-03,1,628,0.941997051239014,elephant,elephant,pow,0628_pow_s03_pow_elephant_35_n02504458_3891.png
subject-03,1,629,1.455735206604,elephant,clock,pow,0629_pow_s03_pow_clock_35_n03196217_2859.png
subject-03,1,630,0.78780198097229,car,car,pow,0630_pow_s03_pow_car_35_n04285008_13259.png
subject-03,1,631,0.799525022506714,oven,oven,0,0631_pow_s03_0_oven_35_n04111531_13296.png
subject-03,1,632,0.781251192092896,airplane,airplane,pow,0632_pow_s03_pow_airplane_35_n02690373_6231.png
subject-03,1,633,0.935083866119385,chair,chair,0,0633_pow_s03_0_chair_35_n02791124_2003.png
subject-03,1,634,0.940932989120483,airplane,boat,0,0634_pow_s03_0_boat_35_n04273569_12651.png
subject-03,1,635,0.905023097991943,knife,knife,pow,0635_pow_s03_pow_knife_35_n03041632_46103.png
subject-03,1,636,0.906632900238037,cat,dog,pow,0636_pow_s03_pow_dog_35_n02108000_6061.png
subject-03,1,637,1.08049011230469,oven,bottle,pow,0637_pow_s03_pow_bottle_35_n03983396_12895.png
subject-03,1,638,0.708543062210083,truck,truck,0,0638_pow_s03_0_truck_35_n03417042_27966.png
subject-03,1,639,0.768241882324219,knife,knife,pow,0639_pow_s03_pow_knife_35_n03041632_94995.png
subject-03,1,640,0.847903966903687,car,car,0,0640_pow_s03_0_car_35_n03100240_8483.png
subject-03,1,641,1.2073290348053,car,car,pow,0641_pow_s03_pow_car_35_n02814533_27588.png
subject-03,1,642,0.721238136291504,truck,truck,0,0642_pow_s03_0_truck_35_n03417042_17888.png
subject-03,1,643,0.773483991622925,airplane,airplane,0,0643_pow_s03_0_airplane_35_n02690373_4681.png
subject-03,1,644,0.688998937606812,bicycle,bicycle,pow,0644_pow_s03_pow_bicycle_35_n02835271_3767.png
subject-03,1,645,0.6146559715271,boat,boat,0,0645_pow_s03_0_boat_35_n03662601_5849.png
subject-03,1,646,0.636281967163086,clock,clock,0,0646_pow_s03_0_clock_35_n04548280_16378.png
subject-03,1,647,0.720412969589233,oven,oven,0,0647_pow_s03_0_oven_35_n04111531_5694.png
subject-03,1,648,0.934162139892578,bottle,bottle,pow,0648_pow_s03_pow_bottle_35_n02823428_774.png
subject-03,1,649,0.866176128387451,bird,bird,0,0649_pow_s03_0_bird_35_n02051845_6652.png
subject-03,1,650,1.07347202301025,bird,bird,0,0650_pow_s03_0_bird_35_n01819313_2722.png
subject-03,1,651,0.891525030136108,chair,chair,0,0651_pow_s03_0_chair_35_n02791124_2008.png
subject-03,1,652,1.49518799781799,dog,dog,0,0652_pow_s03_0_dog_35_n02099601_2980.png
subject-03,1,653,0.789238929748535,cat,cat,pow,0653_pow_s03_pow_cat_35_n02125311_40746.png
subject-03,1,654,1.00898885726929,car,car,0,0654_pow_s03_0_car_35_n04285008_7870.png
subject-03,1,655,0.780855894088745,bird,bird,pow,0655_pow_s03_pow_bird_35_n01537544_9745.png
subject-03,1,656,1.13673210144043,bear,elephant,pow,0656_pow_s03_pow_elephant_35_n02504013_7309.png
subject-03,1,657,0.806364059448242,bottle,bottle,0,0657_pow_s03_0_bottle_35_n03983396_4879.png
subject-03,1,658,0.816057920455933,bird,bird,pow,0658_pow_s03_pow_bird_35_n01820546_6471.png
subject-03,1,659,0.661850214004517,oven,oven,0,0659_pow_s03_0_oven_35_n04111531_2074.png
subject-03,1,660,0.733821868896484,clock,clock,pow,0660_pow_s03_pow_clock_35_n03196217_3647.png
subject-03,1,661,0.677647113800049,airplane,airplane,pow,0661_pow_s03_pow_airplane_35_n02690373_2433.png
subject-03,1,662,0.765451908111572,oven,oven,pow,0662_pow_s03_pow_oven_35_n04111531_1873.png
subject-03,1,663,1.02711796760559,bottle,bottle,0,0663_pow_s03_0_bottle_35_n04560804_3801.png
subject-03,1,664,0.852885007858276,bird,bird,0,0664_pow_s03_0_bird_35_n01614925_11281.png
subject-03,1,665,1.06071519851685,dog,dog,pow,0665_pow_s03_pow_dog_35_n02097298_6578.png
subject-03,1,666,0.75873589515686,airplane,airplane,0,0666_pow_s03_0_airplane_35_n02690373_19104.png
subject-03,1,667,0.824491024017334,car,car,pow,0667_pow_s03_pow_car_35_n02814533_40913.png
subject-03,1,668,0.846377849578857,chair,chair,pow,0668_pow_s03_pow_chair_35_n03376595_13703.png
subject-03,1,669,0.960251092910767,bear,bird,pow,0669_pow_s03_pow_bird_35_n01537544_7301.png
subject-03,1,670,0.891765117645264,elephant,elephant,0,0670_pow_s03_0_elephant_35_n02504013_2778.png
subject-03,1,671,0.717793941497803,car,car,0,0671_pow_s03_0_car_35_n02814533_1297.png
subject-03,1,672,0.687589168548584,cat,cat,0,0672_pow_s03_0_cat_35_n02123394_1899.png
subject-03,1,673,0.795257091522217,car,car,0,0673_pow_s03_0_car_35_n02814533_35174.png
subject-03,1,674,0.836971044540405,bear,bear,0,0674_pow_s03_0_bear_35_n02132136_900.png
subject-03,1,675,0.818838119506836,airplane,airplane,0,0675_pow_s03_0_airplane_35_n02690373_5714.png
subject-03,1,676,0.91478705406189,chair,chair,0,0676_pow_s03_0_chair_35_n02791124_359.png
subject-03,1,677,0.754590034484863,chair,chair,pow,0677_pow_s03_pow_chair_35_n03376595_14619.png
subject-03,1,678,0.936383962631226,chair,chair,pow,0678_pow_s03_pow_chair_35_n03376595_9651.png
subject-03,1,679,1.17824792861938,bear,boat,0,0679_pow_s03_0_boat_35_n02951358_18804.png
subject-03,1,680,0.792124032974243,bird,bird,pow,0680_pow_s03_pow_bird_35_n01534433_14255.png
subject-03,1,681,0.831839084625244,bird,bird,pow,0681_pow_s03_pow_bird_35_n01860187_2052.png
subject-03,1,682,0.611654996871948,bicycle,bicycle,pow,0682_pow_s03_pow_bicycle_35_n03792782_12885.png
subject-03,1,683,1.13959288597107,chair,oven,0,0683_pow_s03_0_oven_35_n04111531_1050.png
subject-03,1,684,0.635390996932983,cat,cat,0,0684_pow_s03_0_cat_35_n02123597_14639.png
subject-03,1,685,0.829035043716431,truck,truck,0,0685_pow_s03_0_truck_35_n03796401_20861.png
subject-03,1,686,0.755012989044189,keyboard,keyboard,0,0686_pow_s03_0_keyboard_35_n03085013_23658.png
subject-03,1,687,1.26855707168579,dog,dog,0,0687_pow_s03_0_dog_35_n02093754_4677.png
subject-03,1,688,0.898562908172607,knife,knife,0,0688_pow_s03_0_knife_35_n03041632_120.png
subject-03,1,689,0.716220855712891,bird,bird,0,0689_pow_s03_0_bird_35_n01616318_2186.png
subject-03,1,690,1.07021594047546,knife,cat,pow,0690_pow_s03_pow_cat_35_n02123159_463.png
subject-03,1,691,0.80000901222229,bicycle,bicycle,pow,0691_pow_s03_pow_bicycle_35_n03792782_20190.png
subject-03,1,692,0.949910163879395,truck,truck,0,0692_pow_s03_0_truck_35_n04467665_2098.png
subject-03,1,693,0.877542018890381,dog,dog,0,0693_pow_s03_0_dog_35_n02086240_519.png
subject-03,1,694,0.783478975296021,bird,bird,0,0694_pow_s03_0_bird_35_n01833805_7528.png
subject-03,1,695,1.02357292175293,knife,knife,pow,0695_pow_s03_pow_knife_35_n03041632_29276.png
subject-03,1,696,0.603127956390381,clock,clock,pow,0696_pow_s03_pow_clock_35_n02708093_6.png
subject-03,1,697,0.858759164810181,elephant,elephant,pow,0697_pow_s03_pow_elephant_35_n02504013_24810.png
subject-03,1,698,1.00448203086853,cat,keyboard,0,0698_pow_s03_0_keyboard_35_n03085013_24272.png
subject-03,1,699,0.986655950546265,boat,boat,pow,0699_pow_s03_pow_boat_35_n03344393_8407.png
subject-03,1,700,0.836336851119995,car,car,pow,0700_pow_s03_pow_car_35_n02814533_61184.png
subject-03,1,701,1.12811398506165,clock,chair,pow,0701_pow_s03_pow_chair_35_n04429376_30249.png
subject-03,1,702,0.843895196914673,chair,chair,0,0702_pow_s03_0_chair_35_n04099969_13105.png
subject-03,1,703,0.741767168045044,bicycle,bicycle,pow,0703_pow_s03_pow_bicycle_35_n03792782_1715.png
subject-03,1,704,0.659861087799072,boat,boat,0,0704_pow_s03_0_boat_35_n04612504_2089.png
subject-03,1,705,0.807368040084839,bird,bird,pow,0705_pow_s03_pow_bird_35_n01819313_6752.png
subject-03,1,706,0.699076175689697,chair,chair,0,0706_pow_s03_0_chair_35_n04099969_16079.png
subject-03,1,707,1.23307108879089,dog,dog,pow,0707_pow_s03_pow_dog_35_n02094258_794.png
subject-03,1,708,0.774791955947876,chair,chair,0,0708_pow_s03_0_chair_35_n03376595_7010.png
subject-03,1,709,0.896538972854614,elephant,elephant,0,0709_pow_s03_0_elephant_35_n02504013_2476.png
subject-03,1,710,1.50002694129944,oven,clock,pow,0710_pow_s03_pow_clock_35_n03196217_3362.png
subject-03,1,711,1.10429787635803,truck,truck,0,0711_pow_s03_0_truck_35_n03796401_322.png
subject-03,1,712,0.800342798233032,knife,knife,0,0712_pow_s03_0_knife_35_n03041632_30196.png
subject-03,1,713,1.09381079673767,car,oven,pow,0713_pow_s03_pow_oven_35_n04111531_6955.png
subject-03,1,714,0.973554134368896,oven,oven,pow,0714_pow_s03_pow_oven_35_n04111531_14441.png
subject-03,1,715,0.729458808898926,bear,bear,pow,0715_pow_s03_pow_bear_35_n02134418_1826.png
subject-03,1,716,0.70330286026001,boat,boat,pow,0716_pow_s03_pow_boat_35_n04612504_12657.png
subject-03,1,717,1.17716193199158,knife,knife,0,0717_pow_s03_0_knife_35_n03041632_22241.png
subject-03,1,718,1.14888906478882,bird,bird,0,0718_pow_s03_0_bird_35_n01817953_689.png
subject-03,1,719,0.902569055557251,clock,knife,0,0719_pow_s03_0_knife_35_n03041632_7380.png
subject-03,1,720,0.570528030395508,clock,clock,0,0720_pow_s03_0_clock_35_n03196217_9786.png
subject-03,1,721,0.932338953018188,oven,chair,pow,0721_pow_s03_pow_chair_35_n04429376_1838.png
subject-03,1,722,0.680138826370239,bear,bear,0,0722_pow_s03_0_bear_35_n02134084_22051.png
subject-03,1,723,0.832134008407593,dog,dog,pow,0723_pow_s03_pow_dog_35_n02105855_3310.png
subject-03,1,724,0.803605079650879,chair,chair,pow,0724_pow_s03_pow_chair_35_n04099969_7934.png
subject-03,1,725,0.617647886276245,clock,clock,pow,0725_pow_s03_pow_clock_35_n04548280_3999.png
subject-03,1,726,0.831414937973022,keyboard,keyboard,0,0726_pow_s03_0_keyboard_35_n03085013_21166.png
subject-03,1,727,1.07551407814026,cat,elephant,pow,0727_pow_s03_pow_elephant_35_n02504458_4187.png
subject-03,1,728,1.02288293838501,elephant,bear,0,0728_pow_s03_0_bear_35_n02132136_23202.png
subject-03,1,729,0.736953973770142,car,car,0,0729_pow_s03_0_car_35_n04285008_4749.png
subject-03,1,730,0.828749895095825,bird,bird,pow,0730_pow_s03_pow_bird_35_n02009912_6788.png
subject-03,1,731,0.888350009918213,car,car,pow,0731_pow_s03_pow_car_35_n02814533_58196.png
subject-03,1,732,0.900259971618652,bird,bird,pow,0732_pow_s03_pow_bird_35_n02009229_1091.png
subject-03,1,733,1.14825987815857,knife,knife,pow,0733_pow_s03_pow_knife_35_n03041632_84240.png
subject-03,1,734,0.861853122711182,airplane,airplane,0,0734_pow_s03_0_airplane_35_n02690373_10129.png
subject-03,1,735,0.777980089187622,boat,boat,pow,0735_pow_s03_pow_boat_35_n04273569_113.png
subject-03,1,736,0.711625099182129,cat,cat,0,0736_pow_s03_0_cat_35_n02123159_6927.png
subject-03,1,737,1.1253879070282,keyboard,chair,0,0737_pow_s03_0_chair_35_n03376595_2056.png
subject-03,1,738,1.11304092407227,chair,knife,pow,0738_pow_s03_pow_knife_35_n03041632_2438.png
subject-03,1,739,1.01694297790527,oven,bottle,pow,0739_pow_s03_pow_bottle_35_n03983396_2998.png
subject-03,1,740,0.97276496887207,elephant,elephant,0,0740_pow_s03_0_elephant_35_n02504013_9618.png
subject-03,1,741,1.49849796295166,chair,oven,pow,0741_pow_s03_pow_oven_35_n04111531_7283.png
subject-03,1,742,0.700577020645142,cat,cat,pow,0742_pow_s03_pow_cat_35_n02123045_3375.png
subject-03,1,743,1.06418395042419,dog,dog,pow,0743_pow_s03_pow_dog_35_n02091467_7264.png
subject-03,1,744,0.806288957595825,car,car,pow,0744_pow_s03_pow_car_35_n04285008_8443.png
subject-03,1,745,0.77170991897583,bear,bear,0,0745_pow_s03_0_bear_35_n02134084_11187.png
subject-03,1,746,1.16374897956848,chair,chair,0,0746_pow_s03_0_chair_35_n03376595_9653.png
subject-03,1,747,0.783581972122192,clock,clock,0,0747_pow_s03_0_clock_35_n03196217_713.png
subject-03,1,748,0.857409000396729,bird,bird,0,0748_pow_s03_0_bird_35_n02056570_5891.png
subject-03,1,749,0.911048889160156,bottle,bottle,pow,0749_pow_s03_pow_bottle_35_n03983396_9695.png
subject-03,1,750,0.821197986602783,airplane,airplane,pow,0750_pow_s03_pow_airplane_35_n02690373_10931.png
subject-03,1,751,1.06673407554626,oven,oven,0,0751_pow_s03_0_oven_35_n04111531_7625.png
subject-03,1,752,0.696844100952148,chair,chair,0,0752_pow_s03_0_chair_35_n04099969_9713.png
subject-03,1,753,0.858391046524048,bottle,bottle,0,0753_pow_s03_0_bottle_35_n04560804_647.png
subject-03,1,754,1.06059408187866,elephant,oven,pow,0754_pow_s03_pow_oven_35_n04111531_1989.png
subject-03,1,755,1.50001978874207,boat,boat,0,0755_pow_s03_0_boat_35_n02951358_14877.png
subject-03,1,756,0.933897018432617,elephant,elephant,0,0756_pow_s03_0_elephant_35_n02504458_7777.png
subject-03,1,757,1.29791903495789,bird,knife,pow,0757_pow_s03_pow_knife_35_n03041632_31037.png
subject-03,1,758,0.997509002685547,dog,dog,pow,0758_pow_s03_pow_dog_35_n02093256_1772.png
subject-03,1,759,0.673308134078979,car,car,0,0759_pow_s03_0_car_35_n03100240_5808.png
subject-03,1,760,0.861073017120361,dog,dog,0,0760_pow_s03_0_dog_35_n02105162_1003.png
subject-03,1,761,1.05077385902405,keyboard,keyboard,pow,0761_pow_s03_pow_keyboard_35_n03085013_24665.png
subject-03,1,762,0.954541921615601,knife,knife,0,0762_pow_s03_0_knife_35_n03041632_31483.png
subject-03,1,763,0.6164231300354,boat,boat,pow,0763_pow_s03_pow_boat_35_n04273569_14262.png
subject-03,1,764,0.916191816329956,truck,truck,0,0764_pow_s03_0_truck_35_n03417042_7036.png
subject-03,1,765,0.900089979171753,car,car,0,0765_pow_s03_0_car_35_n03100240_3073.png
subject-03,1,766,0.828174114227295,airplane,airplane,pow,0766_pow_s03_pow_airplane_35_n02690373_5866.png
subject-03,1,767,0.763612985610962,chair,chair,0,0767_pow_s03_0_chair_35_n02791124_7193.png
subject-03,1,768,1.10750794410706,dog,cat,pow,0768_pow_s03_pow_cat_35_n02123597_6405.png
subject-03,1,769,0.843204021453857,car,car,pow,0769_pow_s03_pow_car_35_n02814533_3754.png
subject-03,1,770,1.50009799003601,airplane,boat,0,0770_pow_s03_0_boat_35_n02951358_2537.png
subject-03,1,771,1.02900004386902,dog,dog,pow,0771_pow_s03_pow_dog_35_n02097658_6717.png
subject-03,1,772,0.560678958892822,cat,cat,0,0772_pow_s03_0_cat_35_n02123045_939.png
subject-03,1,773,1.03254103660583,knife,knife,pow,0773_pow_s03_pow_knife_35_n03041632_94620.png
subject-03,1,774,0.75248908996582,boat,boat,pow,0774_pow_s03_pow_boat_35_n04273569_15625.png
subject-03,1,775,0.626181125640869,boat,boat,0,0775_pow_s03_0_boat_35_n03344393_10748.png
subject-03,1,776,0.678043127059937,car,car,0,0776_pow_s03_0_car_35_n04285008_8616.png
subject-03,1,777,0.959784030914307,bear,elephant,0,0777_pow_s03_0_elephant_35_n02504458_568.png
subject-03,1,778,1.5000479221344,cat,chair,pow,0778_pow_s03_pow_chair_35_n02791124_1594.png
subject-03,1,779,0.727309942245483,keyboard,keyboard,0,0779_pow_s03_0_keyboard_35_n04505470_2869.png
subject-03,1,780,0.661471128463745,clock,clock,pow,0780_pow_s03_pow_clock_35_n02708093_2710.png
subject-03,1,781,0.653219938278198,bicycle,bicycle,0,0781_pow_s03_0_bicycle_35_n03792782_7713.png
subject-03,1,782,1.05685305595398,bicycle,bicycle,0,0782_pow_s03_0_bicycle_35_n02835271_24131.png
subject-03,1,783,1.23477792739868,cat,bird,0,0783_pow_s03_0_bird_35_n01820546_9729.png
subject-03,1,784,1.11871910095215,bicycle,cat,0,0784_pow_s03_0_cat_35_n02125311_2103.png
subject-03,1,785,0.858394145965576,knife,knife,0,0785_pow_s03_0_knife_35_n03041632_10802.png
subject-03,1,786,1.1583571434021,car,car,pow,0786_pow_s03_pow_car_35_n04285008_5528.png
subject-03,1,787,1.06995797157288,bear,bear,0,0787_pow_s03_0_bear_35_n02134418_559.png
subject-03,1,788,0.849640846252441,airplane,airplane,0,0788_pow_s03_0_airplane_35_n02690373_3729.png
subject-03,1,789,0.805526971817017,bear,bear,0,0789_pow_s03_0_bear_35_n02134418_2547.png
subject-03,1,790,0.619231939315796,bear,bear,pow,0790_pow_s03_pow_bear_35_n02132136_10352.png
subject-03,1,791,0.863030195236206,dog,dog,pow,0791_pow_s03_pow_dog_35_n02096585_1894.png
subject-03,1,792,0.917049884796143,car,boat,pow,0792_pow_s03_pow_boat_35_n04273569_23162.png
subject-03,1,793,0.789055824279785,clock,chair,pow,0793_pow_s03_pow_chair_35_n04429376_13678.png
subject-03,1,794,1.50006794929504,dog,dog,0,0794_pow_s03_0_dog_35_n02101006_11799.png
subject-03,1,795,0.804736137390137,bear,bear,pow,0795_pow_s03_pow_bear_35_n02132136_15462.png
subject-03,1,796,0.620177984237671,clock,clock,pow,0796_pow_s03_pow_clock_35_n04548280_6792.png
subject-03,1,797,0.98600697517395,bear,bear,pow,0797_pow_s03_pow_bear_35_n02134418_1041.png
subject-03,1,798,0.909912824630737,dog,dog,0,0798_pow_s03_0_dog_35_n02113624_1707.png
subject-03,1,799,0.733639001846313,keyboard,keyboard,0,0799_pow_s03_0_keyboard_35_n04505470_3531.png
subject-03,1,800,1.10341596603394,car,bicycle,pow,0800_pow_s03_pow_bicycle_35_n02835271_324.png
subject-03,1,801,0.988784074783325,clock,knife,pow,0801_pow_s03_pow_knife_35_n03041632_92637.png
subject-03,1,802,0.940644979476929,knife,knife,0,0802_pow_s03_0_knife_35_n03041632_13465.png
subject-03,1,803,0.946509838104248,truck,truck,0,0803_pow_s03_0_truck_35_n04467665_3714.png
subject-03,1,804,1.04620289802551,bottle,bottle,pow,0804_pow_s03_pow_bottle_35_n04579145_4389.png
subject-03,1,805,0.99196195602417,keyboard,keyboard,pow,0805_pow_s03_pow_keyboard_35_n04505470_4521.png
subject-03,1,806,0.940154075622559,truck,truck,pow,0806_pow_s03_pow_truck_35_n03417042_1182.png
subject-03,1,807,NaN,na,bird,pow,0807_pow_s03_pow_bird_35_n01818515_10185.png
subject-03,1,808,1.23587679862976,cat,bird,pow,0808_pow_s03_pow_bird_35_n02017213_5095.png
subject-03,1,809,0.743279933929443,keyboard,keyboard,0,0809_pow_s03_0_keyboard_35_n04505470_751.png
subject-03,1,810,0.803106069564819,chair,chair,0,0810_pow_s03_0_chair_35_n04429376_14680.png
subject-03,1,811,0.92494797706604,keyboard,keyboard,0,0811_pow_s03_0_keyboard_35_n03085013_20710.png
subject-03,1,812,1.27063202857971,bicycle,bicycle,0,0812_pow_s03_0_bicycle_35_n02835271_8271.png
subject-03,1,813,0.86460280418396,bottle,oven,0,0813_pow_s03_0_oven_35_n04111531_7355.png
subject-03,1,814,1.05655598640442,dog,dog,pow,0814_pow_s03_pow_dog_35_n02095570_8343.png
subject-03,1,815,0.888144969940186,bear,dog,pow,0815_pow_s03_pow_dog_35_n02110063_6748.png
subject-03,1,816,0.806041955947876,car,car,0,0816_pow_s03_0_car_35_n04285008_13174.png
subject-03,1,817,1.36203098297119,car,knife,0,0817_pow_s03_0_knife_35_n03041632_5102.png
subject-03,1,818,0.723573923110962,airplane,airplane,pow,0818_pow_s03_pow_airplane_35_n02690373_3269.png
subject-03,1,819,0.963330984115601,elephant,elephant,0,0819_pow_s03_0_elephant_35_n02504013_4457.png
subject-03,1,820,1.37123799324036,bottle,bottle,0,0820_pow_s03_0_bottle_35_n03983396_4178.png
subject-03,1,821,0.757150888442993,bicycle,bicycle,0,0821_pow_s03_0_bicycle_35_n02835271_9135.png
subject-03,1,822,0.734812021255493,keyboard,chair,pow,0822_pow_s03_pow_chair_35_n03376595_360.png
subject-03,1,823,0.898681163787842,chair,chair,pow,0823_pow_s03_pow_chair_35_n04429376_32124.png
subject-03,1,824,0.618600130081177,boat,boat,0,0824_pow_s03_0_boat_35_n03662601_81.png
subject-03,1,825,0.786362886428833,airplane,airplane,0,0825_pow_s03_0_airplane_35_n02690373_6914.png
subject-03,1,826,0.800126075744629,bicycle,bicycle,0,0826_pow_s03_0_bicycle_35_n03792782_19116.png
subject-03,1,827,0.717957019805908,chair,chair,pow,0827_pow_s03_pow_chair_35_n04099969_20900.png
subject-03,1,828,0.87382698059082,oven,knife,pow,0828_pow_s03_pow_knife_35_n03041632_36789.png
subject-03,1,829,0.835571050643921,oven,oven,0,0829_pow_s03_0_oven_35_n04111531_4418.png
subject-03,1,830,0.977426052093506,elephant,elephant,pow,0830_pow_s03_pow_elephant_35_n02504458_3143.png
subject-03,1,831,0.819164037704468,bottle,bottle,pow,0831_pow_s03_pow_bottle_35_n02823428_5374.png
subject-03,1,832,0.665241956710815,cat,cat,0,0832_pow_s03_0_cat_35_n02125311_20179.png
subject-03,1,833,1.01103591918945,bear,bear,pow,0833_pow_s03_pow_bear_35_n02134084_18469.png
subject-03,1,834,1.47257900238037,clock,truck,0,0834_pow_s03_0_truck_35_n03417042_3327.png
subject-03,1,835,0.90230393409729,airplane,airplane,pow,0835_pow_s03_pow_airplane_35_n02690373_8942.png
subject-03,1,836,1.09420204162598,truck,truck,pow,0836_pow_s03_pow_truck_35_n03417042_24155.png
subject-03,1,837,0.794239044189453,bottle,bottle,0,0837_pow_s03_0_bottle_35_n03983396_13698.png
subject-03,1,838,1.14809918403625,truck,truck,0,0838_pow_s03_0_truck_35_n03417042_3659.png
subject-03,1,839,0.821566104888916,chair,chair,pow,0839_pow_s03_pow_chair_35_n03376595_3304.png
subject-03,1,840,0.901360988616943,elephant,elephant,0,0840_pow_s03_0_elephant_35_n02504458_4463.png
subject-03,1,841,1.06721782684326,clock,clock,0,0841_pow_s03_0_clock_35_n03196217_5300.png
subject-03,1,842,0.92343282699585,truck,truck,0,0842_pow_s03_0_truck_35_n04467665_64402.png
subject-03,1,843,1.06900310516357,car,car,pow,0843_pow_s03_pow_car_35_n02814533_7420.png
subject-03,1,844,0.718849182128906,bear,bear,0,0844_pow_s03_0_bear_35_n02134084_3840.png
subject-03,1,845,0.734822034835815,boat,boat,0,0845_pow_s03_0_boat_35_n02951358_31965.png
subject-03,1,846,0.65473484992981,oven,oven,pow,0846_pow_s03_pow_oven_35_n04111531_11405.png
subject-03,1,847,1.28005909919739,truck,truck,0,0847_pow_s03_0_truck_35_n03417042_27231.png
subject-03,1,848,0.71209192276001,bottle,bottle,pow,0848_pow_s03_pow_bottle_35_n03937543_5625.png
subject-03,1,849,1.07359504699707,dog,dog,pow,0849_pow_s03_pow_dog_35_n02088364_12272.png
subject-03,1,850,1.45542693138123,oven,keyboard,0,0850_pow_s03_0_keyboard_35_n03085013_3656.png
subject-03,1,851,1.03129601478577,chair,chair,pow,0851_pow_s03_pow_chair_35_n02791124_3018.png
subject-03,1,852,0.885288953781128,dog,dog,0,0852_pow_s03_0_dog_35_n02095889_7413.png
subject-03,1,853,0.838942050933838,bear,bear,pow,0853_pow_s03_pow_bear_35_n02132136_18276.png
subject-03,1,854,0.688983917236328,bear,bear,pow,0854_pow_s03_pow_bear_35_n02132136_4699.png
subject-03,1,855,0.572697877883911,boat,boat,0,0855_pow_s03_0_boat_35_n03662601_4059.png
subject-03,1,856,0.632420778274536,boat,boat,0,0856_pow_s03_0_boat_35_n03344393_3323.png
subject-03,1,857,0.84430193901062,bird,bird,pow,0857_pow_s03_pow_bird_35_n02017213_15747.png
subject-03,1,858,0.690600156784058,boat,boat,pow,0858_pow_s03_pow_boat_35_n02951358_28889.png
subject-03,1,859,0.938390016555786,dog,dog,0,0859_pow_s03_0_dog_35_n02106030_22.png
subject-03,1,860,0.721904993057251,cat,cat,0,0860_pow_s03_0_cat_35_n02125311_475.png
subject-03,1,861,1.07563400268555,bicycle,bicycle,0,0861_pow_s03_0_bicycle_35_n02835271_18537.png
subject-03,1,862,0.59736704826355,clock,clock,0,0862_pow_s03_0_clock_35_n03196217_6185.png
subject-03,1,863,1.16328001022339,knife,knife,0,0863_pow_s03_0_knife_35_n03041632_48675.png
subject-03,1,864,1.3269100189209,knife,knife,pow,0864_pow_s03_pow_knife_35_n03041632_27963.png
subject-03,1,865,1.46880602836609,bird,bird,0,0865_pow_s03_0_bird_35_n02007558_7112.png
subject-03,1,866,1.26864910125732,car,car,pow,0866_pow_s03_pow_car_35_n02814533_46997.png
subject-03,1,867,1.22850799560547,keyboard,knife,pow,0867_pow_s03_pow_knife_35_n03041632_85488.png
subject-03,1,868,1.09423804283142,dog,dog,0,0868_pow_s03_0_dog_35_n02104365_3004.png
subject-03,1,869,0.87624716758728,bottle,bottle,0,0869_pow_s03_0_bottle_35_n02823428_3611.png
subject-03,1,870,1.19987988471985,airplane,airplane,0,0870_pow_s03_0_airplane_35_n02690373_7281.png
subject-03,1,871,0.817550897598267,keyboard,keyboard,pow,0871_pow_s03_pow_keyboard_35_n03085013_20732.png
subject-03,1,872,0.895382165908813,boat,boat,pow,0872_pow_s03_pow_boat_35_n02951358_34234.png
subject-03,1,873,0.805438041687012,bird,bird,0,0873_pow_s03_0_bird_35_n02028035_5332.png
subject-03,1,874,0.767043113708496,bird,bird,pow,0874_pow_s03_pow_bird_35_n01592084_5716.png
subject-03,1,875,0.658799886703491,keyboard,keyboard,0,0875_pow_s03_0_keyboard_35_n04505470_2102.png
subject-03,1,876,0.764724969863892,truck,truck,pow,0876_pow_s03_pow_truck_35_n03417042_19955.png
subject-03,1,877,0.812534093856812,chair,chair,0,0877_pow_s03_0_chair_35_n04099969_8029.png
subject-03,1,878,0.996685981750488,clock,bicycle,pow,0878_pow_s03_pow_bicycle_35_n02835271_3329.png
subject-03,1,879,1.40253305435181,bear,dog,pow,0879_pow_s03_pow_dog_35_n02111129_513.png
subject-03,1,880,1.06391310691833,bicycle,bicycle,pow,0880_pow_s03_pow_bicycle_35_n02835271_840.png
subject-03,1,881,0.686998128890991,car,car,0,0881_pow_s03_0_car_35_n02814533_4374.png
subject-03,1,882,0.73500394821167,keyboard,keyboard,0,0882_pow_s03_0_keyboard_35_n03085013_24449.png
subject-03,1,883,0.798645973205566,bird,bird,0,0883_pow_s03_0_bird_35_n02013706_1016.png
subject-03,1,884,0.998465061187744,car,car,pow,0884_pow_s03_pow_car_35_n04285008_7776.png
subject-03,1,885,0.916060924530029,elephant,elephant,0,0885_pow_s03_0_elephant_35_n02504458_7013.png
subject-03,1,886,0.910088062286377,oven,oven,0,0886_pow_s03_0_oven_35_n04111531_8398.png
subject-03,1,887,0.947938919067383,bottle,bottle,0,0887_pow_s03_0_bottle_35_n04557648_9310.png
subject-03,1,888,1.11799502372742,dog,dog,0,0888_pow_s03_0_dog_35_n02108000_6270.png
subject-03,1,889,0.893478870391846,keyboard,keyboard,0,0889_pow_s03_0_keyboard_35_n03085013_19607.png
subject-03,1,890,0.74521803855896,cat,cat,0,0890_pow_s03_0_cat_35_n02123394_1997.png
subject-03,1,891,1.10907292366028,bird,bird,pow,0891_pow_s03_pow_bird_35_n01534433_11695.png
subject-03,1,892,1.17073321342468,boat,bird,pow,0892_pow_s03_pow_bird_35_n01796340_9255.png
subject-03,1,893,0.642640113830566,clock,clock,pow,0893_pow_s03_pow_clock_35_n04548280_5406.png
subject-03,1,894,1.22256207466125,car,oven,0,0894_pow_s03_0_oven_35_n04111531_807.png
subject-03,1,895,1.39018583297729,keyboard,truck,0,0895_pow_s03_0_truck_35_n03796401_8964.png
subject-03,1,896,0.830374002456665,truck,truck,0,0896_pow_s03_0_truck_35_n04467665_58815.png
subject-03,1,897,1.06207680702209,bottle,clock,0,0897_pow_s03_0_clock_35_n03196217_1376.png
subject-03,1,898,0.91192889213562,keyboard,keyboard,0,0898_pow_s03_0_keyboard_35_n04505470_5902.png
subject-03,1,899,1.22942185401917,airplane,airplane,0,0899_pow_s03_0_airplane_35_n02690373_4945.png
subject-03,1,900,0.783704996109009,airplane,airplane,pow,0900_pow_s03_pow_airplane_35_n02690373_2498.png
subject-03,1,901,0.829109907150269,oven,oven,0,0901_pow_s03_0_oven_35_n04111531_4.png
subject-03,1,902,1.26905393600464,bird,bird,pow,0902_pow_s03_pow_bird_35_n01824575_10337.png
subject-03,1,903,0.928843021392822,bottle,bottle,pow,0903_pow_s03_pow_bottle_35_n04557648_85.png
subject-03,1,904,0.822612047195435,clock,chair,pow,0904_pow_s03_pow_chair_35_n04429376_12691.png
subject-03,1,905,0.694441080093384,bottle,bottle,pow,0905_pow_s03_pow_bottle_35_n04557648_1184.png
subject-03,1,906,0.840129852294922,truck,truck,pow,0906_pow_s03_pow_truck_35_n03796401_3427.png
subject-03,1,907,0.779982089996338,bottle,keyboard,pow,0907_pow_s03_pow_keyboard_35_n04505470_10191.png
subject-03,1,908,1.21771097183228,clock,boat,pow,0908_pow_s03_pow_boat_35_n03344393_6713.png
subject-03,1,909,0.630064010620117,clock,clock,0,0909_pow_s03_0_clock_35_n02708093_3509.png
subject-03,1,910,0.695563793182373,oven,oven,pow,0910_pow_s03_pow_oven_35_n04111531_6211.png
subject-03,1,911,0.901226043701172,elephant,elephant,0,0911_pow_s03_0_elephant_35_n02504013_3410.png
subject-03,1,912,0.693210124969482,bear,bear,0,0912_pow_s03_0_bear_35_n02134418_4475.png
subject-03,1,913,0.972920894622803,cat,cat,pow,0913_pow_s03_pow_cat_35_n02123394_530.png
subject-03,1,914,0.720782995223999,cat,cat,0,0914_pow_s03_0_cat_35_n02123159_5224.png
subject-03,1,915,0.838695049285889,bicycle,bicycle,0,0915_pow_s03_0_bicycle_35_n03792782_15845.png
subject-03,1,916,0.764378070831299,bear,bear,pow,0916_pow_s03_pow_bear_35_n02133161_6679.png
subject-03,1,917,0.926347017288208,oven,oven,pow,0917_pow_s03_pow_oven_35_n04111531_15743.png
subject-03,1,918,0.946130037307739,dog,dog,pow,0918_pow_s03_pow_dog_35_n02088632_1732.png
subject-03,1,919,1.25994801521301,clock,clock,0,0919_pow_s03_0_clock_35_n03196217_6467.png
subject-03,1,920,0.99579906463623,dog,dog,pow,0920_pow_s03_pow_dog_35_n02099601_447.png
subject-03,1,921,0.665655136108398,clock,clock,pow,0921_pow_s03_pow_clock_35_n04548280_4947.png
subject-03,1,922,1.15922498703003,clock,knife,0,0922_pow_s03_0_knife_35_n03041632_7982.png
subject-03,1,923,1.09292197227478,chair,truck,pow,0923_pow_s03_pow_truck_35_n03796401_6737.png
subject-03,1,924,0.93093204498291,dog,dog,0,0924_pow_s03_0_dog_35_n02107683_1934.png
subject-03,1,925,0.932794809341431,bird,bird,pow,0925_pow_s03_pow_bird_35_n01614925_8653.png
subject-03,1,926,1.47254490852356,bicycle,knife,pow,0926_pow_s03_pow_knife_35_n03041632_82197.png
subject-03,1,927,1.06035089492798,airplane,airplane,pow,0927_pow_s03_pow_airplane_35_n02690373_4704.png
subject-03,1,928,0.638136148452759,clock,clock,pow,0928_pow_s03_pow_clock_35_n04548280_4739.png
subject-03,1,929,0.725916862487793,bird,bird,0,0929_pow_s03_0_bird_35_n02009229_8793.png
subject-03,1,930,1.43385720252991,boat,airplane,pow,0930_pow_s03_pow_airplane_35_n02690373_10455.png
subject-03,1,931,0.761483192443848,bottle,bottle,pow,0931_pow_s03_pow_bottle_35_n03937543_2936.png
subject-03,1,932,0.995342969894409,boat,boat,pow,0932_pow_s03_pow_boat_35_n02951358_5064.png
subject-03,1,933,1.04303884506226,elephant,bear,pow,0933_pow_s03_pow_bear_35_n02134084_5827.png
subject-03,1,934,0.968897104263306,truck,truck,0,0934_pow_s03_0_truck_35_n03796401_3326.png
subject-03,1,935,0.851110935211182,bicycle,bicycle,0,0935_pow_s03_0_bicycle_35_n03792782_1424.png
subject-03,1,936,1.18055009841919,clock,bicycle,pow,0936_pow_s03_pow_bicycle_35_n03792782_30246.png
subject-03,1,937,1.02440404891968,truck,truck,pow,0937_pow_s03_pow_truck_35_n03417042_26102.png
subject-03,1,938,0.744336843490601,elephant,elephant,pow,0938_pow_s03_pow_elephant_35_n02504013_9678.png
subject-03,1,939,0.930229902267456,truck,truck,pow,0939_pow_s03_pow_truck_35_n03417042_7581.png
subject-03,1,940,0.752079963684082,boat,boat,0,0940_pow_s03_0_boat_35_n03344393_12983.png
subject-03,1,941,1.39774799346924,elephant,oven,0,0941_pow_s03_0_oven_35_n04111531_19000.png
subject-03,1,942,1.20749187469482,bird,oven,pow,0942_pow_s03_pow_oven_35_n04111531_12103.png
subject-03,1,943,1.19965100288391,keyboard,keyboard,pow,0943_pow_s03_pow_keyboard_35_n03085013_2277.png
subject-03,1,944,0.813500165939331,boat,boat,pow,0944_pow_s03_pow_boat_35_n03344393_6978.png
subject-03,1,945,1.0491669178009,bear,bear,pow,0945_pow_s03_pow_bear_35_n02134418_4452.png
subject-03,1,946,0.990708112716675,dog,dog,0,0946_pow_s03_0_dog_35_n02102973_7681.png
subject-03,1,947,0.788479089736938,airplane,airplane,0,0947_pow_s03_0_airplane_35_n02690373_12976.png
subject-03,1,948,1.11461186408997,airplane,airplane,pow,0948_pow_s03_pow_airplane_35_n02690373_5465.png
subject-03,1,949,1.01408004760742,bear,elephant,pow,0949_pow_s03_pow_elephant_35_n02504013_482.png
subject-03,1,950,0.670084953308105,bear,bear,0,0950_pow_s03_0_bear_35_n02133161_2044.png
subject-03,1,951,0.977705001831055,elephant,elephant,pow,0951_pow_s03_pow_elephant_35_n02504013_1854.png
subject-03,1,952,1.17949414253235,bird,bird,0,0952_pow_s03_0_bird_35_n02006656_4031.png
subject-03,1,953,0.961361885070801,truck,truck,pow,0953_pow_s03_pow_truck_35_n04467665_3876.png
subject-03,1,954,0.905226945877075,car,car,pow,0954_pow_s03_pow_car_35_n04285008_2185.png
subject-03,1,955,0.734867095947266,keyboard,keyboard,0,0955_pow_s03_0_keyboard_35_n03085013_19096.png
subject-03,1,956,0.804715871810913,truck,truck,0,0956_pow_s03_0_truck_35_n04467665_19132.png
subject-03,1,957,0.682767868041992,cat,cat,0,0957_pow_s03_0_cat_35_n02123597_14032.png
subject-03,1,958,1.22833108901978,keyboard,keyboard,pow,0958_pow_s03_pow_keyboard_35_n03085013_1698.png
subject-03,1,959,0.760206937789917,knife,knife,0,0959_pow_s03_0_knife_35_n03041632_20504.png
subject-03,1,960,1.08633089065552,keyboard,keyboard,pow,0960_pow_s03_pow_keyboard_35_n03085013_29452.png
subject-03,1,961,1.15349507331848,bottle,bottle,pow,0961_pow_s03_pow_bottle_35_n03983396_2256.png
subject-03,1,962,0.585506916046143,clock,clock,pow,0962_pow_s03_pow_clock_35_n04548280_17907.png
subject-03,1,963,1.06332588195801,keyboard,oven,pow,0963_pow_s03_pow_oven_35_n04111531_6393.png
subject-03,1,964,0.865093946456909,elephant,elephant,pow,0964_pow_s03_pow_elephant_35_n02504458_5982.png
subject-03,1,965,1.15718007087708,keyboard,keyboard,pow,0965_pow_s03_pow_keyboard_35_n04505470_1253.png
subject-03,1,966,1.30457496643066,oven,oven,pow,0966_pow_s03_pow_oven_35_n04111531_20591.png
subject-03,1,967,0.834336996078491,bird,bird,0,0967_pow_s03_0_bird_35_n01843383_2122.png
subject-03,1,968,0.756396055221558,knife,knife,pow,0968_pow_s03_pow_knife_35_n03041632_32292.png
subject-03,1,969,1.08423399925232,bird,bird,0,0969_pow_s03_0_bird_35_n01833805_16468.png
subject-03,1,970,0.85786509513855,clock,chair,pow,0970_pow_s03_pow_chair_35_n04429376_353.png
subject-03,1,971,0.855768918991089,bicycle,bicycle,pow,0971_pow_s03_pow_bicycle_35_n02835271_11573.png
subject-03,1,972,0.937430143356323,boat,boat,pow,0972_pow_s03_pow_boat_35_n03344393_6892.png
subject-03,1,973,0.809390068054199,bottle,bottle,pow,0973_pow_s03_pow_bottle_35_n04560804_3847.png
subject-03,1,974,1.04739594459534,knife,knife,pow,0974_pow_s03_pow_knife_35_n03041632_4269.png
subject-03,1,975,1.35109615325928,truck,truck,pow,0975_pow_s03_pow_truck_35_n04467665_31539.png
subject-03,1,976,0.724991083145142,bicycle,bicycle,pow,0976_pow_s03_pow_bicycle_35_n02835271_9092.png
subject-03,1,977,1.00498604774475,boat,boat,pow,0977_pow_s03_pow_boat_35_n03344393_5798.png
subject-03,1,978,1.3428361415863,keyboard,keyboard,0,0978_pow_s03_0_keyboard_35_n03085013_24522.png
subject-03,1,979,1.11411213874817,bear,dog,pow,0979_pow_s03_pow_dog_35_n02100735_3553.png
subject-03,1,980,1.43419313430786,dog,dog,0,0980_pow_s03_0_dog_35_n02091032_250.png
subject-03,1,981,1.00600004196167,bird,keyboard,pow,0981_pow_s03_pow_keyboard_35_n04505470_7728.png
subject-03,1,982,0.773967027664185,bird,bird,0,0982_pow_s03_0_bird_35_n01537544_5372.png
subject-03,1,983,0.709453105926514,bear,bear,0,0983_pow_s03_0_bear_35_n02134418_10576.png
subject-03,1,984,0.969230890274048,truck,truck,0,0984_pow_s03_0_truck_35_n03417042_1348.png
subject-03,1,985,0.991057872772217,airplane,airplane,pow,0985_pow_s03_pow_airplane_35_n02690373_6755.png
subject-03,1,986,0.874799013137817,bicycle,bicycle,pow,0986_pow_s03_pow_bicycle_35_n03792782_14931.png
subject-03,1,987,0.734678030014038,clock,clock,pow,0987_pow_s03_pow_clock_35_n04548280_6411.png
subject-03,1,988,1.11844992637634,bicycle,bicycle,0,0988_pow_s03_0_bicycle_35_n02835271_10832.png
subject-03,1,989,1.2962760925293,chair,truck,pow,0989_pow_s03_pow_truck_35_n03417042_9610.png
subject-03,1,990,1.13830900192261,keyboard,keyboard,pow,0990_pow_s03_pow_keyboard_35_n03085013_21325.png
subject-03,1,991,0.715939998626709,cat,cat,pow,0991_pow_s03_pow_cat_35_n02123394_1817.png
subject-03,1,992,0.767749071121216,keyboard,keyboard,pow,0992_pow_s03_pow_keyboard_35_n03085013_6432.png
subject-03,1,993,0.941927909851074,keyboard,keyboard,pow,0993_pow_s03_pow_keyboard_35_n04505470_4761.png
subject-03,1,994,0.713563919067383,bicycle,bicycle,0,0994_pow_s03_0_bicycle_35_n02835271_15617.png
subject-03,1,995,0.937089920043945,airplane,airplane,0,0995_pow_s03_0_airplane_35_n02690373_7107.png
subject-03,1,996,0.968985080718994,bottle,bottle,0,0996_pow_s03_0_bottle_35_n04560804_20335.png
subject-03,1,997,1.00300693511963,truck,truck,pow,0997_pow_s03_pow_truck_35_n03417042_15903.png
subject-03,1,998,1.21070194244385,elephant,oven,pow,0998_pow_s03_pow_oven_35_n04111531_892.png
subject-03,1,999,0.882599115371704,bear,bear,pow,0999_pow_s03_pow_bear_35_n02133161_10441.png
subject-03,1,1000,0.858335971832275,car,car,pow,1000_pow_s03_pow_car_35_n03100240_10502.png
subject-03,1,1001,1.09604215621948,dog,dog,pow,1001_pow_s03_pow_dog_35_n02110185_8777.png
subject-03,1,1002,1.32810091972351,boat,boat,0,1002_pow_s03_0_boat_35_n03344393_7412.png
subject-03,1,1003,1.29766488075256,bear,bear,pow,1003_pow_s03_pow_bear_35_n02134418_904.png
subject-03,1,1004,0.755916833877563,clock,clock,0,1004_pow_s03_0_clock_35_n02708093_5.png
subject-03,1,1005,0.505463123321533,cat,cat,0,1005_pow_s03_0_cat_35_n02123159_5270.png
subject-03,1,1006,0.901531934738159,bear,elephant,pow,1006_pow_s03_pow_elephant_35_n02504458_6120.png
subject-03,1,1007,0.894990921020508,elephant,elephant,pow,1007_pow_s03_pow_elephant_35_n02504458_5444.png
subject-03,1,1008,0.812817096710205,bottle,bottle,pow,1008_pow_s03_pow_bottle_35_n04557648_4620.png
subject-03,1,1009,1.15054678916931,elephant,truck,pow,1009_pow_s03_pow_truck_35_n03417042_1479.png
subject-03,1,1010,1.09266805648804,cat,cat,pow,1010_pow_s03_pow_cat_35_n02123159_5170.png
subject-03,1,1011,0.958329916000366,keyboard,keyboard,0,1011_pow_s03_0_keyboard_35_n04505470_4515.png
subject-03,1,1012,0.729998111724854,clock,clock,pow,1012_pow_s03_pow_clock_35_n04548280_2765.png
subject-03,1,1013,0.921929121017456,knife,knife,0,1013_pow_s03_0_knife_35_n03041632_3504.png
subject-03,1,1014,0.781628131866455,chair,chair,0,1014_pow_s03_0_chair_35_n03376595_7772.png
subject-03,1,1015,1.14160704612732,boat,keyboard,pow,1015_pow_s03_pow_keyboard_35_n03085013_22966.png
subject-03,1,1016,1.3532190322876,bottle,cat,pow,1016_pow_s03_pow_cat_35_n02123394_3718.png
subject-03,1,1017,0.825089931488037,knife,knife,0,1017_pow_s03_0_knife_35_n03041632_29355.png
subject-03,1,1018,0.715028047561646,oven,oven,0,1018_pow_s03_0_oven_35_n04111531_20369.png
subject-03,1,1019,0.788961887359619,car,car,pow,1019_pow_s03_pow_car_35_n03100240_15676.png
subject-03,1,1020,0.69046688079834,clock,clock,pow,1020_pow_s03_pow_clock_35_n04548280_4473.png
subject-03,1,1021,0.596403121948242,boat,boat,0,1021_pow_s03_0_boat_35_n03662601_18676.png
subject-03,1,1022,0.760610103607178,keyboard,keyboard,pow,1022_pow_s03_pow_keyboard_35_n03085013_20882.png
subject-03,1,1023,0.872061967849731,oven,oven,pow,1023_pow_s03_pow_oven_35_n04111531_4146.png
subject-03,1,1024,1.3619179725647,bird,bird,pow,1024_pow_s03_pow_bird_35_n01534433_14336.png
subject-03,1,1025,0.771971940994263,chair,chair,0,1025_pow_s03_0_chair_35_n04099969_5364.png
subject-03,1,1026,0.741472005844116,oven,oven,pow,1026_pow_s03_pow_oven_35_n04111531_4407.png
subject-03,1,1027,0.969048976898193,car,car,0,1027_pow_s03_0_car_35_n02814533_75419.png
subject-03,1,1028,1.01718091964722,chair,chair,0,1028_pow_s03_0_chair_35_n04429376_54570.png
subject-03,1,1029,0.724797010421753,airplane,airplane,pow,1029_pow_s03_pow_airplane_35_n02690373_8791.png
subject-03,1,1030,0.838732004165649,car,car,0,1030_pow_s03_0_car_35_n02814533_59762.png
subject-03,1,1031,1.15862989425659,airplane,bottle,0,1031_pow_s03_0_bottle_35_n04557648_10171.png
subject-03,1,1032,0.896216154098511,elephant,elephant,0,1032_pow_s03_0_elephant_35_n02504013_5087.png
subject-03,1,1033,1.07405495643616,cat,cat,0,1033_pow_s03_0_cat_35_n02125311_28447.png
subject-03,1,1034,1.46187615394592,truck,truck,pow,1034_pow_s03_pow_truck_35_n03417042_11165.png
subject-03,1,1035,1.14980792999268,bottle,bottle,pow,1035_pow_s03_pow_bottle_35_n04557648_94.png
subject-03,1,1036,0.739551067352295,keyboard,keyboard,0,1036_pow_s03_0_keyboard_35_n04505470_5137.png
subject-03,1,1037,1.17164897918701,truck,truck,0,1037_pow_s03_0_truck_35_n04467665_57697.png
subject-03,1,1038,0.835116863250732,keyboard,keyboard,0,1038_pow_s03_0_keyboard_35_n03085013_20138.png
subject-03,1,1039,1.27295088768005,elephant,bear,pow,1039_pow_s03_pow_bear_35_n02132136_29029.png
subject-03,1,1040,0.910684108734131,truck,truck,pow,1040_pow_s03_pow_truck_35_n03417042_18625.png
subject-03,1,1041,0.752297878265381,clock,clock,0,1041_pow_s03_0_clock_35_n02708093_6734.png
subject-03,1,1042,1.10235285758972,bear,bird,pow,1042_pow_s03_pow_bird_35_n01532829_3914.png
subject-03,1,1043,0.712171077728271,cat,cat,pow,1043_pow_s03_pow_cat_35_n02123045_5228.png
subject-03,1,1044,0.853564977645874,chair,chair,pow,1044_pow_s03_pow_chair_35_n03376595_596.png
subject-03,1,1045,1.01962995529175,airplane,airplane,0,1045_pow_s03_0_airplane_35_n02690373_4107.png
subject-03,1,1046,0.939399003982544,chair,chair,0,1046_pow_s03_0_chair_35_n03376595_7660.png
subject-03,1,1047,0.905324935913086,bottle,bottle,pow,1047_pow_s03_pow_bottle_35_n04557648_2282.png
subject-03,1,1048,0.877009153366089,bottle,bottle,pow,1048_pow_s03_pow_bottle_35_n03937543_11347.png
subject-03,1,1049,0.99078106880188,truck,truck,0,1049_pow_s03_0_truck_35_n04467665_68137.png
subject-03,1,1050,1.13258695602417,knife,knife,pow,1050_pow_s03_pow_knife_35_n03041632_4494.png
subject-03,1,1051,1.2003059387207,bicycle,cat,pow,1051_pow_s03_pow_cat_35_n02123159_4952.png
subject-03,1,1052,0.55211615562439,cat,cat,0,1052_pow_s03_0_cat_35_n02123045_12010.png
subject-03,1,1053,0.960019826889038,truck,oven,0,1053_pow_s03_0_oven_35_n04111531_2156.png
subject-03,1,1054,0.955676078796387,dog,dog,0,1054_pow_s03_0_dog_35_n02094258_654.png
subject-03,1,1055,0.827568054199219,clock,clock,pow,1055_pow_s03_pow_clock_35_n02708093_384.png
subject-03,1,1056,1.01130795478821,bicycle,bicycle,0,1056_pow_s03_0_bicycle_35_n03792782_11306.png
subject-03,1,1057,0.991229057312012,airplane,airplane,pow,1057_pow_s03_pow_airplane_35_n02690373_1819.png
subject-03,1,1058,0.969106912612915,keyboard,keyboard,0,1058_pow_s03_0_keyboard_35_n04505470_8937.png
subject-03,1,1059,0.722671985626221,bottle,bottle,0,1059_pow_s03_0_bottle_35_n04591713_5129.png
subject-03,1,1060,0.856807947158813,keyboard,keyboard,0,1060_pow_s03_0_keyboard_35_n03085013_10659.png
