subj,Session,trial,rt,object_response,category,condition,imagename
subject-04,1,1,0.855642080307007,oven,chair,pow,0001_pow_s04_pow_chair_35_n04429376_12691.png
subject-04,1,2,0.989243984222412,boat,airplane,pow,0002_pow_s04_pow_airplane_35_n02690373_7740.png
subject-04,1,3,1.08511686325073,dog,dog,pow,0003_pow_s04_pow_dog_35_n02110958_8916.png
subject-04,1,4,1.12723207473755,knife,knife,0,0004_pow_s04_0_knife_35_n03041632_34769.png
subject-04,1,5,1.01474690437317,car,car,pow,0005_pow_s04_pow_car_35_n03100240_24471.png
subject-04,1,6,0.724605083465576,oven,oven,0,0006_pow_s04_0_oven_35_n04111531_2074.png
subject-04,1,7,1.48428320884705,dog,bird,0,0007_pow_s04_0_bird_35_n01820546_9729.png
subject-04,1,8,0.750306844711304,car,car,0,0008_pow_s04_0_car_35_n03100240_5387.png
subject-04,1,9,0.781928062438965,clock,clock,0,0009_pow_s04_0_clock_35_n03196217_10246.png
subject-04,1,10,1.27393984794617,chair,oven,0,0010_pow_s04_0_oven_35_n04111531_6445.png
subject-04,1,11,1.39172220230103,boat,bear,0,0011_pow_s04_0_bear_35_n02134084_15968.png
subject-04,1,12,0.815536975860596,car,car,pow,0012_pow_s04_pow_car_35_n04285008_5699.png
subject-04,1,13,0.931236982345581,bottle,bottle,pow,0013_pow_s04_pow_bottle_35_n02823428_774.png
subject-04,1,14,0.814923048019409,bottle,bottle,pow,0014_pow_s04_pow_bottle_35_n04591713_7005.png
subject-04,1,15,0.92473292350769,cat,cat,pow,0015_pow_s04_pow_cat_35_n02125311_28114.png
subject-04,1,16,1.43508291244507,dog,dog,0,0016_pow_s04_0_dog_35_n02102973_7681.png
subject-04,1,17,0.976830959320068,elephant,bicycle,pow,0017_pow_s04_pow_bicycle_35_n02835271_771.png
subject-04,1,18,0.79643702507019,clock,clock,pow,0018_pow_s04_pow_clock_35_n04548280_1960.png
subject-04,1,19,0.936209917068481,bicycle,bicycle,0,0019_pow_s04_0_bicycle_35_n02835271_6094.png
subject-04,1,20,1.18393683433533,oven,oven,pow,0020_pow_s04_pow_oven_35_n04111531_18916.png
subject-04,1,21,0.83384895324707,bottle,bottle,pow,0021_pow_s04_pow_bottle_35_n03983396_6889.png
subject-04,1,22,1.34973812103271,bottle,bottle,0,0022_pow_s04_0_bottle_35_n04591713_7164.png
subject-04,1,23,1.05964994430542,chair,chair,0,0023_pow_s04_0_chair_35_n04429376_10544.png
subject-04,1,24,1.17526507377625,oven,chair,pow,0024_pow_s04_pow_chair_35_n02791124_713.png
subject-04,1,25,NaN,na,bird,0,0025_pow_s04_0_bird_35_n02002556_5447.png
subject-04,1,26,1.46285080909729,dog,dog,pow,0026_pow_s04_pow_dog_35_n02109525_23299.png
subject-04,1,27,0.862786054611206,bottle,bottle,pow,0027_pow_s04_pow_bottle_35_n03983396_12895.png
subject-04,1,28,0.620560884475708,cat,cat,pow,0028_pow_s04_pow_cat_35_n02123597_1027.png
subject-04,1,29,0.792214155197144,cat,dog,0,0029_pow_s04_0_dog_35_n02101006_11799.png
subject-04,1,30,0.918459892272949,car,car,pow,0030_pow_s04_pow_car_35_n04285008_5528.png
subject-04,1,31,0.94802188873291,bear,bird,0,0031_pow_s04_0_bird_35_n02018207_19525.png
subject-04,1,32,0.815907001495361,dog,dog,pow,0032_pow_s04_pow_dog_35_n02097298_7577.png
subject-04,1,33,1.12949085235596,oven,clock,0,0033_pow_s04_0_clock_35_n03196217_5300.png
subject-04,1,34,0.70534610748291,chair,chair,0,0034_pow_s04_0_chair_35_n04099969_15676.png
subject-04,1,35,0.689443111419678,clock,clock,0,0035_pow_s04_0_clock_35_n02708093_5.png
subject-04,1,36,1.03301501274109,knife,keyboard,pow,0036_pow_s04_pow_keyboard_35_n03085013_19416.png
subject-04,1,37,0.943164110183716,bicycle,bicycle,0,0037_pow_s04_0_bicycle_35_n03792782_7878.png
subject-04,1,38,1.38449501991272,knife,knife,pow,0038_pow_s04_pow_knife_35_n03041632_21818.png
subject-04,1,39,0.656786918640137,knife,knife,0,0039_pow_s04_0_knife_35_n03041632_45312.png
subject-04,1,40,0.814339160919189,chair,chair,0,0040_pow_s04_0_chair_35_n04099969_8029.png
subject-04,1,41,0.711947202682495,chair,chair,0,0041_pow_s04_0_chair_35_n04429376_54570.png
subject-04,1,42,0.945946931838989,truck,truck,pow,0042_pow_s04_pow_truck_35_n03796401_9105.png
subject-04,1,43,0.775538206100464,bottle,bottle,0,0043_pow_s04_0_bottle_35_n03983396_5093.png
subject-04,1,44,0.965492963790894,bottle,bottle,pow,0044_pow_s04_pow_bottle_35_n04579145_4389.png
subject-04,1,45,0.677602052688599,knife,knife,pow,0045_pow_s04_pow_knife_35_n03041632_42472.png
subject-04,1,46,1.18543195724487,boat,bear,0,0046_pow_s04_0_bear_35_n02134084_13029.png
subject-04,1,47,0.840950965881348,bicycle,bicycle,pow,0047_pow_s04_pow_bicycle_35_n02835271_21339.png
subject-04,1,48,1.45881509780884,elephant,elephant,pow,0048_pow_s04_pow_elephant_35_n02504013_6552.png
subject-04,1,49,0.878545045852661,elephant,elephant,pow,0049_pow_s04_pow_elephant_35_n02504458_3143.png
subject-04,1,50,0.992779970169067,bottle,bottle,pow,0050_pow_s04_pow_bottle_35_n04557648_85.png
subject-04,1,51,1.26814103126526,keyboard,knife,pow,0051_pow_s04_pow_knife_35_n03041632_76163.png
subject-04,1,52,1.36835289001465,car,oven,pow,0052_pow_s04_pow_oven_35_n04111531_23046.png
subject-04,1,53,0.899907112121582,clock,clock,0,0053_pow_s04_0_clock_35_n03196217_6185.png
subject-04,1,54,0.649611949920654,chair,chair,0,0054_pow_s04_0_chair_35_n04099969_1163.png
subject-04,1,55,1.0714750289917,elephant,elephant,0,0055_pow_s04_0_elephant_35_n02504458_7302.png
subject-04,1,56,1.11924505233765,keyboard,keyboard,0,0056_pow_s04_0_keyboard_35_n04505470_2102.png
subject-04,1,57,1.34904813766479,boat,knife,0,0057_pow_s04_0_knife_35_n03041632_13424.png
subject-04,1,58,1.10111808776855,bird,bird,pow,0058_pow_s04_pow_bird_35_n01796340_11783.png
subject-04,1,59,0.944515943527222,keyboard,keyboard,0,0059_pow_s04_0_keyboard_35_n03085013_10659.png
subject-04,1,60,0.764462947845459,clock,clock,pow,0060_pow_s04_pow_clock_35_n04548280_4947.png
subject-04,1,61,0.928367137908936,knife,knife,pow,0061_pow_s04_pow_knife_35_n03041632_46103.png
subject-04,1,62,1.07043099403381,elephant,elephant,0,0062_pow_s04_0_elephant_35_n02504013_6141.png
subject-04,1,63,0.92390513420105,elephant,elephant,0,0063_pow_s04_0_elephant_35_n02504013_6257.png
subject-04,1,64,0.790050029754639,elephant,elephant,0,0064_pow_s04_0_elephant_35_n02504458_7013.png
subject-04,1,65,1.30339002609253,boat,boat,pow,0065_pow_s04_pow_boat_35_n03344393_6892.png
subject-04,1,66,0.999347925186157,bird,bird,pow,0066_pow_s04_pow_bird_35_n02009912_6788.png
subject-04,1,67,1.1312210559845,elephant,bird,pow,0067_pow_s04_pow_bird_35_n01820546_6471.png
subject-04,1,68,1.07702493667603,keyboard,keyboard,pow,0068_pow_s04_pow_keyboard_35_n03085013_1698.png
subject-04,1,69,0.899107933044434,clock,clock,pow,0069_pow_s04_pow_clock_35_n04548280_17907.png
subject-04,1,70,0.616673946380615,bicycle,bicycle,0,0070_pow_s04_0_bicycle_35_n03792782_2435.png
subject-04,1,71,1.03260207176208,car,car,pow,0071_pow_s04_pow_car_35_n02814533_24730.png
subject-04,1,72,1.41414999961853,car,truck,pow,0072_pow_s04_pow_truck_35_n04467665_3876.png
subject-04,1,73,1.1860978603363,elephant,elephant,0,0073_pow_s04_0_elephant_35_n02504458_7777.png
subject-04,1,74,1.0681791305542,truck,truck,0,0074_pow_s04_0_truck_35_n03417042_9023.png
subject-04,1,75,1.05162405967712,airplane,airplane,0,0075_pow_s04_0_airplane_35_n02690373_19104.png
subject-04,1,76,1.06728792190552,elephant,elephant,pow,0076_pow_s04_pow_elephant_35_n02504013_1702.png
subject-04,1,77,1.2075879573822,cat,cat,pow,0077_pow_s04_pow_cat_35_n02125311_12361.png
subject-04,1,78,0.93317699432373,bicycle,bicycle,pow,0078_pow_s04_pow_bicycle_35_n02835271_324.png
subject-04,1,79,1.28896713256836,elephant,elephant,0,0079_pow_s04_0_elephant_35_n02504013_9618.png
subject-04,1,80,0.770573854446411,clock,clock,pow,0080_pow_s04_pow_clock_35_n02708093_2710.png
subject-04,1,81,0.95974588394165,truck,truck,pow,0081_pow_s04_pow_truck_35_n03417042_1182.png
subject-04,1,82,0.691519975662231,clock,clock,0,0082_pow_s04_0_clock_35_n02708093_41.png
subject-04,1,83,0.739403963088989,car,car,0,0083_pow_s04_0_car_35_n04285008_5897.png
subject-04,1,84,0.661228895187378,bottle,bottle,pow,0084_pow_s04_pow_bottle_35_n02823428_6327.png
subject-04,1,85,0.86711311340332,truck,truck,0,0085_pow_s04_0_truck_35_n04467665_68137.png
subject-04,1,86,0.686648845672607,chair,chair,0,0086_pow_s04_0_chair_35_n03376595_6240.png
subject-04,1,87,1.04472613334656,truck,truck,0,0087_pow_s04_0_truck_35_n04467665_58815.png
subject-04,1,88,0.760468006134033,elephant,elephant,0,0088_pow_s04_0_elephant_35_n02504458_4721.png
subject-04,1,89,0.78635311126709,bottle,bottle,pow,0089_pow_s04_pow_bottle_35_n04591713_1407.png
subject-04,1,90,0.670180082321167,chair,chair,pow,0090_pow_s04_pow_chair_35_n04099969_24378.png
subject-04,1,91,0.893824100494385,chair,chair,0,0091_pow_s04_0_chair_35_n04099969_17428.png
subject-04,1,92,0.731578826904297,knife,knife,0,0092_pow_s04_0_knife_35_n03041632_3504.png
subject-04,1,93,0.885470867156982,bicycle,bicycle,pow,0093_pow_s04_pow_bicycle_35_n02835271_1701.png
subject-04,1,94,0.67750096321106,car,car,0,0094_pow_s04_0_car_35_n03100240_18756.png
subject-04,1,95,0.665188074111938,keyboard,keyboard,0,0095_pow_s04_0_keyboard_35_n04505470_5131.png
subject-04,1,96,1.1428370475769,elephant,elephant,0,0096_pow_s04_0_elephant_35_n02504013_891.png
subject-04,1,97,0.860629081726074,oven,oven,0,0097_pow_s04_0_oven_35_n04111531_4.png
subject-04,1,98,1.45462489128113,oven,oven,0,0098_pow_s04_0_oven_35_n04111531_6120.png
subject-04,1,99,0.624765872955322,cat,cat,pow,0099_pow_s04_pow_cat_35_n02124075_9723.png
subject-04,1,100,0.818113088607788,boat,boat,pow,0100_pow_s04_pow_boat_35_n03344393_6260.png
subject-04,1,101,1.47786688804626,airplane,airplane,pow,0101_pow_s04_pow_airplane_35_n02690373_4402.png
subject-04,1,102,1.28219604492188,knife,knife,0,0102_pow_s04_0_knife_35_n03041632_29427.png
subject-04,1,103,0.83995795249939,car,car,0,0103_pow_s04_0_car_35_n04285008_1313.png
subject-04,1,104,0.811331987380981,clock,clock,0,0104_pow_s04_0_clock_35_n04548280_183.png
subject-04,1,105,1.25317907333374,dog,dog,pow,0105_pow_s04_pow_dog_35_n02088632_1732.png
subject-04,1,106,1.49698400497437,clock,bicycle,pow,0106_pow_s04_pow_bicycle_35_n03792782_4931.png
subject-04,1,107,0.886854887008667,keyboard,keyboard,0,0107_pow_s04_0_keyboard_35_n04505470_3531.png
subject-04,1,108,1.50008893013,chair,oven,0,0108_pow_s04_0_oven_35_n04111531_5582.png
subject-04,1,109,1.08056092262268,cat,cat,0,0109_pow_s04_0_cat_35_n02123159_2246.png
subject-04,1,110,1.20238208770752,clock,clock,0,0110_pow_s04_0_clock_35_n03196217_1376.png
subject-04,1,111,1.3984580039978,bottle,clock,pow,0111_pow_s04_pow_clock_35_n03196217_5206.png
subject-04,1,112,0.622027158737183,bicycle,bicycle,0,0112_pow_s04_0_bicycle_35_n02835271_15617.png
subject-04,1,113,0.771841049194336,bird,bird,0,0113_pow_s04_0_bird_35_n02027492_9905.png
subject-04,1,114,0.723469018936157,clock,clock,pow,0114_pow_s04_pow_clock_35_n04548280_8841.png
subject-04,1,115,0.709382057189941,cat,cat,pow,0115_pow_s04_pow_cat_35_n02123045_5228.png
subject-04,1,116,0.865021944046021,cat,dog,0,0116_pow_s04_0_dog_35_n02086240_1231.png
subject-04,1,117,1.44890809059143,dog,dog,pow,0117_pow_s04_pow_dog_35_n02113023_12143.png
subject-04,1,118,0.814626932144165,truck,truck,0,0118_pow_s04_0_truck_35_n04467665_7290.png
subject-04,1,119,0.680889844894409,chair,chair,0,0119_pow_s04_0_chair_35_n03376595_7010.png
subject-04,1,120,0.76637601852417,car,car,0,0120_pow_s04_0_car_35_n02814533_18077.png
subject-04,1,121,1.03629589080811,chair,chair,0,0121_pow_s04_0_chair_35_n04099969_2113.png
subject-04,1,122,1.02806496620178,oven,oven,pow,0122_pow_s04_pow_oven_35_n04111531_4407.png
subject-04,1,123,0.811888933181763,cat,cat,pow,0123_pow_s04_pow_cat_35_n02123159_2043.png
subject-04,1,124,1.35765409469604,dog,keyboard,pow,0124_pow_s04_pow_keyboard_35_n03085013_24087.png
subject-04,1,125,0.87949800491333,cat,cat,0,0125_pow_s04_0_cat_35_n02124075_13663.png
subject-04,1,126,1.00118207931519,bear,cat,pow,0126_pow_s04_pow_cat_35_n02123394_159.png
subject-04,1,127,0.76103401184082,keyboard,keyboard,pow,0127_pow_s04_pow_keyboard_35_n03085013_21183.png
subject-04,1,128,0.865052938461304,bear,bear,pow,0128_pow_s04_pow_bear_35_n02133161_6028.png
subject-04,1,129,1.26660895347595,chair,boat,0,0129_pow_s04_0_boat_35_n02951358_14877.png
subject-04,1,130,0.782588005065918,cat,cat,pow,0130_pow_s04_pow_cat_35_n02123597_5514.png
subject-04,1,131,0.776201009750366,bottle,bottle,0,0131_pow_s04_0_bottle_35_n02823428_3611.png
subject-04,1,132,0.574023008346558,bottle,bottle,pow,0132_pow_s04_pow_bottle_35_n04591713_6827.png
subject-04,1,133,0.63801908493042,keyboard,keyboard,pow,0133_pow_s04_pow_keyboard_35_n03085013_24665.png
subject-04,1,134,1.11991095542908,elephant,knife,pow,0134_pow_s04_pow_knife_35_n03041632_10777.png
subject-04,1,135,1.00958204269409,boat,boat,pow,0135_pow_s04_pow_boat_35_n03344393_815.png
subject-04,1,136,0.897706031799316,car,car,pow,0136_pow_s04_pow_car_35_n04285008_15071.png
subject-04,1,137,0.859148979187012,airplane,airplane,0,0137_pow_s04_0_airplane_35_n02690373_9709.png
subject-04,1,138,0.73511791229248,bottle,bottle,0,0138_pow_s04_0_bottle_35_n04557648_9310.png
subject-04,1,139,1.27511501312256,car,boat,pow,0139_pow_s04_pow_boat_35_n03344393_6978.png
subject-04,1,140,0.594640970230103,keyboard,keyboard,pow,0140_pow_s04_pow_keyboard_35_n03085013_4636.png
subject-04,1,141,0.628548145294189,boat,boat,pow,0141_pow_s04_pow_boat_35_n04273569_27839.png
subject-04,1,142,0.818655014038086,bicycle,bicycle,pow,0142_pow_s04_pow_bicycle_35_n02835271_542.png
subject-04,1,143,1.06199717521667,bottle,bottle,pow,0143_pow_s04_pow_bottle_35_n04560804_3847.png
subject-04,1,144,1.49391388893127,keyboard,knife,pow,0144_pow_s04_pow_knife_35_n03041632_85488.png
subject-04,1,145,0.896060943603516,elephant,elephant,0,0145_pow_s04_0_elephant_35_n02504013_3410.png
subject-04,1,146,0.549607992172241,clock,clock,0,0146_pow_s04_0_clock_35_n04548280_7565.png
subject-04,1,147,0.885259866714478,elephant,elephant,0,0147_pow_s04_0_elephant_35_n02504013_7273.png
subject-04,1,148,0.90922999382019,elephant,elephant,0,0148_pow_s04_0_elephant_35_n02504458_5331.png
subject-04,1,149,0.636941909790039,car,car,0,0149_pow_s04_0_car_35_n03100240_5808.png
subject-04,1,150,0.715108156204224,bottle,bottle,pow,0150_pow_s04_pow_bottle_35_n02823428_12740.png
subject-04,1,151,0.824736833572388,airplane,airplane,0,0151_pow_s04_0_airplane_35_n02690373_6614.png
subject-04,1,152,0.792292833328247,bicycle,bicycle,pow,0152_pow_s04_pow_bicycle_35_n02835271_4313.png
subject-04,1,153,0.650290966033936,chair,chair,0,0153_pow_s04_0_chair_35_n04099969_9713.png
subject-04,1,154,1.38005614280701,bottle,clock,0,0154_pow_s04_0_clock_35_n03196217_3762.png
subject-04,1,155,0.878288984298706,airplane,airplane,0,0155_pow_s04_0_airplane_35_n02690373_4107.png
subject-04,1,156,0.803660869598389,bicycle,bicycle,0,0156_pow_s04_0_bicycle_35_n03792782_68319.png
subject-04,1,157,0.657341003417969,bird,bird,0,0157_pow_s04_0_bird_35_n02056570_8203.png
subject-04,1,158,0.703310012817383,keyboard,keyboard,0,0158_pow_s04_0_keyboard_35_n03085013_23291.png
subject-04,1,159,0.717152833938599,bird,bird,pow,0159_pow_s04_pow_bird_35_n01558993_6351.png
subject-04,1,160,0.916849136352539,elephant,bear,pow,0160_pow_s04_pow_bear_35_n02132136_29029.png
subject-04,1,161,0.608108043670654,clock,clock,pow,0161_pow_s04_pow_clock_35_n04548280_6792.png
subject-04,1,162,0.88829493522644,oven,oven,pow,0162_pow_s04_pow_oven_35_n04111531_15743.png
subject-04,1,163,1.13174104690552,bicycle,truck,0,0163_pow_s04_0_truck_35_n03417042_3327.png
subject-04,1,164,1.14604187011719,dog,dog,pow,0164_pow_s04_pow_dog_35_n02111129_513.png
subject-04,1,165,0.519407033920288,clock,clock,0,0165_pow_s04_0_clock_35_n02708093_2295.png
subject-04,1,166,1.20756793022156,elephant,knife,pow,0166_pow_s04_pow_knife_35_n03041632_13194.png
subject-04,1,167,0.95914101600647,car,car,pow,0167_pow_s04_pow_car_35_n02814533_874.png
subject-04,1,168,1.16884803771973,bottle,bottle,0,0168_pow_s04_0_bottle_35_n03983396_12525.png
subject-04,1,169,0.942625045776367,car,car,0,0169_pow_s04_0_car_35_n03100240_1435.png
subject-04,1,170,1.16056895256042,dog,oven,pow,0170_pow_s04_pow_oven_35_n04111531_6181.png
subject-04,1,171,1.23023796081543,elephant,elephant,pow,0171_pow_s04_pow_elephant_35_n02504013_7026.png
subject-04,1,172,0.796571016311646,car,car,0,0172_pow_s04_0_car_35_n02814533_1297.png
subject-04,1,173,0.664072036743164,oven,oven,pow,0173_pow_s04_pow_oven_35_n04111531_452.png
subject-04,1,174,0.803657054901123,keyboard,keyboard,pow,0174_pow_s04_pow_keyboard_35_n03085013_21325.png
subject-04,1,175,1.11149597167969,truck,knife,0,0175_pow_s04_0_knife_35_n03041632_5102.png
subject-04,1,176,1.50010800361633,elephant,elephant,0,0176_pow_s04_0_elephant_35_n02504458_4414.png
subject-04,1,177,0.829512119293213,keyboard,keyboard,pow,0177_pow_s04_pow_keyboard_35_n03085013_22813.png
subject-04,1,178,0.670931100845337,elephant,elephant,pow,0178_pow_s04_pow_elephant_35_n02504013_9678.png
subject-04,1,179,0.70865797996521,car,car,pow,0179_pow_s04_pow_car_35_n02814533_65623.png
subject-04,1,180,1.41061091423035,bear,keyboard,pow,0180_pow_s04_pow_keyboard_35_n03085013_22386.png
subject-04,1,181,0.5605309009552,keyboard,keyboard,0,0181_pow_s04_0_keyboard_35_n03085013_6986.png
subject-04,1,182,0.748257160186768,truck,truck,pow,0182_pow_s04_pow_truck_35_n03417042_16403.png
subject-04,1,183,1.26598501205444,boat,knife,pow,0183_pow_s04_pow_knife_35_n03041632_13509.png
subject-04,1,184,1.20175313949585,clock,bicycle,0,0184_pow_s04_0_bicycle_35_n03792782_3765.png
subject-04,1,185,1.16982102394104,elephant,elephant,pow,0185_pow_s04_pow_elephant_35_n02504458_6120.png
subject-04,1,186,1.02958798408508,dog,dog,pow,0186_pow_s04_pow_dog_35_n02094258_794.png
subject-04,1,187,1.12933802604675,elephant,elephant,pow,0187_pow_s04_pow_elephant_35_n02504458_3891.png
subject-04,1,188,0.719166994094849,bicycle,bicycle,0,0188_pow_s04_0_bicycle_35_n02835271_3027.png
subject-04,1,189,0.732842922210693,keyboard,keyboard,pow,0189_pow_s04_pow_keyboard_35_n04505470_5125.png
subject-04,1,190,1.26084613800049,chair,cat,0,0190_pow_s04_0_cat_35_n02123159_643.png
subject-04,1,191,0.566648006439209,boat,boat,0,0191_pow_s04_0_boat_35_n02951358_14624.png
subject-04,1,192,0.690624952316284,chair,chair,pow,0192_pow_s04_pow_chair_35_n03376595_596.png
subject-04,1,193,0.954200983047485,dog,dog,0,0193_pow_s04_0_dog_35_n02111500_3947.png
subject-04,1,194,0.882059812545776,cat,cat,pow,0194_pow_s04_pow_cat_35_n02123394_530.png
subject-04,1,195,0.817653894424438,bottle,bottle,0,0195_pow_s04_0_bottle_35_n03983396_4178.png
subject-04,1,196,1.03963398933411,knife,chair,pow,0196_pow_s04_pow_chair_35_n04429376_30249.png
subject-04,1,197,1.50000405311584,elephant,elephant,pow,0197_pow_s04_pow_elephant_35_n02504013_1763.png
subject-04,1,198,0.98150897026062,clock,chair,pow,0198_pow_s04_pow_chair_35_n04429376_353.png
subject-04,1,199,0.575060129165649,cat,cat,pow,0199_pow_s04_pow_cat_35_n02125311_30246.png
subject-04,1,200,0.980977058410645,boat,airplane,pow,0200_pow_s04_pow_airplane_35_n02690373_5149.png
subject-04,1,201,0.704536914825439,boat,boat,pow,0201_pow_s04_pow_boat_35_n04273569_11997.png
subject-04,1,202,0.628530979156494,oven,oven,0,0202_pow_s04_0_oven_35_n04111531_5694.png
subject-04,1,203,0.972656011581421,keyboard,keyboard,pow,0203_pow_s04_pow_keyboard_35_n04505470_1358.png
subject-04,1,204,0.612259149551392,bear,bear,pow,0204_pow_s04_pow_bear_35_n02132136_3603.png
subject-04,1,205,0.901823043823242,cat,cat,pow,0205_pow_s04_pow_cat_35_n02124075_10456.png
subject-04,1,206,0.849658012390137,cat,cat,0,0206_pow_s04_0_cat_35_n02123394_1899.png
subject-04,1,207,0.69168496131897,bear,bear,0,0207_pow_s04_0_bear_35_n02134418_2590.png
subject-04,1,208,1.00326299667358,boat,bottle,0,0208_pow_s04_0_bottle_35_n04557648_10171.png
subject-04,1,209,1.29303598403931,car,car,0,0209_pow_s04_0_car_35_n03100240_5719.png
subject-04,1,210,1.42104601860046,bicycle,bicycle,0,0210_pow_s04_0_bicycle_35_n03792782_3333.png
subject-04,1,211,1.13069200515747,bicycle,bicycle,0,0211_pow_s04_0_bicycle_35_n03792782_18529.png
subject-04,1,212,1.18655300140381,car,car,0,0212_pow_s04_0_car_35_n02814533_75419.png
subject-04,1,213,0.676368951797485,keyboard,keyboard,0,0213_pow_s04_0_keyboard_35_n03085013_20906.png
subject-04,1,214,0.690245151519775,truck,truck,0,0214_pow_s04_0_truck_35_n03417042_2062.png
subject-04,1,215,1.22193789482117,bicycle,bicycle,0,0215_pow_s04_0_bicycle_35_n03792782_11390.png
subject-04,1,216,1.05790495872498,bear,bird,pow,0216_pow_s04_pow_bird_35_n01534433_14336.png
subject-04,1,217,0.899562120437622,bicycle,bicycle,0,0217_pow_s04_0_bicycle_35_n03792782_7713.png
subject-04,1,218,0.773340940475464,chair,chair,0,0218_pow_s04_0_chair_35_n04099969_114.png
subject-04,1,219,0.735443115234375,bear,bear,pow,0219_pow_s04_pow_bear_35_n02133161_6679.png
subject-04,1,220,0.71301007270813,bear,bear,0,0220_pow_s04_0_bear_35_n02134084_13205.png
subject-04,1,221,1.12686586380005,elephant,elephant,0,0221_pow_s04_0_elephant_35_n02504013_2476.png
subject-04,1,222,0.861059188842773,knife,knife,pow,0222_pow_s04_pow_knife_35_n03041632_18959.png
subject-04,1,223,1.35064697265625,chair,elephant,0,0223_pow_s04_0_elephant_35_n02504458_13382.png
subject-04,1,224,0.814519166946411,boat,boat,0,0224_pow_s04_0_boat_35_n03344393_5511.png
subject-04,1,225,0.840104103088379,bear,bear,0,0225_pow_s04_0_bear_35_n02134084_22051.png
subject-04,1,226,0.994060039520264,bird,bird,0,0226_pow_s04_0_bird_35_n02027492_7770.png
subject-04,1,227,1.50011897087097,knife,chair,pow,0227_pow_s04_pow_chair_35_n03376595_6947.png
subject-04,1,228,1.50008201599121,keyboard,chair,pow,0228_pow_s04_pow_chair_35_n04429376_1838.png
subject-04,1,229,1.17538094520569,car,car,0,0229_pow_s04_0_car_35_n03100240_24505.png
subject-04,1,230,1.0275731086731,dog,dog,pow,0230_pow_s04_pow_dog_35_n02110185_8777.png
subject-04,1,231,1.30709791183472,knife,knife,0,0231_pow_s04_0_knife_35_n03041632_120.png
subject-04,1,232,1.07902812957764,car,car,0,0232_pow_s04_0_car_35_n04285008_4749.png
subject-04,1,233,1.17277097702026,bird,bird,0,0233_pow_s04_0_bird_35_n02013706_1016.png
subject-04,1,234,0.828352928161621,boat,boat,0,0234_pow_s04_0_boat_35_n03344393_7374.png
subject-04,1,235,1.13225603103638,boat,boat,pow,0235_pow_s04_pow_boat_35_n04612504_857.png
subject-04,1,236,1.37399983406067,boat,chair,0,0236_pow_s04_0_chair_35_n03376595_6652.png
subject-04,1,237,1.2179811000824,cat,bird,pow,0237_pow_s04_pow_bird_35_n01537544_20224.png
subject-04,1,238,0.521742105484009,bear,bear,0,0238_pow_s04_0_bear_35_n02132136_900.png
subject-04,1,239,1.02166390419006,truck,truck,pow,0239_pow_s04_pow_truck_35_n03796401_3273.png
subject-04,1,240,1.0214569568634,car,car,pow,0240_pow_s04_pow_car_35_n04285008_402.png
subject-04,1,241,0.812926054000854,bicycle,bicycle,0,0241_pow_s04_0_bicycle_35_n03792782_70690.png
subject-04,1,242,0.944783926010132,oven,oven,0,0242_pow_s04_0_oven_35_n04111531_7625.png
subject-04,1,243,1.24821186065674,clock,knife,0,0243_pow_s04_0_knife_35_n03041632_7380.png
subject-04,1,244,0.904167890548706,airplane,airplane,0,0244_pow_s04_0_airplane_35_n02690373_4763.png
subject-04,1,245,0.926123857498169,airplane,airplane,pow,0245_pow_s04_pow_airplane_35_n02690373_4704.png
subject-04,1,246,0.845705986022949,keyboard,keyboard,pow,0246_pow_s04_pow_keyboard_35_n03085013_3859.png
subject-04,1,247,0.985688924789429,car,car,pow,0247_pow_s04_pow_car_35_n03100240_7056.png
subject-04,1,248,1.25536489486694,elephant,elephant,pow,0248_pow_s04_pow_elephant_35_n02504458_4716.png
subject-04,1,249,0.765372037887573,bear,bear,pow,0249_pow_s04_pow_bear_35_n02132136_18276.png
subject-04,1,250,0.90912914276123,dog,dog,0,0250_pow_s04_0_dog_35_n02108000_6270.png
subject-04,1,251,0.578958034515381,clock,clock,pow,0251_pow_s04_pow_clock_35_n04548280_82.png
subject-04,1,252,1.08085298538208,bear,bear,pow,0252_pow_s04_pow_bear_35_n02134084_9539.png
subject-04,1,253,0.764602899551392,oven,oven,0,0253_pow_s04_0_oven_35_n04111531_2156.png
subject-04,1,254,0.59237813949585,bottle,oven,0,0254_pow_s04_0_oven_35_n04111531_7355.png
subject-04,1,255,0.664016962051392,bear,bear,0,0255_pow_s04_0_bear_35_n02134418_10576.png
subject-04,1,256,0.777738094329834,oven,oven,pow,0256_pow_s04_pow_oven_35_n04111531_7883.png
subject-04,1,257,0.699819087982178,car,car,0,0257_pow_s04_0_car_35_n03100240_3073.png
subject-04,1,258,0.595454931259155,clock,clock,pow,0258_pow_s04_pow_clock_35_n02708093_6.png
subject-04,1,259,1.46744203567505,keyboard,clock,pow,0259_pow_s04_pow_clock_35_n02708093_384.png
subject-04,1,260,0.495455026626587,car,car,pow,0260_pow_s04_pow_car_35_n03100240_4065.png
subject-04,1,261,0.54317307472229,cat,cat,0,0261_pow_s04_0_cat_35_n02123159_4914.png
subject-04,1,262,0.605061054229736,keyboard,keyboard,pow,0262_pow_s04_pow_keyboard_35_n03085013_24591.png
subject-04,1,263,0.498964071273804,cat,cat,0,0263_pow_s04_0_cat_35_n02125311_20179.png
subject-04,1,264,0.894272804260254,bird,bird,0,0264_pow_s04_0_bird_35_n02002556_3463.png
subject-04,1,265,0.982302904129028,knife,knife,pow,0265_pow_s04_pow_knife_35_n03041632_32292.png
subject-04,1,266,0.764230966567993,bottle,bottle,0,0266_pow_s04_0_bottle_35_n04557648_132.png
subject-04,1,267,0.72987699508667,dog,dog,pow,0267_pow_s04_pow_dog_35_n02088364_12272.png
subject-04,1,268,0.697756052017212,car,car,pow,0268_pow_s04_pow_car_35_n04285008_8443.png
subject-04,1,269,0.729379892349243,clock,clock,0,0269_pow_s04_0_clock_35_n02708093_7535.png
subject-04,1,270,0.791614055633545,bird,bird,0,0270_pow_s04_0_bird_35_n01833805_16468.png
subject-04,1,271,1.45539402961731,bird,bird,0,0271_pow_s04_0_bird_35_n02007558_7112.png
subject-04,1,272,1.08296608924866,dog,dog,pow,0272_pow_s04_pow_dog_35_n02108000_6061.png
subject-04,1,273,1.43298697471619,truck,truck,pow,0273_pow_s04_pow_truck_35_n03796401_296.png
subject-04,1,274,0.878819942474365,dog,dog,0,0274_pow_s04_0_dog_35_n02113624_1707.png
subject-04,1,275,1.12836003303528,dog,cat,pow,0275_pow_s04_pow_cat_35_n02123597_6405.png
subject-04,1,276,1.01197695732117,bottle,bottle,pow,0276_pow_s04_pow_bottle_35_n04557648_1184.png
subject-04,1,277,0.729842901229858,truck,truck,pow,0277_pow_s04_pow_truck_35_n03796401_3618.png
subject-04,1,278,1.40980315208435,boat,boat,0,0278_pow_s04_0_boat_35_n03344393_7412.png
subject-04,1,279,0.899560213088989,dog,dog,pow,0279_pow_s04_pow_dog_35_n02095570_8343.png
subject-04,1,280,0.463787078857422,clock,clock,0,0280_pow_s04_0_clock_35_n04548280_11806.png
subject-04,1,281,0.783164024353027,car,car,0,0281_pow_s04_0_car_35_n04285008_7508.png
subject-04,1,282,0.74540901184082,car,car,0,0282_pow_s04_0_car_35_n02814533_35174.png
subject-04,1,283,1.21315217018127,elephant,elephant,pow,0283_pow_s04_pow_elephant_35_n02504458_5982.png
subject-04,1,284,1.35863280296326,cat,cat,0,0284_pow_s04_0_cat_35_n02123597_14639.png
subject-04,1,285,1.08425402641296,keyboard,keyboard,0,0285_pow_s04_0_keyboard_35_n03085013_21166.png
subject-04,1,286,0.636299133300781,airplane,airplane,pow,0286_pow_s04_pow_airplane_35_n02690373_10510.png
subject-04,1,287,0.582428932189941,bear,bear,pow,0287_pow_s04_pow_bear_35_n02134418_3232.png
subject-04,1,288,0.547988891601562,oven,oven,0,0288_pow_s04_0_oven_35_n04111531_19795.png
subject-04,1,289,0.553745031356812,bottle,bottle,pow,0289_pow_s04_pow_bottle_35_n03983396_9695.png
subject-04,1,290,0.771641969680786,truck,truck,pow,0290_pow_s04_pow_truck_35_n04467665_21942.png
subject-04,1,291,0.695420026779175,car,car,0,0291_pow_s04_0_car_35_n02814533_93487.png
subject-04,1,292,0.975270986557007,car,boat,pow,0292_pow_s04_pow_boat_35_n03662601_15566.png
subject-04,1,293,1.00095391273499,bird,bird,pow,0293_pow_s04_pow_bird_35_n01537544_9745.png
subject-04,1,294,0.696892023086548,bottle,bottle,pow,0294_pow_s04_pow_bottle_35_n04579145_3894.png
subject-04,1,295,0.526584148406982,clock,clock,0,0295_pow_s04_0_clock_35_n04548280_2601.png
subject-04,1,296,0.632491827011108,oven,oven,0,0296_pow_s04_0_oven_35_n04111531_14903.png
subject-04,1,297,1.18024492263794,car,car,0,0297_pow_s04_0_car_35_n03100240_6103.png
subject-04,1,298,0.728308916091919,airplane,airplane,pow,0298_pow_s04_pow_airplane_35_n02690373_8791.png
subject-04,1,299,0.642164945602417,cat,cat,0,0299_pow_s04_0_cat_35_n02123597_7081.png
subject-04,1,300,0.723682880401611,boat,boat,0,0300_pow_s04_0_boat_35_n04612504_19147.png
subject-04,1,301,0.945955991744995,car,truck,0,0301_pow_s04_0_truck_35_n03417042_27326.png
subject-04,1,302,0.615494012832642,elephant,elephant,0,0302_pow_s04_0_elephant_35_n02504013_1916.png
subject-04,1,303,0.835097074508667,knife,knife,0,0303_pow_s04_0_knife_35_n03041632_13465.png
subject-04,1,304,0.926898002624512,dog,dog,pow,0304_pow_s04_pow_dog_35_n02097658_6717.png
subject-04,1,305,1.10859990119934,keyboard,keyboard,0,0305_pow_s04_0_keyboard_35_n03085013_21851.png
subject-04,1,306,0.852844953536987,bear,bird,pow,0306_pow_s04_pow_bird_35_n01514859_12245.png
subject-04,1,307,0.99639892578125,knife,knife,0,0307_pow_s04_0_knife_35_n03041632_21560.png
subject-04,1,308,1.44848012924194,knife,boat,pow,0308_pow_s04_pow_boat_35_n02951358_14504.png
subject-04,1,309,0.590080976486206,boat,boat,0,0309_pow_s04_0_boat_35_n03344393_7669.png
subject-04,1,310,0.551690816879272,chair,chair,0,0310_pow_s04_0_chair_35_n04429376_14680.png
subject-04,1,311,0.823775053024292,bird,bird,pow,0311_pow_s04_pow_bird_35_n01532829_4536.png
subject-04,1,312,1.10338187217712,bird,bird,pow,0312_pow_s04_pow_bird_35_n02009229_1091.png
subject-04,1,313,0.78115701675415,cat,cat,0,0313_pow_s04_0_cat_35_n02123045_8031.png
subject-04,1,314,0.837205171585083,bear,bear,0,0314_pow_s04_0_bear_35_n02132136_24633.png
subject-04,1,315,0.866935014724731,elephant,elephant,pow,0315_pow_s04_pow_elephant_35_n02504013_24810.png
subject-04,1,316,0.796530961990356,knife,knife,0,0316_pow_s04_0_knife_35_n03041632_48675.png
subject-04,1,317,1.03640794754028,elephant,elephant,pow,0317_pow_s04_pow_elephant_35_n02504013_6420.png
subject-04,1,318,0.714263916015625,car,car,pow,0318_pow_s04_pow_car_35_n02814533_58196.png
subject-04,1,319,1.16650199890137,bottle,knife,pow,0319_pow_s04_pow_knife_35_n03041632_3617.png
subject-04,1,320,0.768075942993164,bird,bird,0,0320_pow_s04_0_bird_35_n02028035_8994.png
subject-04,1,321,1.03165507316589,elephant,elephant,pow,0321_pow_s04_pow_elephant_35_n02504458_4187.png
subject-04,1,322,1.19555306434631,chair,truck,pow,0322_pow_s04_pow_truck_35_n04467665_42823.png
subject-04,1,323,0.912876129150391,dog,dog,0,0323_pow_s04_0_dog_35_n02106166_5135.png
subject-04,1,324,0.940896987915039,dog,dog,pow,0324_pow_s04_pow_dog_35_n02098105_2157.png
subject-04,1,325,0.892484903335571,bear,dog,pow,0325_pow_s04_pow_dog_35_n02105056_6724.png
subject-04,1,326,0.768358945846558,bear,bear,0,0326_pow_s04_0_bear_35_n02134418_4513.png
subject-04,1,327,0.560106992721558,cat,cat,0,0327_pow_s04_0_cat_35_n02123597_5697.png
subject-04,1,328,1.18409490585327,car,car,0,0328_pow_s04_0_car_35_n03100240_17583.png
subject-04,1,329,0.673964023590088,chair,chair,0,0329_pow_s04_0_chair_35_n04429376_17074.png
subject-04,1,330,1.17562198638916,oven,truck,pow,0330_pow_s04_pow_truck_35_n03796401_6737.png
subject-04,1,331,0.639859914779663,oven,oven,pow,0331_pow_s04_pow_oven_35_n04111531_5212.png
subject-04,1,332,0.849422931671143,elephant,bear,pow,0332_pow_s04_pow_bear_35_n02134084_5827.png
subject-04,1,333,1.08531498908997,bottle,bottle,0,0333_pow_s04_0_bottle_35_n03937543_2941.png
subject-04,1,334,0.849235057830811,oven,oven,pow,0334_pow_s04_pow_oven_35_n04111531_4146.png
subject-04,1,335,0.726694107055664,airplane,airplane,0,0335_pow_s04_0_airplane_35_n02690373_3415.png
subject-04,1,336,0.740745067596436,truck,truck,pow,0336_pow_s04_pow_truck_35_n04467665_63626.png
subject-04,1,337,NaN,na,cat,pow,0337_pow_s04_pow_cat_35_n02123159_463.png
subject-04,1,338,1.00813889503479,truck,truck,pow,0338_pow_s04_pow_truck_35_n03417042_11165.png
subject-04,1,339,0.760304927825928,car,oven,pow,0339_pow_s04_pow_oven_35_n04111531_1873.png
subject-04,1,340,0.593646049499512,cat,cat,0,0340_pow_s04_0_cat_35_n02125311_475.png
subject-04,1,341,0.677870988845825,bottle,bottle,0,0341_pow_s04_0_bottle_35_n02823428_3028.png
subject-04,1,342,1.16955184936523,chair,chair,0,0342_pow_s04_0_chair_35_n02791124_359.png
subject-04,1,343,1.11141109466553,clock,chair,0,0343_pow_s04_0_chair_35_n04429376_8069.png
subject-04,1,344,0.829015970230103,chair,chair,0,0344_pow_s04_0_chair_35_n04099969_4816.png
subject-04,1,345,0.990754127502441,cat,cat,0,0345_pow_s04_0_cat_35_n02123597_6990.png
subject-04,1,346,0.774627208709717,cat,cat,pow,0346_pow_s04_pow_cat_35_n02123159_4687.png
subject-04,1,347,0.664558887481689,bicycle,bicycle,pow,0347_pow_s04_pow_bicycle_35_n03792782_30246.png
subject-04,1,348,0.868305206298828,bottle,bottle,pow,0348_pow_s04_pow_bottle_35_n04591713_3402.png
subject-04,1,349,0.854191064834595,cat,cat,0,0349_pow_s04_0_cat_35_n02125311_55770.png
subject-04,1,350,0.985952138900757,truck,truck,pow,0350_pow_s04_pow_truck_35_n03796401_142.png
subject-04,1,351,1.20967197418213,knife,keyboard,0,0351_pow_s04_0_keyboard_35_n04505470_8828.png
subject-04,1,352,0.785598039627075,airplane,airplane,pow,0352_pow_s04_pow_airplane_35_n02690373_763.png
subject-04,1,353,0.579699039459229,chair,chair,pow,0353_pow_s04_pow_chair_35_n04099969_20900.png
subject-04,1,354,1.00903105735779,car,clock,pow,0354_pow_s04_pow_clock_35_n03196217_2859.png
subject-04,1,355,0.585216045379639,cat,cat,pow,0355_pow_s04_pow_cat_35_n02123394_4713.png
subject-04,1,356,0.678716897964478,bottle,bottle,0,0356_pow_s04_0_bottle_35_n03983396_3675.png
subject-04,1,357,0.906432151794434,boat,boat,0,0357_pow_s04_0_boat_35_n04273569_12651.png
subject-04,1,358,0.640450000762939,bottle,bottle,pow,0358_pow_s04_pow_bottle_35_n03983396_4241.png
subject-04,1,359,0.608262062072754,clock,clock,0,0359_pow_s04_0_clock_35_n04548280_5011.png
subject-04,1,360,0.798281908035278,bottle,bottle,0,0360_pow_s04_0_bottle_35_n03983396_6281.png
subject-04,1,361,1.05586504936218,bottle,bottle,pow,0361_pow_s04_pow_bottle_35_n04591713_1767.png
subject-04,1,362,0.931915998458862,airplane,airplane,0,0362_pow_s04_0_airplane_35_n02690373_4350.png
subject-04,1,363,0.863501071929932,knife,knife,0,0363_pow_s04_0_knife_35_n03041632_30573.png
subject-04,1,364,0.793323993682861,boat,boat,0,0364_pow_s04_0_boat_35_n03662601_19840.png
subject-04,1,365,0.61495304107666,boat,boat,0,0365_pow_s04_0_boat_35_n03662601_10120.png
subject-04,1,366,1.03882098197937,bear,bear,0,0366_pow_s04_0_bear_35_n02134418_4657.png
subject-04,1,367,0.414685964584351,clock,clock,pow,0367_pow_s04_pow_clock_35_n04548280_8348.png
subject-04,1,368,0.704455852508545,clock,clock,0,0368_pow_s04_0_clock_35_n03196217_2607.png
subject-04,1,369,1.35049390792847,bicycle,knife,pow,0369_pow_s04_pow_knife_35_n03041632_82197.png
subject-04,1,370,1.09419894218445,knife,oven,pow,0370_pow_s04_pow_oven_35_n04111531_3193.png
subject-04,1,371,0.803980112075806,truck,truck,0,0371_pow_s04_0_truck_35_n04467665_45983.png
subject-04,1,372,1.50001192092896,knife,knife,0,0372_pow_s04_0_knife_35_n03041632_7982.png
subject-04,1,373,1.50001907348633,clock,dog,0,0373_pow_s04_0_dog_35_n02091032_250.png
subject-04,1,374,1.39127397537231,boat,truck,pow,0374_pow_s04_pow_truck_35_n03417042_3913.png
subject-04,1,375,0.591540098190308,oven,oven,pow,0375_pow_s04_pow_oven_35_n04111531_11405.png
subject-04,1,376,0.569373846054077,chair,chair,pow,0376_pow_s04_pow_chair_35_n03376595_6409.png
subject-04,1,377,0.638746023178101,bird,bird,0,0377_pow_s04_0_bird_35_n02025239_2961.png
subject-04,1,378,0.694385051727295,keyboard,keyboard,0,0378_pow_s04_0_keyboard_35_n03085013_7858.png
subject-04,1,379,0.606360912322998,bear,bear,pow,0379_pow_s04_pow_bear_35_n02134084_13588.png
subject-04,1,380,0.934206008911133,boat,boat,0,0380_pow_s04_0_boat_35_n03344393_3323.png
subject-04,1,381,0.643990039825439,keyboard,keyboard,0,0381_pow_s04_0_keyboard_35_n04505470_5137.png
subject-04,1,382,0.797905206680298,boat,boat,pow,0382_pow_s04_pow_boat_35_n04273569_31649.png
subject-04,1,383,0.953694105148315,boat,boat,0,0383_pow_s04_0_boat_35_n04273569_5767.png
subject-04,1,384,0.80151891708374,bird,bird,0,0384_pow_s04_0_bird_35_n01537544_5372.png
subject-04,1,385,0.561213970184326,knife,knife,pow,0385_pow_s04_pow_knife_35_n03041632_37513.png
subject-04,1,386,0.937175989151001,cat,dog,0,0386_pow_s04_0_dog_35_n02090622_1852.png
subject-04,1,387,0.861145973205566,elephant,elephant,0,0387_pow_s04_0_elephant_35_n02504013_6615.png
subject-04,1,388,1.06890916824341,truck,truck,0,0388_pow_s04_0_truck_35_n03796401_4181.png
subject-04,1,389,0.856568813323975,knife,knife,0,0389_pow_s04_0_knife_35_n03041632_383.png
subject-04,1,390,0.680447816848755,bicycle,bicycle,0,0390_pow_s04_0_bicycle_35_n02835271_9135.png
subject-04,1,391,1.39199113845825,keyboard,keyboard,0,0391_pow_s04_0_keyboard_35_n03085013_3656.png
subject-04,1,392,1.09403085708618,dog,dog,0,0392_pow_s04_0_dog_35_n02086646_7920.png
subject-04,1,393,1.23373198509216,bird,knife,pow,0393_pow_s04_pow_knife_35_n03041632_31037.png
subject-04,1,394,0.675529003143311,chair,chair,0,0394_pow_s04_0_chair_35_n02791124_2008.png
subject-04,1,395,0.837492942810059,knife,knife,0,0395_pow_s04_0_knife_35_n03041632_35365.png
subject-04,1,396,1.47737288475037,dog,dog,0,0396_pow_s04_0_dog_35_n02100583_5392.png
subject-04,1,397,0.651167154312134,truck,truck,0,0397_pow_s04_0_truck_35_n03417042_7036.png
subject-04,1,398,0.534815073013306,boat,boat,pow,0398_pow_s04_pow_boat_35_n04612504_8636.png
subject-04,1,399,0.658728837966919,chair,chair,0,0399_pow_s04_0_chair_35_n02791124_2003.png
subject-04,1,400,0.79084587097168,truck,truck,0,0400_pow_s04_0_truck_35_n03417042_3422.png
subject-04,1,401,1.02946305274963,bear,bird,pow,0401_pow_s04_pow_bird_35_n02017213_5095.png
subject-04,1,402,1.04314804077148,dog,bear,pow,0402_pow_s04_pow_bear_35_n02134418_3073.png
subject-04,1,403,0.601262092590332,bear,bear,pow,0403_pow_s04_pow_bear_35_n02132136_4699.png
subject-04,1,404,0.862742185592651,dog,dog,0,0404_pow_s04_0_dog_35_n02093256_1102.png
subject-04,1,405,0.792690992355347,bicycle,bicycle,pow,0405_pow_s04_pow_bicycle_35_n02835271_1436.png
subject-04,1,406,1.30853700637817,clock,knife,pow,0406_pow_s04_pow_knife_35_n03041632_27963.png
subject-04,1,407,1.09052205085754,bottle,bottle,pow,0407_pow_s04_pow_bottle_35_n04557648_9790.png
subject-04,1,408,0.898191928863525,bird,bird,0,0408_pow_s04_0_bird_35_n01819313_2722.png
subject-04,1,409,0.818042993545532,bird,bird,pow,0409_pow_s04_pow_bird_35_n02017213_4528.png
subject-04,1,410,0.72809100151062,bear,bear,pow,0410_pow_s04_pow_bear_35_n02133161_505.png
subject-04,1,411,0.679557085037231,bear,bear,pow,0411_pow_s04_pow_bear_35_n02134418_1826.png
subject-04,1,412,1.10938000679016,dog,dog,pow,0412_pow_s04_pow_dog_35_n02111500_3896.png
subject-04,1,413,0.743237018585205,chair,chair,0,0413_pow_s04_0_chair_35_n04099969_5364.png
subject-04,1,414,0.719135046005249,boat,boat,0,0414_pow_s04_0_boat_35_n03662601_5849.png
subject-04,1,415,0.890776872634888,cat,cat,pow,0415_pow_s04_pow_cat_35_n02123597_589.png
subject-04,1,416,0.920814037322998,bird,cat,pow,0416_pow_s04_pow_cat_35_n02125311_5013.png
subject-04,1,417,0.690837144851685,truck,truck,0,0417_pow_s04_0_truck_35_n03796401_10878.png
subject-04,1,418,1.50008583068848,elephant,elephant,0,0418_pow_s04_0_elephant_35_n02504013_1454.png
subject-04,1,419,0.730314970016479,bear,bear,pow,0419_pow_s04_pow_bear_35_n02132136_15870.png
subject-04,1,420,0.978347063064575,car,car,pow,0420_pow_s04_pow_car_35_n02814533_95669.png
subject-04,1,421,1.07978796958923,clock,clock,pow,0421_pow_s04_pow_clock_35_n02708093_6822.png
subject-04,1,422,1.17958307266235,bicycle,bicycle,pow,0422_pow_s04_pow_bicycle_35_n02835271_5643.png
subject-04,1,423,1.4116530418396,elephant,elephant,pow,0423_pow_s04_pow_elephant_35_n02504013_8534.png
subject-04,1,424,1.39355397224426,chair,airplane,pow,0424_pow_s04_pow_airplane_35_n02690373_18304.png
subject-04,1,425,1.15698909759521,clock,chair,0,0425_pow_s04_0_chair_35_n04429376_24073.png
subject-04,1,426,1.27112293243408,airplane,cat,pow,0426_pow_s04_pow_cat_35_n02123394_3718.png
subject-04,1,427,0.772727012634277,keyboard,keyboard,pow,0427_pow_s04_pow_keyboard_35_n03085013_19618.png
subject-04,1,428,0.808411836624146,knife,knife,pow,0428_pow_s04_pow_knife_35_n03041632_27960.png
subject-04,1,429,1.0942850112915,cat,oven,pow,0429_pow_s04_pow_oven_35_n04111531_3580.png
subject-04,1,430,0.944015026092529,chair,chair,0,0430_pow_s04_0_chair_35_n03376595_2056.png
subject-04,1,431,1.34972190856934,car,car,pow,0431_pow_s04_pow_car_35_n02814533_39666.png
subject-04,1,432,0.659735918045044,bottle,bottle,0,0432_pow_s04_0_bottle_35_n03983396_16628.png
subject-04,1,433,0.581461906433105,cat,cat,pow,0433_pow_s04_pow_cat_35_n02123394_1817.png
subject-04,1,434,0.649321794509888,car,car,pow,0434_pow_s04_pow_car_35_n04285008_7776.png
subject-04,1,435,0.562998056411743,bottle,bottle,0,0435_pow_s04_0_bottle_35_n03983396_13698.png
subject-04,1,436,0.936763048171997,bicycle,bicycle,0,0436_pow_s04_0_bicycle_35_n02835271_12799.png
subject-04,1,437,0.644804954528809,clock,clock,0,0437_pow_s04_0_clock_35_n03196217_3333.png
subject-04,1,438,0.646410942077637,bear,bear,pow,0438_pow_s04_pow_bear_35_n02133161_8982.png
subject-04,1,439,0.724326133728027,airplane,airplane,0,0439_pow_s04_0_airplane_35_n02690373_9802.png
subject-04,1,440,0.534173965454102,cat,cat,pow,0440_pow_s04_pow_cat_35_n02123045_11224.png
subject-04,1,441,0.790014982223511,car,car,pow,0441_pow_s04_pow_car_35_n02814533_3754.png
subject-04,1,442,0.641799211502075,keyboard,keyboard,pow,0442_pow_s04_pow_keyboard_35_n04505470_4844.png
subject-04,1,443,1.19759392738342,bicycle,bicycle,pow,0443_pow_s04_pow_bicycle_35_n02835271_840.png
subject-04,1,444,0.765430927276611,boat,boat,pow,0444_pow_s04_pow_boat_35_n04273569_28992.png
subject-04,1,445,0.945158004760742,dog,dog,pow,0445_pow_s04_pow_dog_35_n02093428_16873.png
subject-04,1,446,1.05096411705017,dog,dog,pow,0446_pow_s04_pow_dog_35_n02096585_1894.png
subject-04,1,447,0.72127103805542,oven,oven,0,0447_pow_s04_0_oven_35_n04111531_19000.png
subject-04,1,448,0.940793037414551,oven,oven,pow,0448_pow_s04_pow_oven_35_n04111531_20591.png
subject-04,1,449,1.05671000480652,airplane,airplane,pow,0449_pow_s04_pow_airplane_35_n02690373_911.png
subject-04,1,450,1.06224393844604,bottle,bottle,0,0450_pow_s04_0_bottle_35_n02823428_1149.png
subject-04,1,451,0.724422931671143,bicycle,bicycle,pow,0451_pow_s04_pow_bicycle_35_n03792782_3357.png
subject-04,1,452,1.04976105690002,dog,dog,pow,0452_pow_s04_pow_dog_35_n02093256_1772.png
subject-04,1,453,0.821778059005737,cat,dog,0,0453_pow_s04_0_dog_35_n02106030_22.png
subject-04,1,454,0.631409883499146,bottle,bottle,0,0454_pow_s04_0_bottle_35_n03983396_2271.png
subject-04,1,455,0.591466903686523,keyboard,keyboard,pow,0455_pow_s04_pow_keyboard_35_n04505470_10191.png
subject-04,1,456,0.691247940063477,clock,clock,pow,0456_pow_s04_pow_clock_35_n02708093_1023.png
subject-04,1,457,1.05096983909607,knife,knife,pow,0457_pow_s04_pow_knife_35_n03041632_9302.png
subject-04,1,458,0.777119874954224,keyboard,keyboard,0,0458_pow_s04_0_keyboard_35_n03085013_23354.png
subject-04,1,459,1.05654907226562,dog,dog,pow,0459_pow_s04_pow_dog_35_n02094258_6800.png
subject-04,1,460,0.816599130630493,dog,dog,0,0460_pow_s04_0_dog_35_n02107683_1934.png
subject-04,1,461,0.946372032165527,bicycle,bicycle,0,0461_pow_s04_0_bicycle_35_n02835271_4534.png
subject-04,1,462,0.580262184143066,oven,oven,0,0462_pow_s04_0_oven_35_n04111531_10306.png
subject-04,1,463,0.488032817840576,clock,clock,pow,0463_pow_s04_pow_clock_35_n04548280_3999.png
subject-04,1,464,0.969944000244141,car,car,0,0464_pow_s04_0_car_35_n04285008_16647.png
subject-04,1,465,0.791614055633545,bird,bird,0,0465_pow_s04_0_bird_35_n01833805_7528.png
subject-04,1,466,0.723197937011719,clock,clock,0,0466_pow_s04_0_clock_35_n03196217_4879.png
subject-04,1,467,1.25310397148132,bear,bear,0,0467_pow_s04_0_bear_35_n02134084_9774.png
subject-04,1,468,1.27912402153015,bottle,bottle,0,0468_pow_s04_0_bottle_35_n04560804_17783.png
subject-04,1,469,0.58881402015686,boat,boat,0,0469_pow_s04_0_boat_35_n03662601_81.png
subject-04,1,470,1.00042605400085,truck,truck,0,0470_pow_s04_0_truck_35_n03417042_27231.png
subject-04,1,471,0.592428922653198,car,car,0,0471_pow_s04_0_car_35_n04285008_7870.png
subject-04,1,472,1.03057098388672,elephant,dog,pow,0472_pow_s04_pow_dog_35_n02104029_54.png
subject-04,1,473,1.19999194145203,chair,chair,pow,0473_pow_s04_pow_chair_35_n04429376_9630.png
subject-04,1,474,1.12798595428467,elephant,chair,pow,0474_pow_s04_pow_chair_35_n03376595_235.png
subject-04,1,475,1.0099310874939,truck,truck,0,0475_pow_s04_0_truck_35_n03796401_15097.png
subject-04,1,476,1.50006890296936,clock,chair,pow,0476_pow_s04_pow_chair_35_n04429376_10438.png
subject-04,1,477,0.733340978622437,clock,clock,0,0477_pow_s04_0_clock_35_n03196217_9786.png
subject-04,1,478,1.14692187309265,dog,dog,pow,0478_pow_s04_pow_dog_35_n02091467_7264.png
subject-04,1,479,0.779017925262451,bear,bear,pow,0479_pow_s04_pow_bear_35_n02134418_848.png
subject-04,1,480,1.19861102104187,airplane,airplane,0,0480_pow_s04_0_airplane_35_n02690373_3729.png
subject-04,1,481,0.54836893081665,boat,boat,pow,0481_pow_s04_pow_boat_35_n02951358_34234.png
subject-04,1,482,0.631688833236694,bicycle,bicycle,0,0482_pow_s04_0_bicycle_35_n02835271_10832.png
subject-04,1,483,1.01341795921326,boat,boat,pow,0483_pow_s04_pow_boat_35_n03662601_7642.png
subject-04,1,484,1.02734279632568,knife,knife,0,0484_pow_s04_0_knife_35_n03041632_16020.png
subject-04,1,485,0.965430974960327,dog,dog,0,0485_pow_s04_0_dog_35_n02105162_1003.png
subject-04,1,486,0.955067157745361,bird,cat,0,0486_pow_s04_0_cat_35_n02125311_2103.png
subject-04,1,487,0.992650985717773,chair,chair,pow,0487_pow_s04_pow_chair_35_n04099969_5577.png
subject-04,1,488,0.660845041275024,boat,elephant,pow,0488_pow_s04_pow_elephant_35_n02504013_7191.png
subject-04,1,489,1.04228901863098,dog,dog,pow,0489_pow_s04_pow_dog_35_n02088364_7145.png
subject-04,1,490,0.656130790710449,keyboard,keyboard,pow,0490_pow_s04_pow_keyboard_35_n03085013_20732.png
subject-04,1,491,1.1799430847168,clock,chair,0,0491_pow_s04_0_chair_35_n04429376_6480.png
subject-04,1,492,1.32783198356628,knife,knife,0,0492_pow_s04_0_knife_35_n03041632_44238.png
subject-04,1,493,0.83971381187439,oven,oven,0,0493_pow_s04_0_oven_35_n04111531_3805.png
subject-04,1,494,0.663339853286743,boat,boat,0,0494_pow_s04_0_boat_35_n03662601_16106.png
subject-04,1,495,1.50008893013,airplane,bird,pow,0495_pow_s04_pow_bird_35_n01537544_9881.png
subject-04,1,496,0.753165006637573,dog,dog,pow,0496_pow_s04_pow_dog_35_n02100583_3987.png
subject-04,1,497,0.871254920959473,bottle,bottle,pow,0497_pow_s04_pow_bottle_35_n03937543_5625.png
subject-04,1,498,1.08272099494934,knife,knife,pow,0498_pow_s04_pow_knife_35_n03041632_94620.png
subject-04,1,499,0.760503053665161,keyboard,keyboard,0,0499_pow_s04_0_keyboard_35_n03085013_20138.png
subject-04,1,500,0.774345874786377,keyboard,keyboard,pow,0500_pow_s04_pow_keyboard_35_n03085013_24374.png
subject-04,1,501,0.812150001525879,elephant,elephant,pow,0501_pow_s04_pow_elephant_35_n02504013_18988.png
subject-04,1,502,0.727871894836426,boat,airplane,pow,0502_pow_s04_pow_airplane_35_n02690373_9264.png
subject-04,1,503,0.687809944152832,bottle,bottle,pow,0503_pow_s04_pow_bottle_35_n03983396_2998.png
subject-04,1,504,0.809650897979736,cat,cat,0,0504_pow_s04_0_cat_35_n02123394_506.png
subject-04,1,505,1.04343295097351,truck,truck,pow,0505_pow_s04_pow_truck_35_n04467665_31539.png
subject-04,1,506,1.25113821029663,boat,oven,pow,0506_pow_s04_pow_oven_35_n04111531_9455.png
subject-04,1,507,0.743003845214844,dog,dog,0,0507_pow_s04_0_dog_35_n02086240_519.png
subject-04,1,508,0.748831033706665,bear,bear,0,0508_pow_s04_0_bear_35_n02132136_8033.png
subject-04,1,509,0.596505165100098,boat,boat,0,0509_pow_s04_0_boat_35_n03662601_18676.png
subject-04,1,510,1.28258800506592,dog,bird,pow,0510_pow_s04_pow_bird_35_n01537544_7301.png
subject-04,1,511,1.43039202690125,elephant,bird,pow,0511_pow_s04_pow_bird_35_n02007558_11331.png
subject-04,1,512,0.706061124801636,boat,boat,pow,0512_pow_s04_pow_boat_35_n04273569_113.png
subject-04,1,513,0.769919157028198,knife,knife,pow,0513_pow_s04_pow_knife_35_n03041632_4494.png
subject-04,1,514,0.627854108810425,bear,bear,pow,0514_pow_s04_pow_bear_35_n02134418_4666.png
subject-04,1,515,0.805485963821411,bear,bear,0,0515_pow_s04_0_bear_35_n02133161_14945.png
subject-04,1,516,0.687256097793579,cat,cat,pow,0516_pow_s04_pow_cat_35_n02124075_3383.png
subject-04,1,517,0.735026836395264,boat,boat,0,0517_pow_s04_0_boat_35_n03662601_13847.png
subject-04,1,518,1.24094915390015,bicycle,bicycle,pow,0518_pow_s04_pow_bicycle_35_n03792782_471.png
subject-04,1,519,0.920839071273804,dog,dog,pow,0519_pow_s04_pow_dog_35_n02105855_3310.png
subject-04,1,520,1.30066180229187,keyboard,boat,pow,0520_pow_s04_pow_boat_35_n04273569_14262.png
subject-04,1,521,0.760743856430054,oven,oven,pow,0521_pow_s04_pow_oven_35_n04111531_8805.png
subject-04,1,522,0.666311979293823,truck,truck,0,0522_pow_s04_0_truck_35_n04467665_2098.png
subject-04,1,523,1.02003598213196,bear,bear,0,0523_pow_s04_0_bear_35_n02134418_2547.png
subject-04,1,524,1.00980019569397,oven,oven,pow,0524_pow_s04_pow_oven_35_n04111531_5967.png
subject-04,1,525,0.899506092071533,dog,dog,0,0525_pow_s04_0_dog_35_n02088632_2321.png
subject-04,1,526,0.955526113510132,cat,cat,0,0526_pow_s04_0_cat_35_n02124075_4189.png
subject-04,1,527,0.767642021179199,bottle,bottle,0,0527_pow_s04_0_bottle_35_n03937543_1680.png
subject-04,1,528,0.697032928466797,oven,oven,0,0528_pow_s04_0_oven_35_n04111531_10476.png
subject-04,1,529,1.24080204963684,oven,oven,0,0529_pow_s04_0_oven_35_n04111531_807.png
subject-04,1,530,0.660572052001953,bird,bird,pow,0530_pow_s04_pow_bird_35_n02025239_15554.png
subject-04,1,531,1.50010299682617,bear,elephant,pow,0531_pow_s04_pow_elephant_35_n02504013_1854.png
subject-04,1,532,0.690366983413696,keyboard,keyboard,0,0532_pow_s04_0_keyboard_35_n03085013_23465.png
subject-04,1,533,1.16454696655273,dog,dog,pow,0533_pow_s04_pow_dog_35_n02099601_447.png
subject-04,1,534,1.40002799034119,chair,knife,pow,0534_pow_s04_pow_knife_35_n03041632_92637.png
subject-04,1,535,0.849890947341919,bear,bear,0,0535_pow_s04_0_bear_35_n02133161_2044.png
subject-04,1,536,0.905724048614502,knife,knife,0,0536_pow_s04_0_knife_35_n03041632_22241.png
subject-04,1,537,0.625419139862061,oven,knife,pow,0537_pow_s04_pow_knife_35_n03041632_36789.png
subject-04,1,538,0.771181106567383,bird,bird,0,0538_pow_s04_0_bird_35_n01817953_31391.png
subject-04,1,539,0.663048028945923,truck,truck,0,0539_pow_s04_0_truck_35_n03417042_15893.png
subject-04,1,540,0.808872938156128,airplane,airplane,pow,0540_pow_s04_pow_airplane_35_n02690373_8461.png
subject-04,1,541,0.666620016098022,truck,truck,0,0541_pow_s04_0_truck_35_n03796401_322.png
subject-04,1,542,1.0665340423584,truck,oven,pow,0542_pow_s04_pow_oven_35_n04111531_23668.png
subject-04,1,543,0.700349807739258,boat,boat,pow,0543_pow_s04_pow_boat_35_n02951358_912.png
subject-04,1,544,1.04799294471741,dog,dog,pow,0544_pow_s04_pow_dog_35_n02100735_10683.png
subject-04,1,545,0.62417197227478,clock,clock,pow,0545_pow_s04_pow_clock_35_n02708093_3755.png
subject-04,1,546,0.827680826187134,bear,bear,pow,0546_pow_s04_pow_bear_35_n02132136_31257.png
subject-04,1,547,0.943630933761597,bottle,bottle,pow,0547_pow_s04_pow_bottle_35_n02823428_3328.png
subject-04,1,548,1.03542613983154,bird,bird,pow,0548_pow_s04_pow_bird_35_n01532829_15193.png
subject-04,1,549,0.897161960601807,elephant,elephant,pow,0549_pow_s04_pow_elephant_35_n02504013_1081.png
subject-04,1,550,0.951267004013062,boat,boat,0,0550_pow_s04_0_boat_35_n03344393_8380.png
subject-04,1,551,0.890554189682007,car,car,pow,0551_pow_s04_pow_car_35_n03100240_3874.png
subject-04,1,552,0.642524003982544,bottle,bottle,pow,0552_pow_s04_pow_bottle_35_n03937543_11347.png
subject-04,1,553,0.828455924987793,clock,clock,0,0553_pow_s04_0_clock_35_n04548280_7135.png
subject-04,1,554,1.38048100471497,car,car,pow,0554_pow_s04_pow_car_35_n04285008_2185.png
subject-04,1,555,1.35029816627502,oven,oven,0,0555_pow_s04_0_oven_35_n04111531_1725.png
subject-04,1,556,0.565680980682373,clock,clock,0,0556_pow_s04_0_clock_35_n04548280_16378.png
subject-04,1,557,0.705533981323242,bottle,bottle,0,0557_pow_s04_0_bottle_35_n04591713_5129.png
subject-04,1,558,0.853352069854736,elephant,elephant,pow,0558_pow_s04_pow_elephant_35_n02504013_7467.png
subject-04,1,559,1.50001883506775,car,car,pow,0559_pow_s04_pow_car_35_n02814533_40876.png
subject-04,1,560,1.0011739730835,truck,truck,pow,0560_pow_s04_pow_truck_35_n04467665_8824.png
subject-04,1,561,1.15163421630859,keyboard,keyboard,pow,0561_pow_s04_pow_keyboard_35_n03085013_17937.png
subject-04,1,562,0.561560153961182,knife,knife,0,0562_pow_s04_0_knife_35_n03041632_31483.png
subject-04,1,563,0.85169506072998,elephant,elephant,0,0563_pow_s04_0_elephant_35_n02504013_306.png
subject-04,1,564,0.973289966583252,cat,cat,0,0564_pow_s04_0_cat_35_n02123394_4286.png
subject-04,1,565,0.593271017074585,oven,oven,0,0565_pow_s04_0_oven_35_n04111531_5110.png
subject-04,1,566,0.577311992645264,keyboard,keyboard,0,0566_pow_s04_0_keyboard_35_n03085013_22996.png
subject-04,1,567,0.622623205184937,bear,bear,0,0567_pow_s04_0_bear_35_n02132136_891.png
subject-04,1,568,0.876590967178345,bicycle,bicycle,pow,0568_pow_s04_pow_bicycle_35_n03792782_56250.png
subject-04,1,569,0.570247173309326,boat,boat,pow,0569_pow_s04_pow_boat_35_n04273569_15625.png
subject-04,1,570,0.756402015686035,boat,boat,0,0570_pow_s04_0_boat_35_n03662601_13754.png
subject-04,1,571,0.774120092391968,boat,truck,0,0571_pow_s04_0_truck_35_n03417042_4934.png
subject-04,1,572,0.615740060806274,keyboard,keyboard,pow,0572_pow_s04_pow_keyboard_35_n03085013_8364.png
subject-04,1,573,0.97343111038208,clock,clock,pow,0573_pow_s04_pow_clock_35_n03196217_3104.png
subject-04,1,574,1.04731202125549,airplane,airplane,0,0574_pow_s04_0_airplane_35_n02690373_306.png
subject-04,1,575,0.945698976516724,car,car,0,0575_pow_s04_0_car_35_n04285008_8616.png
subject-04,1,576,0.835047006607056,clock,chair,pow,0576_pow_s04_pow_chair_35_n02791124_16085.png
subject-04,1,577,0.7427659034729,keyboard,keyboard,pow,0577_pow_s04_pow_keyboard_35_n04505470_1253.png
subject-04,1,578,1.2443950176239,car,car,0,0578_pow_s04_0_car_35_n04285008_8052.png
subject-04,1,579,0.688488006591797,bottle,bottle,0,0579_pow_s04_0_bottle_35_n03983396_24837.png
subject-04,1,580,1.10811114311218,chair,chair,0,0580_pow_s04_0_chair_35_n03376595_10881.png
subject-04,1,581,0.996056795120239,chair,chair,pow,0581_pow_s04_pow_chair_35_n03376595_11661.png
subject-04,1,582,0.751834154129028,knife,knife,0,0582_pow_s04_0_knife_35_n03041632_30196.png
subject-04,1,583,0.625639915466309,chair,chair,0,0583_pow_s04_0_chair_35_n03376595_7660.png
subject-04,1,584,0.775534868240356,bottle,bottle,pow,0584_pow_s04_pow_bottle_35_n02823428_6250.png
subject-04,1,585,0.765229940414429,boat,boat,0,0585_pow_s04_0_boat_35_n03662601_2120.png
subject-04,1,586,0.632904052734375,keyboard,keyboard,0,0586_pow_s04_0_keyboard_35_n03085013_23658.png
subject-04,1,587,1.32118105888367,bicycle,bicycle,pow,0587_pow_s04_pow_bicycle_35_n03792782_4830.png
subject-04,1,588,0.904838085174561,bicycle,bicycle,pow,0588_pow_s04_pow_bicycle_35_n03792782_20190.png
subject-04,1,589,1.11264801025391,cat,cat,0,0589_pow_s04_0_cat_35_n02123394_1997.png
subject-04,1,590,0.674314975738525,bear,bear,pow,0590_pow_s04_pow_bear_35_n02132136_10352.png
subject-04,1,591,0.958395004272461,airplane,airplane,pow,0591_pow_s04_pow_airplane_35_n02690373_2433.png
subject-04,1,592,1.29394793510437,bicycle,bicycle,pow,0592_pow_s04_pow_bicycle_35_n02835271_747.png
subject-04,1,593,0.771679878234863,boat,boat,pow,0593_pow_s04_pow_boat_35_n04273569_23293.png
subject-04,1,594,NaN,na,car,pow,0594_pow_s04_pow_car_35_n04285008_10287.png
subject-04,1,595,1.50009298324585,airplane,airplane,0,0595_pow_s04_0_airplane_35_n02690373_5126.png
subject-04,1,596,1.08731317520142,oven,oven,0,0596_pow_s04_0_oven_35_n04111531_13172.png
subject-04,1,597,0.914949893951416,cat,cat,0,0597_pow_s04_0_cat_35_n02123045_939.png
subject-04,1,598,0.72698712348938,knife,knife,0,0598_pow_s04_0_knife_35_n03041632_29355.png
subject-04,1,599,1.21065902709961,cat,knife,pow,0599_pow_s04_pow_knife_35_n03041632_94995.png
subject-04,1,600,1.36452889442444,elephant,elephant,0,0600_pow_s04_0_elephant_35_n02504458_6079.png
subject-04,1,601,0.862257957458496,cat,dog,pow,0601_pow_s04_pow_dog_35_n02110063_6748.png
subject-04,1,602,0.807976007461548,chair,chair,0,0602_pow_s04_0_chair_35_n03376595_7772.png
subject-04,1,603,0.924010992050171,dog,dog,0,0603_pow_s04_0_dog_35_n02088364_5801.png
subject-04,1,604,1.33001708984375,bird,bird,0,0604_pow_s04_0_bird_35_n01537544_292.png
subject-04,1,605,0.92165994644165,oven,knife,0,0605_pow_s04_0_knife_35_n03041632_37274.png
subject-04,1,606,0.759263038635254,chair,chair,0,0606_pow_s04_0_chair_35_n04099969_16079.png
subject-04,1,607,0.976989030838013,bottle,bottle,0,0607_pow_s04_0_bottle_35_n02823428_5850.png
subject-04,1,608,0.698879957199097,bottle,bottle,pow,0608_pow_s04_pow_bottle_35_n04579145_2999.png
subject-04,1,609,1.50006198883057,elephant,elephant,pow,0609_pow_s04_pow_elephant_35_n02504458_3616.png
subject-04,1,610,0.556679010391235,cat,cat,0,0610_pow_s04_0_cat_35_n02123045_12010.png
subject-04,1,611,1.01838397979736,oven,oven,0,0611_pow_s04_0_oven_35_n04111531_4585.png
subject-04,1,612,1.04012393951416,oven,boat,pow,0612_pow_s04_pow_boat_35_n04612504_12657.png
subject-04,1,613,1.30394101142883,car,clock,0,0613_pow_s04_0_clock_35_n03196217_6467.png
subject-04,1,614,0.779822826385498,car,car,pow,0614_pow_s04_pow_car_35_n03100240_10502.png
subject-04,1,615,0.949550151824951,dog,dog,0,0615_pow_s04_0_dog_35_n02104365_3004.png
subject-04,1,616,0.817361116409302,airplane,airplane,pow,0616_pow_s04_pow_airplane_35_n02690373_10931.png
subject-04,1,617,1.16118597984314,cat,bird,pow,0617_pow_s04_pow_bird_35_n01796340_9255.png
subject-04,1,618,0.779193878173828,knife,keyboard,pow,0618_pow_s04_pow_keyboard_35_n03085013_24793.png
subject-04,1,619,0.637067079544067,bird,bird,pow,0619_pow_s04_pow_bird_35_n01582220_2882.png
subject-04,1,620,1.440673828125,bicycle,bicycle,pow,0620_pow_s04_pow_bicycle_35_n03792782_8172.png
subject-04,1,621,0.922389030456543,boat,boat,pow,0621_pow_s04_pow_boat_35_n02951358_28889.png
subject-04,1,622,0.722606897354126,cat,dog,0,0622_pow_s04_0_dog_35_n02094258_654.png
subject-04,1,623,0.922224998474121,keyboard,knife,pow,0623_pow_s04_pow_knife_35_n03041632_85416.png
subject-04,1,624,1.05004215240479,bottle,bottle,0,0624_pow_s04_0_bottle_35_n03983396_10013.png
subject-04,1,625,0.86782693862915,airplane,airplane,pow,0625_pow_s04_pow_airplane_35_n02690373_5465.png
subject-04,1,626,0.78147292137146,bear,bear,0,0626_pow_s04_0_bear_35_n02134084_11187.png
subject-04,1,627,0.781368017196655,oven,oven,0,0627_pow_s04_0_oven_35_n04111531_19631.png
subject-04,1,628,0.811463117599487,boat,boat,pow,0628_pow_s04_pow_boat_35_n03344393_8407.png
subject-04,1,629,0.661041021347046,bottle,bottle,pow,0629_pow_s04_pow_bottle_35_n03983396_16742.png
subject-04,1,630,0.630804061889648,keyboard,keyboard,0,0630_pow_s04_0_keyboard_35_n04505470_751.png
subject-04,1,631,0.966993808746338,bird,bird,pow,0631_pow_s04_pow_bird_35_n01614925_5578.png
subject-04,1,632,0.864437103271484,elephant,elephant,0,0632_pow_s04_0_elephant_35_n02504013_18498.png
subject-04,1,633,0.662373065948486,bear,bear,0,0633_pow_s04_0_bear_35_n02134418_559.png
subject-04,1,634,1.17990899085999,clock,oven,pow,0634_pow_s04_pow_oven_35_n04111531_2462.png
subject-04,1,635,0.925874948501587,bear,elephant,pow,0635_pow_s04_pow_elephant_35_n02504458_8254.png
subject-04,1,636,1.25968384742737,bicycle,bicycle,0,0636_pow_s04_0_bicycle_35_n03792782_13399.png
subject-04,1,637,0.625396013259888,clock,clock,pow,0637_pow_s04_pow_clock_35_n04548280_1106.png
subject-04,1,638,1.49532508850098,bottle,knife,pow,0638_pow_s04_pow_knife_35_n03041632_84048.png
subject-04,1,639,1.33919501304626,elephant,oven,pow,0639_pow_s04_pow_oven_35_n04111531_892.png
subject-04,1,640,0.866947889328003,keyboard,keyboard,0,0640_pow_s04_0_keyboard_35_n03085013_19607.png
subject-04,1,641,0.64881706237793,bird,bird,0,0641_pow_s04_0_bird_35_n02009229_8793.png
subject-04,1,642,0.954555988311768,boat,boat,pow,0642_pow_s04_pow_boat_35_n03344393_8258.png
subject-04,1,643,0.852506875991821,truck,truck,0,0643_pow_s04_0_truck_35_n03417042_17888.png
subject-04,1,644,1.20254492759705,elephant,elephant,0,0644_pow_s04_0_elephant_35_n02504458_568.png
subject-04,1,645,0.583706140518188,bicycle,bicycle,pow,0645_pow_s04_pow_bicycle_35_n02835271_3767.png
subject-04,1,646,1.15603804588318,bird,bird,0,0646_pow_s04_0_bird_35_n02051845_6652.png
subject-04,1,647,0.871624946594238,knife,knife,pow,0647_pow_s04_pow_knife_35_n03041632_44019.png
subject-04,1,648,1.23761892318726,elephant,elephant,0,0648_pow_s04_0_elephant_35_n02504013_5087.png
subject-04,1,649,0.645374059677124,bear,bear,0,0649_pow_s04_0_bear_35_n02134084_19791.png
subject-04,1,650,0.891016960144043,elephant,elephant,0,0650_pow_s04_0_elephant_35_n02504458_3250.png
subject-04,1,651,0.812946081161499,cat,cat,pow,0651_pow_s04_pow_cat_35_n02125311_8963.png
subject-04,1,652,1.22662615776062,elephant,elephant,0,0652_pow_s04_0_elephant_35_n02504013_7232.png
subject-04,1,653,0.818583011627197,keyboard,keyboard,0,0653_pow_s04_0_keyboard_35_n04505470_5902.png
subject-04,1,654,0.848189115524292,bird,bird,0,0654_pow_s04_0_bird_35_n02056570_5891.png
subject-04,1,655,0.99839186668396,bear,bear,0,0655_pow_s04_0_bear_35_n02133161_1360.png
subject-04,1,656,0.692018032073975,cat,cat,pow,0656_pow_s04_pow_cat_35_n02123394_2448.png
subject-04,1,657,0.745728015899658,car,car,0,0657_pow_s04_0_car_35_n03100240_8483.png
subject-04,1,658,0.775341987609863,cat,cat,0,0658_pow_s04_0_cat_35_n02123159_6927.png
subject-04,1,659,1.15527606010437,bottle,bottle,0,0659_pow_s04_0_bottle_35_n04560804_3801.png
subject-04,1,660,1.3111720085144,cat,dog,0,0660_pow_s04_0_dog_35_n02093754_4677.png
subject-04,1,661,0.686958074569702,dog,dog,0,0661_pow_s04_0_dog_35_n02099601_11986.png
subject-04,1,662,1.01268100738525,dog,dog,0,0662_pow_s04_0_dog_35_n02112706_3099.png
subject-04,1,663,0.994369029998779,bear,bear,pow,0663_pow_s04_pow_bear_35_n02134418_4452.png
subject-04,1,664,0.724596977233887,bird,bird,0,0664_pow_s04_0_bird_35_n01843383_2122.png
subject-04,1,665,0.644286155700684,boat,boat,pow,0665_pow_s04_pow_boat_35_n04612504_10662.png
subject-04,1,666,0.598094940185547,bear,bear,0,0666_pow_s04_0_bear_35_n02134084_18372.png
subject-04,1,667,0.769834995269775,airplane,airplane,pow,0667_pow_s04_pow_airplane_35_n02690373_4471.png
subject-04,1,668,0.639562129974365,bear,bear,0,0668_pow_s04_0_bear_35_n02134418_261.png
subject-04,1,669,1.06324887275696,boat,boat,pow,0669_pow_s04_pow_boat_35_n02951358_16261.png
subject-04,1,670,1.17953991889954,clock,clock,pow,0670_pow_s04_pow_clock_35_n04548280_4473.png
subject-04,1,671,1.29696702957153,knife,knife,pow,0671_pow_s04_pow_knife_35_n03041632_22214.png
subject-04,1,672,0.673013925552368,chair,chair,pow,0672_pow_s04_pow_chair_35_n04099969_7934.png
subject-04,1,673,0.712682962417603,bicycle,bicycle,0,0673_pow_s04_0_bicycle_35_n02835271_5196.png
subject-04,1,674,1.25847291946411,airplane,airplane,pow,0674_pow_s04_pow_airplane_35_n02690373_2498.png
subject-04,1,675,0.750150918960571,dog,dog,0,0675_pow_s04_0_dog_35_n02109047_17100.png
subject-04,1,676,0.961929082870483,truck,truck,pow,0676_pow_s04_pow_truck_35_n04467665_37935.png
subject-04,1,677,0.714328050613403,boat,boat,0,0677_pow_s04_0_boat_35_n02951358_30149.png
subject-04,1,678,0.667859792709351,bottle,bottle,pow,0678_pow_s04_pow_bottle_35_n04557648_2282.png
subject-04,1,679,NaN,na,bottle,pow,0679_pow_s04_pow_bottle_35_n03937543_2177.png
subject-04,1,680,0.70357084274292,clock,clock,pow,0680_pow_s04_pow_clock_35_n04548280_6411.png
subject-04,1,681,0.719337940216064,airplane,airplane,pow,0681_pow_s04_pow_airplane_35_n02690373_2147.png
subject-04,1,682,0.831089019775391,elephant,elephant,pow,0682_pow_s04_pow_elephant_35_n02504013_21616.png
subject-04,1,683,1.04078817367554,bear,oven,0,0683_pow_s04_0_oven_35_n04111531_12843.png
subject-04,1,684,0.930447101593018,airplane,airplane,0,0684_pow_s04_0_airplane_35_n02690373_7276.png
subject-04,1,685,1.34247899055481,clock,cat,0,0685_pow_s04_0_cat_35_n02125311_27218.png
subject-04,1,686,0.848181962966919,bottle,bottle,0,0686_pow_s04_0_bottle_35_n02823428_2007.png
subject-04,1,687,0.918159961700439,bicycle,bicycle,0,0687_pow_s04_0_bicycle_35_n03792782_1424.png
subject-04,1,688,0.771754026412964,elephant,elephant,pow,0688_pow_s04_pow_elephant_35_n02504458_5444.png
subject-04,1,689,1.07766795158386,dog,dog,0,0689_pow_s04_0_dog_35_n02106550_4880.png
subject-04,1,690,0.877445936203003,bird,bird,pow,0690_pow_s04_pow_bird_35_n01855672_8550.png
subject-04,1,691,0.857431888580322,airplane,airplane,pow,0691_pow_s04_pow_airplane_35_n02690373_3269.png
subject-04,1,692,1.24514198303223,oven,oven,pow,0692_pow_s04_pow_oven_35_n04111531_6955.png
subject-04,1,693,1.20689296722412,bird,bear,0,0693_pow_s04_0_bear_35_n02134084_14168.png
subject-04,1,694,0.816689014434814,oven,oven,pow,0694_pow_s04_pow_oven_35_n04111531_14441.png
subject-04,1,695,0.730829000473022,car,car,0,0695_pow_s04_0_car_35_n02814533_79224.png
subject-04,1,696,0.744421005249023,clock,clock,0,0696_pow_s04_0_clock_35_n03196217_5907.png
subject-04,1,697,0.988345146179199,truck,truck,0,0697_pow_s04_0_truck_35_n03417042_3659.png
subject-04,1,698,0.928003072738647,bicycle,bicycle,pow,0698_pow_s04_pow_bicycle_35_n03792782_6735.png
subject-04,1,699,1.08377885818481,airplane,airplane,0,0699_pow_s04_0_airplane_35_n02690373_7281.png
subject-04,1,700,1.22610306739807,elephant,bird,pow,0700_pow_s04_pow_bird_35_n01532829_3914.png
subject-04,1,701,1.20160007476807,airplane,airplane,0,0701_pow_s04_0_airplane_35_n02690373_10404.png
subject-04,1,702,1.03723812103271,dog,dog,0,0702_pow_s04_0_dog_35_n02085936_1706.png
subject-04,1,703,1.29896116256714,dog,dog,pow,0703_pow_s04_pow_dog_35_n02105641_6742.png
subject-04,1,704,1.22496199607849,clock,bottle,0,0704_pow_s04_0_bottle_35_n04579145_2202.png
subject-04,1,705,0.74718713760376,cat,cat,0,0705_pow_s04_0_cat_35_n02123045_9907.png
subject-04,1,706,1.09857511520386,bird,bird,0,0706_pow_s04_0_bird_35_n02051845_539.png
subject-04,1,707,1.05818319320679,keyboard,keyboard,0,0707_pow_s04_0_keyboard_35_n03085013_19759.png
subject-04,1,708,0.770507097244263,bottle,bottle,0,0708_pow_s04_0_bottle_35_n03983396_11632.png
subject-04,1,709,0.941864013671875,truck,truck,pow,0709_pow_s04_pow_truck_35_n03417042_15903.png
subject-04,1,710,0.989656925201416,cat,cat,pow,0710_pow_s04_pow_cat_35_n02123159_5170.png
subject-04,1,711,0.87384295463562,chair,chair,pow,0711_pow_s04_pow_chair_35_n03376595_14619.png
subject-04,1,712,1.42132616043091,truck,truck,pow,0712_pow_s04_pow_truck_35_n03417042_18625.png
subject-04,1,713,0.567209959030151,clock,clock,pow,0713_pow_s04_pow_clock_35_n04548280_4739.png
subject-04,1,714,0.725075006484985,keyboard,keyboard,0,0714_pow_s04_0_keyboard_35_n03085013_19343.png
subject-04,1,715,1.00669384002686,truck,truck,0,0715_pow_s04_0_truck_35_n03417042_27966.png
subject-04,1,716,1.10251402854919,truck,truck,pow,0716_pow_s04_pow_truck_35_n03417042_26102.png
subject-04,1,717,0.924558877944946,truck,truck,0,0717_pow_s04_0_truck_35_n04467665_72639.png
subject-04,1,718,1.18833899497986,elephant,elephant,pow,0718_pow_s04_pow_elephant_35_n02504013_1830.png
subject-04,1,719,0.827991008758545,keyboard,keyboard,0,0719_pow_s04_0_keyboard_35_n03085013_24522.png
subject-04,1,720,0.907903909683228,bicycle,bicycle,pow,0720_pow_s04_pow_bicycle_35_n03792782_51296.png
subject-04,1,721,0.779803991317749,boat,boat,0,0721_pow_s04_0_boat_35_n03662601_4059.png
subject-04,1,722,0.80305814743042,keyboard,keyboard,0,0722_pow_s04_0_keyboard_35_n03085013_23086.png
subject-04,1,723,0.907119035720825,dog,dog,0,0723_pow_s04_0_dog_35_n02099601_2980.png
subject-04,1,724,0.896759033203125,truck,truck,0,0724_pow_s04_0_truck_35_n03417042_4574.png
subject-04,1,725,1.19258689880371,knife,knife,pow,0725_pow_s04_pow_knife_35_n03041632_29276.png
subject-04,1,726,0.88641619682312,truck,truck,pow,0726_pow_s04_pow_truck_35_n04467665_3433.png
subject-04,1,727,1.0602400302887,dog,bear,pow,0727_pow_s04_pow_bear_35_n02134418_904.png
subject-04,1,728,1.03001403808594,oven,chair,0,0728_pow_s04_0_chair_35_n04429376_31206.png
subject-04,1,729,0.608048915863037,clock,clock,0,0729_pow_s04_0_clock_35_n04548280_280.png
subject-04,1,730,1.35766291618347,bicycle,bear,0,0730_pow_s04_0_bear_35_n02132136_10654.png
subject-04,1,731,0.653640985488892,boat,boat,0,0731_pow_s04_0_boat_35_n02951358_2537.png
subject-04,1,732,1.39760303497314,bicycle,bicycle,0,0732_pow_s04_0_bicycle_35_n03792782_10395.png
subject-04,1,733,0.779508113861084,oven,oven,pow,0733_pow_s04_pow_oven_35_n04111531_14269.png
subject-04,1,734,0.812970161437988,car,car,0,0734_pow_s04_0_car_35_n03100240_17108.png
subject-04,1,735,1.39871287345886,bear,bear,pow,0735_pow_s04_pow_bear_35_n02132136_30306.png
subject-04,1,736,1.2805609703064,airplane,clock,pow,0736_pow_s04_pow_clock_35_n04548280_2654.png
subject-04,1,737,1.02034902572632,car,car,pow,0737_pow_s04_pow_car_35_n02814533_46997.png
subject-04,1,738,0.794209003448486,boat,boat,0,0738_pow_s04_0_boat_35_n02951358_29779.png
subject-04,1,739,1.24192976951599,elephant,bird,pow,0739_pow_s04_pow_bird_35_n01818515_10185.png
subject-04,1,740,0.884124994277954,keyboard,keyboard,0,0740_pow_s04_0_keyboard_35_n04505470_4515.png
subject-04,1,741,0.791841983795166,airplane,airplane,pow,0741_pow_s04_pow_airplane_35_n02690373_4225.png
subject-04,1,742,1.11160397529602,boat,bear,pow,0742_pow_s04_pow_bear_35_n02134418_5684.png
subject-04,1,743,0.879204988479614,bicycle,bicycle,0,0743_pow_s04_0_bicycle_35_n02835271_24131.png
subject-04,1,744,1.2169668674469,keyboard,keyboard,pow,0744_pow_s04_pow_keyboard_35_n03085013_29452.png
subject-04,1,745,1.48900389671326,keyboard,keyboard,pow,0745_pow_s04_pow_keyboard_35_n03085013_22713.png
subject-04,1,746,0.786699056625366,airplane,airplane,pow,0746_pow_s04_pow_airplane_35_n02690373_4320.png
subject-04,1,747,0.638606071472168,oven,oven,pow,0747_pow_s04_pow_oven_35_n04111531_19240.png
subject-04,1,748,0.740221977233887,bear,bear,0,0748_pow_s04_0_bear_35_n02134084_21207.png
subject-04,1,749,1.06808590888977,airplane,bicycle,pow,0749_pow_s04_pow_bicycle_35_n02835271_2315.png
subject-04,1,750,0.895939111709595,bicycle,bicycle,pow,0750_pow_s04_pow_bicycle_35_n03792782_5034.png
subject-04,1,751,1.50004816055298,elephant,knife,pow,0751_pow_s04_pow_knife_35_n03041632_102764.png
subject-04,1,752,0.88771390914917,truck,truck,pow,0752_pow_s04_pow_truck_35_n03417042_6608.png
subject-04,1,753,0.997380018234253,cat,truck,0,0753_pow_s04_0_truck_35_n03417042_213.png
subject-04,1,754,0.769197225570679,bear,bear,pow,0754_pow_s04_pow_bear_35_n02134084_17218.png
subject-04,1,755,0.918949127197266,cat,cat,0,0755_pow_s04_0_cat_35_n02123045_3505.png
subject-04,1,756,NaN,na,truck,pow,0756_pow_s04_pow_truck_35_n04467665_6626.png
subject-04,1,757,0.902814865112305,cat,cat,0,0757_pow_s04_0_cat_35_n02125311_28447.png
subject-04,1,758,0.882465839385986,knife,knife,0,0758_pow_s04_0_knife_35_n03041632_6575.png
subject-04,1,759,0.832343101501465,chair,chair,pow,0759_pow_s04_pow_chair_35_n02791124_28.png
subject-04,1,760,0.785982131958008,boat,boat,0,0760_pow_s04_0_boat_35_n04273569_19796.png
subject-04,1,761,0.969909906387329,keyboard,keyboard,pow,0761_pow_s04_pow_keyboard_35_n03085013_22669.png
subject-04,1,762,0.693709135055542,bear,bear,pow,0762_pow_s04_pow_bear_35_n02134418_5830.png
subject-04,1,763,0.589916944503784,knife,knife,0,0763_pow_s04_0_knife_35_n03041632_46720.png
subject-04,1,764,1.11348414421082,bicycle,bicycle,0,0764_pow_s04_0_bicycle_35_n03792782_12751.png
subject-04,1,765,1.17507004737854,chair,chair,pow,0765_pow_s04_pow_chair_35_n03376595_9048.png
subject-04,1,766,0.92294716835022,oven,oven,pow,0766_pow_s04_pow_oven_35_n04111531_12702.png
subject-04,1,767,0.656734943389893,bicycle,bicycle,0,0767_pow_s04_0_bicycle_35_n02835271_22263.png
subject-04,1,768,0.976568937301636,airplane,airplane,0,0768_pow_s04_0_airplane_35_n02690373_4873.png
subject-04,1,769,0.850368976593018,clock,clock,pow,0769_pow_s04_pow_clock_35_n02708093_687.png
subject-04,1,770,0.812172889709473,cat,cat,0,0770_pow_s04_0_cat_35_n02125311_53223.png
subject-04,1,771,1.17003798484802,bird,bird,0,0771_pow_s04_0_bird_35_n01616318_1935.png
subject-04,1,772,0.989847898483276,dog,dog,0,0772_pow_s04_0_dog_35_n02088238_8653.png
subject-04,1,773,1.05169606208801,elephant,elephant,pow,0773_pow_s04_pow_elephant_35_n02504458_5320.png
subject-04,1,774,0.733444929122925,clock,clock,pow,0774_pow_s04_pow_clock_35_n02708093_3645.png
subject-04,1,775,0.831272125244141,airplane,airplane,0,0775_pow_s04_0_airplane_35_n02690373_1206.png
subject-04,1,776,0.955025196075439,bird,bird,pow,0776_pow_s04_pow_bird_35_n02002556_12696.png
subject-04,1,777,1.2768030166626,bicycle,bicycle,pow,0777_pow_s04_pow_bicycle_35_n03792782_12885.png
subject-04,1,778,0.946771860122681,chair,truck,pow,0778_pow_s04_pow_truck_35_n03417042_9610.png
subject-04,1,779,0.688678979873657,boat,boat,pow,0779_pow_s04_pow_boat_35_n02951358_5064.png
subject-04,1,780,0.844309091567993,bear,bear,pow,0780_pow_s04_pow_bear_35_n02134084_22032.png
subject-04,1,781,0.902132034301758,bicycle,bicycle,pow,0781_pow_s04_pow_bicycle_35_n02835271_13234.png
subject-04,1,782,0.804115056991577,bear,dog,pow,0782_pow_s04_pow_dog_35_n02100735_3553.png
subject-04,1,783,0.78774094581604,boat,boat,pow,0783_pow_s04_pow_boat_35_n03344393_5798.png
subject-04,1,784,0.723433971405029,bicycle,bicycle,pow,0784_pow_s04_pow_bicycle_35_n03792782_4167.png
subject-04,1,785,0.939296007156372,bird,bird,0,0785_pow_s04_0_bird_35_n01534433_4900.png
subject-04,1,786,0.783287048339844,airplane,airplane,0,0786_pow_s04_0_airplane_35_n02690373_9165.png
subject-04,1,787,0.764884948730469,keyboard,keyboard,0,0787_pow_s04_0_keyboard_35_n04505470_8937.png
subject-04,1,788,1.11878204345703,bicycle,bear,pow,0788_pow_s04_pow_bear_35_n02133161_1309.png
subject-04,1,789,0.946974039077759,clock,clock,pow,0789_pow_s04_pow_clock_35_n02708093_148.png
subject-04,1,790,1.50003004074097,bear,bear,0,0790_pow_s04_0_bear_35_n02132136_10979.png
subject-04,1,791,0.952613830566406,truck,truck,pow,0791_pow_s04_pow_truck_35_n04467665_3411.png
subject-04,1,792,0.903987884521484,bird,bird,pow,0792_pow_s04_pow_bird_35_n01534433_11695.png
subject-04,1,793,0.747811079025269,dog,dog,pow,0793_pow_s04_pow_dog_35_n02102040_312.png
subject-04,1,794,0.84375,cat,cat,pow,0794_pow_s04_pow_cat_35_n02125311_40746.png
subject-04,1,795,1.05752992630005,airplane,airplane,pow,0795_pow_s04_pow_airplane_35_n02690373_1819.png
subject-04,1,796,0.909824132919312,car,car,0,0796_pow_s04_0_car_35_n02814533_4374.png
subject-04,1,797,0.883219957351685,clock,clock,pow,0797_pow_s04_pow_clock_35_n04548280_5189.png
subject-04,1,798,0.864908933639526,bird,cat,pow,0798_pow_s04_pow_cat_35_n02123159_4952.png
subject-04,1,799,0.530893087387085,clock,clock,0,0799_pow_s04_0_clock_35_n02708093_2498.png
subject-04,1,800,1.17072415351868,car,car,0,0800_pow_s04_0_car_35_n03100240_9150.png
subject-04,1,801,0.895251989364624,bottle,bottle,0,0801_pow_s04_0_bottle_35_n03983396_17636.png
subject-04,1,802,1.02091217041016,chair,chair,pow,0802_pow_s04_pow_chair_35_n02791124_15457.png
subject-04,1,803,0.732649087905884,cat,cat,pow,0803_pow_s04_pow_cat_35_n02123597_6370.png
subject-04,1,804,0.592598915100098,truck,truck,0,0804_pow_s04_0_truck_35_n03796401_5873.png
subject-04,1,805,1.16444492340088,airplane,airplane,pow,0805_pow_s04_pow_airplane_35_n02690373_1071.png
subject-04,1,806,0.690681934356689,airplane,airplane,pow,0806_pow_s04_pow_airplane_35_n02690373_5277.png
subject-04,1,807,1.2561240196228,bottle,bottle,0,0807_pow_s04_0_bottle_35_n04560804_8921.png
subject-04,1,808,0.603847026824951,bicycle,bicycle,0,0808_pow_s04_0_bicycle_35_n02835271_18537.png
subject-04,1,809,1.47773385047913,airplane,oven,0,0809_pow_s04_0_oven_35_n04111531_1050.png
subject-04,1,810,1.09356904029846,truck,truck,pow,0810_pow_s04_pow_truck_35_n04467665_45611.png
subject-04,1,811,0.627259016036987,bicycle,bicycle,pow,0811_pow_s04_pow_bicycle_35_n03792782_6023.png
subject-04,1,812,1.5000319480896,bird,clock,pow,0812_pow_s04_pow_clock_35_n03196217_3362.png
subject-04,1,813,0.503046035766602,boat,boat,0,0813_pow_s04_0_boat_35_n04612504_18536.png
subject-04,1,814,0.836718082427979,chair,chair,pow,0814_pow_s04_pow_chair_35_n03376595_9651.png
subject-04,1,815,0.830674886703491,airplane,airplane,pow,0815_pow_s04_pow_airplane_35_n02690373_4578.png
subject-04,1,816,0.964609861373901,chair,chair,pow,0816_pow_s04_pow_chair_35_n02791124_16913.png
subject-04,1,817,0.706622123718262,bird,bird,pow,0817_pow_s04_pow_bird_35_n01829413_943.png
subject-04,1,818,0.807967185974121,bird,bird,0,0818_pow_s04_0_bird_35_n02006656_4031.png
subject-04,1,819,0.899707794189453,elephant,elephant,0,0819_pow_s04_0_elephant_35_n02504458_7841.png
subject-04,1,820,0.835594177246094,airplane,knife,0,0820_pow_s04_0_knife_35_n03041632_32785.png
subject-04,1,821,0.74130392074585,keyboard,chair,pow,0821_pow_s04_pow_chair_35_n03376595_360.png
subject-04,1,822,1.15508604049683,chair,chair,0,0822_pow_s04_0_chair_35_n04099969_13105.png
subject-04,1,823,0.912905931472778,bear,bear,pow,0823_pow_s04_pow_bear_35_n02133161_10441.png
subject-04,1,824,1.05673813819885,bear,bird,pow,0824_pow_s04_pow_bird_35_n01614925_8653.png
subject-04,1,825,0.780613899230957,car,car,pow,0825_pow_s04_pow_car_35_n02814533_61184.png
subject-04,1,826,1.06438302993774,truck,truck,0,0826_pow_s04_0_truck_35_n03796401_3326.png
subject-04,1,827,1.46429491043091,elephant,elephant,pow,0827_pow_s04_pow_elephant_35_n02504458_2888.png
subject-04,1,828,0.914376974105835,bicycle,bicycle,pow,0828_pow_s04_pow_bicycle_35_n03792782_1715.png
subject-04,1,829,1.06409287452698,car,car,0,0829_pow_s04_0_car_35_n04285008_13174.png
subject-04,1,830,1.37773203849792,dog,dog,0,0830_pow_s04_0_dog_35_n02109961_66260.png
subject-04,1,831,0.637435913085938,bicycle,bicycle,pow,0831_pow_s04_pow_bicycle_35_n02835271_3329.png
subject-04,1,832,0.697381019592285,bear,bear,0,0832_pow_s04_0_bear_35_n02134084_23292.png
subject-04,1,833,0.781019926071167,chair,chair,pow,0833_pow_s04_pow_chair_35_n03376595_3304.png
subject-04,1,834,0.87296199798584,bicycle,bicycle,0,0834_pow_s04_0_bicycle_35_n02835271_19557.png
subject-04,1,835,1.17887306213379,airplane,airplane,0,0835_pow_s04_0_airplane_35_n02690373_3032.png
subject-04,1,836,0.936486005783081,elephant,elephant,pow,0836_pow_s04_pow_elephant_35_n02504013_7353.png
subject-04,1,837,0.930447101593018,clock,chair,0,0837_pow_s04_0_chair_35_n04429376_16372.png
subject-04,1,838,0.718621969223022,oven,oven,0,0838_pow_s04_0_oven_35_n04111531_15852.png
subject-04,1,839,1.06192016601562,chair,oven,pow,0839_pow_s04_pow_oven_35_n04111531_2923.png
subject-04,1,840,1.41203880310059,keyboard,elephant,pow,0840_pow_s04_pow_elephant_35_n02504013_482.png
subject-04,1,841,0.831704139709473,airplane,airplane,0,0841_pow_s04_0_airplane_35_n02690373_3493.png
subject-04,1,842,1.16945314407349,airplane,airplane,pow,0842_pow_s04_pow_airplane_35_n02690373_10455.png
subject-04,1,843,1.40912103652954,cat,boat,0,0843_pow_s04_0_boat_35_n02951358_18804.png
subject-04,1,844,0.993074893951416,airplane,airplane,pow,0844_pow_s04_pow_airplane_35_n02690373_6231.png
subject-04,1,845,0.820961952209473,keyboard,keyboard,pow,0845_pow_s04_pow_keyboard_35_n03085013_6432.png
subject-04,1,846,0.83683705329895,bottle,bottle,pow,0846_pow_s04_pow_bottle_35_n04557648_94.png
subject-04,1,847,0.928774833679199,elephant,elephant,0,0847_pow_s04_0_elephant_35_n02504458_4463.png
subject-04,1,848,0.584514141082764,bear,bear,pow,0848_pow_s04_pow_bear_35_n02134084_18469.png
subject-04,1,849,1.08603501319885,knife,knife,pow,0849_pow_s04_pow_knife_35_n03041632_24114.png
subject-04,1,850,0.872160911560059,bear,oven,pow,0850_pow_s04_pow_oven_35_n04111531_6393.png
subject-04,1,851,0.71979808807373,cat,cat,pow,0851_pow_s04_pow_cat_35_n02123045_11501.png
subject-04,1,852,0.897639989852905,keyboard,keyboard,0,0852_pow_s04_0_keyboard_35_n03085013_24272.png
subject-04,1,853,1.15342378616333,truck,truck,pow,0853_pow_s04_pow_truck_35_n03417042_24155.png
subject-04,1,854,0.713123083114624,cat,cat,pow,0854_pow_s04_pow_cat_35_n02123394_2573.png
subject-04,1,855,0.805404901504517,truck,truck,pow,0855_pow_s04_pow_truck_35_n03796401_3427.png
subject-04,1,856,0.904717922210693,knife,knife,pow,0856_pow_s04_pow_knife_35_n03041632_4269.png
subject-04,1,857,0.950610876083374,boat,boat,pow,0857_pow_s04_pow_boat_35_n02951358_537.png
subject-04,1,858,0.870843887329102,car,car,0,0858_pow_s04_0_car_35_n02814533_93476.png
subject-04,1,859,0.852382183074951,knife,knife,0,0859_pow_s04_0_knife_35_n03041632_52040.png
subject-04,1,860,1.11219000816345,bird,bird,0,0860_pow_s04_0_bird_35_n01614925_11281.png
subject-04,1,861,1.31396198272705,elephant,elephant,pow,0861_pow_s04_pow_elephant_35_n02504013_6584.png
subject-04,1,862,0.936036109924316,keyboard,keyboard,0,0862_pow_s04_0_keyboard_35_n03085013_24449.png
subject-04,1,863,0.669486999511719,boat,boat,pow,0863_pow_s04_pow_boat_35_n04612504_2479.png
subject-04,1,864,0.80129599571228,oven,oven,0,0864_pow_s04_0_oven_35_n04111531_4189.png
subject-04,1,865,0.655308961868286,cat,cat,0,0865_pow_s04_0_cat_35_n02123045_9947.png
subject-04,1,866,1.05324697494507,elephant,elephant,pow,0866_pow_s04_pow_elephant_35_n02504013_7309.png
subject-04,1,867,1.42495703697205,dog,bear,pow,0867_pow_s04_pow_bear_35_n02134418_1041.png
subject-04,1,868,0.98288106918335,bird,bird,pow,0868_pow_s04_pow_bird_35_n01819313_6752.png
subject-04,1,869,0.998373031616211,car,car,pow,0869_pow_s04_pow_car_35_n03100240_6259.png
subject-04,1,870,0.894295930862427,clock,clock,0,0870_pow_s04_0_clock_35_n02708093_353.png
subject-04,1,871,0.866087913513184,elephant,elephant,0,0871_pow_s04_0_elephant_35_n02504013_3843.png
subject-04,1,872,0.623870849609375,clock,clock,pow,0872_pow_s04_pow_clock_35_n04548280_5406.png
subject-04,1,873,1.25758194923401,keyboard,knife,pow,0873_pow_s04_pow_knife_35_n03041632_84240.png
subject-04,1,874,1.01328897476196,airplane,airplane,pow,0874_pow_s04_pow_airplane_35_n02690373_7676.png
subject-04,1,875,0.855326890945435,bear,bear,0,0875_pow_s04_0_bear_35_n02134418_4475.png
subject-04,1,876,0.893025875091553,elephant,elephant,pow,0876_pow_s04_pow_elephant_35_n02504013_6693.png
subject-04,1,877,0.994901895523071,elephant,elephant,0,0877_pow_s04_0_elephant_35_n02504013_2778.png
subject-04,1,878,1.17472410202026,chair,chair,pow,0878_pow_s04_pow_chair_35_n03376595_3239.png
subject-04,1,879,1.05075287818909,elephant,elephant,0,0879_pow_s04_0_elephant_35_n02504013_354.png
subject-04,1,880,1.03631401062012,elephant,elephant,pow,0880_pow_s04_pow_elephant_35_n02504013_474.png
subject-04,1,881,0.971950054168701,bicycle,bicycle,0,0881_pow_s04_0_bicycle_35_n03792782_21148.png
subject-04,1,882,0.837707042694092,boat,boat,0,0882_pow_s04_0_boat_35_n03344393_4106.png
subject-04,1,883,1.50003504753113,bottle,bottle,pow,0883_pow_s04_pow_bottle_35_n03983396_2256.png
subject-04,1,884,0.663790941238403,keyboard,keyboard,0,0884_pow_s04_0_keyboard_35_n04505470_2869.png
subject-04,1,885,0.637079000473022,clock,clock,pow,0885_pow_s04_pow_clock_35_n03196217_3647.png
subject-04,1,886,0.833318948745728,bear,bear,0,0886_pow_s04_0_bear_35_n02134418_2714.png
subject-04,1,887,0.820724964141846,knife,knife,pow,0887_pow_s04_pow_knife_35_n03041632_12651.png
subject-04,1,888,1.2026789188385,cat,cat,0,0888_pow_s04_0_cat_35_n02125311_33516.png
subject-04,1,889,0.798416137695312,bear,bear,0,0889_pow_s04_0_bear_35_n02132136_4157.png
subject-04,1,890,0.900094032287598,truck,truck,0,0890_pow_s04_0_truck_35_n04467665_57697.png
subject-04,1,891,0.932127952575684,car,car,pow,0891_pow_s04_pow_car_35_n03100240_15676.png
subject-04,1,892,1.16391801834106,clock,clock,0,0892_pow_s04_0_clock_35_n02708093_6734.png
subject-04,1,893,1.50012898445129,dog,dog,0,0893_pow_s04_0_dog_35_n02095889_7413.png
subject-04,1,894,0.909389972686768,truck,truck,0,0894_pow_s04_0_truck_35_n04467665_356.png
subject-04,1,895,1.2591700553894,elephant,keyboard,pow,0895_pow_s04_pow_keyboard_35_n04505470_7728.png
subject-04,1,896,1.0072329044342,elephant,elephant,0,0896_pow_s04_0_elephant_35_n02504013_5186.png
subject-04,1,897,1.07504391670227,oven,oven,pow,0897_pow_s04_pow_oven_35_n04111531_22797.png
subject-04,1,898,0.686707019805908,cat,cat,0,0898_pow_s04_0_cat_35_n02124075_2843.png
subject-04,1,899,0.978659868240356,chair,chair,pow,0899_pow_s04_pow_chair_35_n04099969_5294.png
subject-04,1,900,1.05840516090393,oven,oven,0,0900_pow_s04_0_oven_35_n04111531_4750.png
subject-04,1,901,1.49657487869263,elephant,elephant,0,0901_pow_s04_0_elephant_35_n02504013_4457.png
subject-04,1,902,0.874168157577515,cat,bear,0,0902_pow_s04_0_bear_35_n02132136_23202.png
subject-04,1,903,1.09791302680969,knife,knife,0,0903_pow_s04_0_knife_35_n03041632_32377.png
subject-04,1,904,1.43760991096497,chair,chair,0,0904_pow_s04_0_chair_35_n02791124_7193.png
subject-04,1,905,1.34160685539246,cat,boat,0,0905_pow_s04_0_boat_35_n02951358_31965.png
subject-04,1,906,1.30936884880066,bird,airplane,pow,0906_pow_s04_pow_airplane_35_n02690373_6755.png
subject-04,1,907,0.707041025161743,bicycle,bicycle,0,0907_pow_s04_0_bicycle_35_n03792782_11306.png
subject-04,1,908,1.29313588142395,bottle,oven,0,0908_pow_s04_0_oven_35_n04111531_6094.png
subject-04,1,909,0.870794057846069,airplane,airplane,0,0909_pow_s04_0_airplane_35_n02690373_4681.png
subject-04,1,910,1.06881403923035,bottle,bottle,0,0910_pow_s04_0_bottle_35_n04560804_647.png
subject-04,1,911,0.880486011505127,dog,dog,0,0911_pow_s04_0_dog_35_n02087394_10517.png
subject-04,1,912,NaN,na,knife,0,0912_pow_s04_0_knife_35_n03041632_4305.png
subject-04,1,913,1.50011801719666,knife,knife,pow,0913_pow_s04_pow_knife_35_n03041632_56436.png
subject-04,1,914,1.44162511825562,airplane,truck,pow,0914_pow_s04_pow_truck_35_n03417042_1479.png
subject-04,1,915,0.747741937637329,oven,oven,pow,0915_pow_s04_pow_oven_35_n04111531_6211.png
subject-04,1,916,1.05934906005859,airplane,airplane,0,0916_pow_s04_0_airplane_35_n02690373_8560.png
subject-04,1,917,1.14534282684326,chair,chair,pow,0917_pow_s04_pow_chair_35_n03376595_2916.png
subject-04,1,918,0.973023891448975,car,car,pow,0918_pow_s04_pow_car_35_n02814533_7420.png
subject-04,1,919,1.02870512008667,keyboard,keyboard,0,0919_pow_s04_0_keyboard_35_n04505470_1728.png
subject-04,1,920,0.848730087280273,clock,clock,0,0920_pow_s04_0_clock_35_n03196217_713.png
subject-04,1,921,0.850640058517456,bottle,bottle,0,0921_pow_s04_0_bottle_35_n03983396_4879.png
subject-04,1,922,0.702426910400391,bear,bear,pow,0922_pow_s04_pow_bear_35_n02132136_8457.png
subject-04,1,923,0.794382095336914,keyboard,keyboard,pow,0923_pow_s04_pow_keyboard_35_n03085013_24653.png
subject-04,1,924,0.871788024902344,bear,bear,0,0924_pow_s04_0_bear_35_n02134084_3840.png
subject-04,1,925,1.11760115623474,bicycle,bicycle,pow,0925_pow_s04_pow_bicycle_35_n03792782_14931.png
subject-04,1,926,1.0275821685791,bicycle,bicycle,0,0926_pow_s04_0_bicycle_35_n02835271_19875.png
subject-04,1,927,0.963479995727539,airplane,airplane,0,0927_pow_s04_0_airplane_35_n02690373_7107.png
subject-04,1,928,0.845063924789429,chair,chair,pow,0928_pow_s04_pow_chair_35_n02791124_13435.png
subject-04,1,929,0.821017026901245,bicycle,bicycle,0,0929_pow_s04_0_bicycle_35_n02835271_3256.png
subject-04,1,930,0.596702098846436,oven,oven,0,0930_pow_s04_0_oven_35_n04111531_6049.png
subject-04,1,931,0.914520978927612,truck,truck,0,0931_pow_s04_0_truck_35_n03796401_22759.png
subject-04,1,932,1.50014591217041,bicycle,bicycle,0,0932_pow_s04_0_bicycle_35_n02835271_8271.png
subject-04,1,933,0.938678026199341,clock,chair,pow,0933_pow_s04_pow_chair_35_n04429376_13678.png
subject-04,1,934,0.717941999435425,bicycle,bicycle,pow,0934_pow_s04_pow_bicycle_35_n03792782_15561.png
subject-04,1,935,1.27985906600952,bird,bird,0,0935_pow_s04_0_bird_35_n02028035_5332.png
subject-04,1,936,0.919520854949951,truck,truck,0,0936_pow_s04_0_truck_35_n03796401_20861.png
subject-04,1,937,0.681681871414185,airplane,airplane,pow,0937_pow_s04_pow_airplane_35_n02690373_4042.png
subject-04,1,938,0.771389961242676,bicycle,bicycle,pow,0938_pow_s04_pow_bicycle_35_n02835271_20149.png
subject-04,1,939,0.66164493560791,oven,oven,0,0939_pow_s04_0_oven_35_n04111531_20369.png
subject-04,1,940,0.838908910751343,cat,cat,pow,0940_pow_s04_pow_cat_35_n02123394_3786.png
subject-04,1,941,0.81677508354187,truck,truck,pow,0941_pow_s04_pow_truck_35_n03417042_1841.png
subject-04,1,942,0.730607986450195,airplane,airplane,0,0942_pow_s04_0_airplane_35_n02690373_5714.png
subject-04,1,943,1.12248396873474,clock,clock,0,0943_pow_s04_0_clock_35_n02708093_3509.png
subject-04,1,944,0.636229038238525,keyboard,keyboard,0,0944_pow_s04_0_keyboard_35_n03085013_19096.png
subject-04,1,945,1.42600679397583,cat,bird,0,0945_pow_s04_0_bird_35_n01817953_689.png
subject-04,1,946,0.781625032424927,cat,bear,pow,0946_pow_s04_pow_bear_35_n02134084_6901.png
subject-04,1,947,0.745615005493164,bicycle,bicycle,0,0947_pow_s04_0_bicycle_35_n03792782_15845.png
subject-04,1,948,0.671480894088745,cat,cat,0,0948_pow_s04_0_cat_35_n02123597_14032.png
subject-04,1,949,0.905344009399414,bicycle,bicycle,pow,0949_pow_s04_pow_bicycle_35_n02835271_9092.png
subject-04,1,950,0.73914098739624,bicycle,bicycle,pow,0950_pow_s04_pow_bicycle_35_n02835271_11573.png
subject-04,1,951,0.752830028533936,airplane,airplane,0,0951_pow_s04_0_airplane_35_n02690373_13384.png
subject-04,1,952,0.904762029647827,keyboard,keyboard,pow,0952_pow_s04_pow_keyboard_35_n03085013_2277.png
subject-04,1,953,0.894891977310181,chair,chair,0,0953_pow_s04_0_chair_35_n04099969_39507.png
subject-04,1,954,1.09033799171448,dog,dog,pow,0954_pow_s04_pow_dog_35_n02108915_8164.png
subject-04,1,955,1.45043992996216,dog,bear,pow,0955_pow_s04_pow_bear_35_n02134418_2298.png
subject-04,1,956,1.00777697563171,dog,dog,0,0956_pow_s04_0_dog_35_n02110958_368.png
subject-04,1,957,0.839713096618652,airplane,airplane,0,0957_pow_s04_0_airplane_35_n02690373_1229.png
subject-04,1,958,1.26743698120117,keyboard,bottle,pow,0958_pow_s04_pow_bottle_35_n03983396_2944.png
subject-04,1,959,0.523372173309326,oven,oven,0,0959_pow_s04_0_oven_35_n04111531_8398.png
subject-04,1,960,0.72716498374939,clock,clock,0,0960_pow_s04_0_clock_35_n02708093_8079.png
subject-04,1,961,0.714825868606567,truck,boat,pow,0961_pow_s04_pow_boat_35_n04273569_23162.png
subject-04,1,962,0.832587003707886,clock,boat,pow,0962_pow_s04_pow_boat_35_n03344393_6713.png
subject-04,1,963,1.18424201011658,airplane,keyboard,pow,0963_pow_s04_pow_keyboard_35_n03085013_22966.png
subject-04,1,964,0.946219921112061,car,car,pow,0964_pow_s04_pow_car_35_n04285008_8465.png
subject-04,1,965,1.50010299682617,airplane,airplane,0,0965_pow_s04_0_airplane_35_n02690373_10129.png
subject-04,1,966,0.682015895843506,dog,dog,0,0966_pow_s04_0_dog_35_n02100735_1445.png
subject-04,1,967,0.721586942672729,car,car,pow,0967_pow_s04_pow_car_35_n04285008_6037.png
subject-04,1,968,0.839634895324707,cat,cat,0,0968_pow_s04_0_cat_35_n02123394_5586.png
subject-04,1,969,1.00139904022217,bird,bird,pow,0969_pow_s04_pow_bird_35_n01592084_5716.png
subject-04,1,970,0.683133840560913,elephant,elephant,0,0970_pow_s04_0_elephant_35_n02504013_1715.png
subject-04,1,971,0.822910785675049,bird,bird,0,0971_pow_s04_0_bird_35_n01530575_10212.png
subject-04,1,972,0.844584941864014,bear,bear,0,0972_pow_s04_0_bear_35_n02133161_12167.png
subject-04,1,973,0.984380960464478,knife,knife,pow,0973_pow_s04_pow_knife_35_n03041632_29858.png
subject-04,1,974,0.77034592628479,keyboard,keyboard,0,0974_pow_s04_0_keyboard_35_n03085013_7058.png
subject-04,1,975,0.770333051681519,bottle,bottle,pow,0975_pow_s04_pow_bottle_35_n03937543_2936.png
subject-04,1,976,1.01407408714294,clock,clock,0,0976_pow_s04_0_clock_35_n03196217_412.png
subject-04,1,977,0.93374490737915,bird,bird,pow,0977_pow_s04_pow_bird_35_n02017213_15747.png
subject-04,1,978,1.34564399719238,bear,oven,pow,0978_pow_s04_pow_oven_35_n04111531_1989.png
subject-04,1,979,1.07754397392273,bottle,chair,pow,0979_pow_s04_pow_chair_35_n02791124_3018.png
subject-04,1,980,0.825278043746948,bottle,bottle,0,0980_pow_s04_0_bottle_35_n02823428_641.png
subject-04,1,981,0.787058115005493,bear,bear,pow,0981_pow_s04_pow_bear_35_n02132136_15462.png
subject-04,1,982,0.868865013122559,dog,dog,pow,0982_pow_s04_pow_dog_35_n02097298_6578.png
subject-04,1,983,1.09666705131531,bottle,knife,pow,0983_pow_s04_pow_knife_35_n03041632_2438.png
subject-04,1,984,0.796902894973755,clock,clock,pow,0984_pow_s04_pow_clock_35_n02708093_2546.png
subject-04,1,985,1.27259588241577,clock,clock,pow,0985_pow_s04_pow_clock_35_n04548280_2362.png
subject-04,1,986,0.850093841552734,bottle,bottle,0,0986_pow_s04_0_bottle_35_n02823428_4569.png
subject-04,1,987,1.13981890678406,airplane,airplane,0,0987_pow_s04_0_airplane_35_n02690373_1797.png
subject-04,1,988,0.731547117233276,bottle,bottle,0,0988_pow_s04_0_bottle_35_n04560804_20335.png
subject-04,1,989,0.619785070419312,oven,oven,pow,0989_pow_s04_pow_oven_35_n04111531_7283.png
subject-04,1,990,0.637220144271851,boat,boat,pow,0990_pow_s04_pow_boat_35_n04612504_22353.png
subject-04,1,991,0.555103063583374,keyboard,keyboard,0,0991_pow_s04_0_keyboard_35_n03085013_20710.png
subject-04,1,992,0.753046989440918,chair,chair,pow,0992_pow_s04_pow_chair_35_n04099969_24041.png
subject-04,1,993,0.778764963150024,truck,truck,0,0993_pow_s04_0_truck_35_n04467665_64402.png
subject-04,1,994,1.05850219726562,bird,cat,0,0994_pow_s04_0_cat_35_n02125311_20238.png
subject-04,1,995,0.736490964889526,knife,knife,0,0995_pow_s04_0_knife_35_n03041632_11932.png
subject-04,1,996,0.854572057723999,cat,cat,pow,0996_pow_s04_pow_cat_35_n02123597_111.png
subject-04,1,997,1.0181610584259,car,car,0,0997_pow_s04_0_car_35_n02814533_13079.png
subject-04,1,998,0.649770975112915,chair,chair,pow,0998_pow_s04_pow_chair_35_n04429376_32124.png
subject-04,1,999,0.606092929840088,boat,boat,0,0999_pow_s04_0_boat_35_n04612504_2089.png
subject-04,1,1000,1.38542699813843,boat,boat,0,1000_pow_s04_0_boat_35_n03662601_6230.png
subject-04,1,1001,0.625420808792114,bicycle,bicycle,0,1001_pow_s04_0_bicycle_35_n02835271_27777.png
subject-04,1,1002,0.685336112976074,bottle,bottle,pow,1002_pow_s04_pow_bottle_35_n04557648_4620.png
subject-04,1,1003,1.07479786872864,airplane,airplane,pow,1003_pow_s04_pow_airplane_35_n02690373_2676.png
subject-04,1,1004,1.28478693962097,clock,clock,0,1004_pow_s04_0_clock_35_n03196217_1234.png
subject-04,1,1005,0.86870813369751,airplane,airplane,0,1005_pow_s04_0_airplane_35_n02690373_6914.png
subject-04,1,1006,0.882365226745605,truck,truck,0,1006_pow_s04_0_truck_35_n03417042_1348.png
subject-04,1,1007,1.12644290924072,boat,boat,0,1007_pow_s04_0_boat_35_n03344393_12983.png
subject-04,1,1008,1.30384397506714,airplane,airplane,0,1008_pow_s04_0_airplane_35_n02690373_12976.png
subject-04,1,1009,0.629727840423584,boat,boat,0,1009_pow_s04_0_boat_35_n03344393_10748.png
subject-04,1,1010,0.963583946228027,dog,bird,pow,1010_pow_s04_pow_bird_35_n01798484_962.png
subject-04,1,1011,0.701879024505615,bicycle,bicycle,0,1011_pow_s04_0_bicycle_35_n03792782_19116.png
subject-04,1,1012,0.73719596862793,airplane,airplane,pow,1012_pow_s04_pow_airplane_35_n02690373_5866.png
subject-04,1,1013,0.602821826934814,oven,oven,0,1013_pow_s04_0_oven_35_n04111531_13277.png
subject-04,1,1014,1.50004601478577,car,car,pow,1014_pow_s04_pow_car_35_n04285008_13259.png
subject-04,1,1015,0.580744028091431,cat,cat,pow,1015_pow_s04_pow_cat_35_n02123045_13199.png
subject-04,1,1016,0.864515066146851,airplane,airplane,pow,1016_pow_s04_pow_airplane_35_n02690373_12966.png
subject-04,1,1017,0.980284929275513,clock,clock,0,1017_pow_s04_0_clock_35_n03196217_1519.png
subject-04,1,1018,1.01024913787842,bear,bear,pow,1018_pow_s04_pow_bear_35_n02134418_1974.png
subject-04,1,1019,0.528132915496826,oven,oven,0,1019_pow_s04_0_oven_35_n04111531_10436.png
subject-04,1,1020,0.731801986694336,clock,clock,0,1020_pow_s04_0_clock_35_n04548280_4768.png
subject-04,1,1021,0.847398996353149,elephant,elephant,pow,1021_pow_s04_pow_elephant_35_n02504458_3463.png
subject-04,1,1022,1.37123203277588,cat,bird,pow,1022_pow_s04_pow_bird_35_n01824575_10337.png
subject-04,1,1023,0.675122022628784,elephant,elephant,0,1023_pow_s04_0_elephant_35_n02504013_10922.png
subject-04,1,1024,0.540849924087524,chair,chair,pow,1024_pow_s04_pow_chair_35_n03376595_13703.png
subject-04,1,1025,0.862780094146729,truck,truck,0,1025_pow_s04_0_truck_35_n04467665_19132.png
subject-04,1,1026,1.1226589679718,dog,dog,0,1026_pow_s04_0_dog_35_n02091831_4183.png
subject-04,1,1027,0.912966966629028,bicycle,bicycle,0,1027_pow_s04_0_bicycle_35_n02835271_10738.png
subject-04,1,1028,0.880311012268066,airplane,airplane,pow,1028_pow_s04_pow_airplane_35_n02690373_8521.png
subject-04,1,1029,0.863858938217163,truck,truck,pow,1029_pow_s04_pow_truck_35_n03417042_27931.png
subject-04,1,1030,0.959750890731812,car,car,pow,1030_pow_s04_pow_car_35_n03100240_14206.png
subject-04,1,1031,1.14406609535217,bottle,oven,pow,1031_pow_s04_pow_oven_35_n04111531_4904.png
subject-04,1,1032,1.50007200241089,clock,chair,0,1032_pow_s04_0_chair_35_n03376595_9653.png
subject-04,1,1033,0.521247148513794,cat,cat,0,1033_pow_s04_0_cat_35_n02123159_5270.png
subject-04,1,1034,0.710986137390137,oven,oven,pow,1034_pow_s04_pow_oven_35_n04111531_12103.png
subject-04,1,1035,0.710912942886353,keyboard,keyboard,pow,1035_pow_s04_pow_keyboard_35_n03085013_20453.png
subject-04,1,1036,0.974637985229492,airplane,airplane,0,1036_pow_s04_0_airplane_35_n02690373_2967.png
subject-04,1,1037,0.794572114944458,bear,bear,0,1037_pow_s04_0_bear_35_n02133161_5274.png
subject-04,1,1038,1.06826996803284,bird,bird,pow,1038_pow_s04_pow_bird_35_n01860187_486.png
subject-04,1,1039,1.50000405311584,elephant,elephant,0,1039_pow_s04_0_elephant_35_n02504458_6618.png
subject-04,1,1040,0.910254001617432,clock,clock,pow,1040_pow_s04_pow_clock_35_n03196217_3063.png
subject-04,1,1041,1.10971689224243,keyboard,keyboard,pow,1041_pow_s04_pow_keyboard_35_n04505470_1904.png
subject-04,1,1042,0.761447906494141,cat,cat,pow,1042_pow_s04_pow_cat_35_n02123045_3375.png
subject-04,1,1043,0.829600095748901,car,car,0,1043_pow_s04_0_car_35_n03100240_10244.png
subject-04,1,1044,0.711217164993286,clock,clock,pow,1044_pow_s04_pow_clock_35_n04548280_2943.png
subject-04,1,1045,1.2489218711853,clock,bottle,pow,1045_pow_s04_pow_bottle_35_n03983396_2864.png
subject-04,1,1046,0.990657091140747,bird,bird,0,1046_pow_s04_0_bird_35_n01829413_6608.png
subject-04,1,1047,0.770437002182007,car,car,pow,1047_pow_s04_pow_car_35_n02814533_40913.png
subject-04,1,1048,0.746285915374756,clock,clock,0,1048_pow_s04_0_clock_35_n03196217_3558.png
subject-04,1,1049,0.996277093887329,truck,truck,0,1049_pow_s04_0_truck_35_n04467665_3714.png
subject-04,1,1050,0.730013847351074,clock,clock,0,1050_pow_s04_0_clock_35_n02708093_8179.png
subject-04,1,1051,0.635766983032227,cat,cat,pow,1051_pow_s04_pow_cat_35_n02125311_10174.png
subject-04,1,1052,1.18163895606995,cat,boat,pow,1052_pow_s04_pow_boat_35_n04273569_3460.png
subject-04,1,1053,0.869426012039185,keyboard,keyboard,pow,1053_pow_s04_pow_keyboard_35_n04505470_4521.png
subject-04,1,1054,0.711386919021606,airplane,airplane,0,1054_pow_s04_0_airplane_35_n02690373_2607.png
subject-04,1,1055,0.819241046905518,car,car,0,1055_pow_s04_0_car_35_n02814533_4449.png
subject-04,1,1056,0.632801055908203,bottle,bottle,pow,1056_pow_s04_pow_bottle_35_n02823428_1733.png
subject-04,1,1057,1.25682020187378,bottle,bottle,0,1057_pow_s04_0_bottle_35_n03937543_5567.png
subject-04,1,1058,0.902539968490601,truck,truck,pow,1058_pow_s04_pow_truck_35_n03796401_2934.png
subject-04,1,1059,0.784230947494507,cat,cat,pow,1059_pow_s04_pow_cat_35_n02123159_7465.png
subject-04,1,1060,1.0205500125885,bottle,bottle,0,1060_pow_s04_0_bottle_35_n03983396_21920.png
subject-04,1,1061,0.947769165039062,bear,bear,0,1061_pow_s04_0_bear_35_n02134084_15558.png
