subj,Session,trial,rt,object_response,category,condition,imagename
subject-02,1,1,0.955517053604126,dog,dog,pow,0001_pow_s02_pow_dog_35_n02099601_447.png
subject-02,1,2,0.785048961639404,boat,boat,0,0002_pow_s02_0_boat_35_n03662601_18676.png
subject-02,1,3,0.818817138671875,car,truck,pow,0003_pow_s02_pow_truck_35_n03796401_142.png
subject-02,1,4,1.06276321411133,knife,knife,pow,0004_pow_s02_pow_knife_35_n03041632_27963.png
subject-02,1,5,0.618435859680176,boat,boat,0,0005_pow_s02_0_boat_35_n03344393_7374.png
subject-02,1,6,1.12814688682556,bear,bear,0,0006_pow_s02_0_bear_35_n02133161_2044.png
subject-02,1,7,0.806092977523804,keyboard,keyboard,0,0007_pow_s02_0_keyboard_35_n03085013_3656.png
subject-02,1,8,0.755964040756226,chair,chair,0,0008_pow_s02_0_chair_35_n04099969_5364.png
subject-02,1,9,0.773604869842529,elephant,elephant,0,0009_pow_s02_0_elephant_35_n02504013_7273.png
subject-02,1,10,0.881587028503418,oven,oven,0,0010_pow_s02_0_oven_35_n04111531_13296.png
subject-02,1,11,1.33939504623413,bottle,knife,pow,0011_pow_s02_pow_knife_35_n03041632_94620.png
subject-02,1,12,0.805028915405273,knife,knife,0,0012_pow_s02_0_knife_35_n03041632_35365.png
subject-02,1,13,0.614991903305054,clock,clock,pow,0013_pow_s02_pow_clock_35_n04548280_8348.png
subject-02,1,14,0.730794191360474,boat,boat,0,0014_pow_s02_0_boat_35_n02951358_18804.png
subject-02,1,15,0.630782127380371,boat,boat,0,0015_pow_s02_0_boat_35_n03662601_5849.png
subject-02,1,16,0.742424964904785,airplane,airplane,pow,0016_pow_s02_pow_airplane_35_n02690373_2147.png
subject-02,1,17,0.796146869659424,elephant,elephant,pow,0017_pow_s02_pow_elephant_35_n02504013_18988.png
subject-02,1,18,0.80012321472168,keyboard,keyboard,0,0018_pow_s02_0_keyboard_35_n03085013_22996.png
subject-02,1,19,0.697794198989868,chair,chair,0,0019_pow_s02_0_chair_35_n02791124_45.png
subject-02,1,20,0.56177806854248,clock,clock,pow,0020_pow_s02_pow_clock_35_n02708093_687.png
subject-02,1,21,0.791522979736328,bicycle,bicycle,0,0021_pow_s02_0_bicycle_35_n03792782_21148.png
subject-02,1,22,0.663166046142578,dog,dog,0,0022_pow_s02_0_dog_35_n02105162_1003.png
subject-02,1,23,0.759355068206787,dog,dog,pow,0023_pow_s02_pow_dog_35_n02102040_312.png
subject-02,1,24,0.814956903457642,truck,truck,pow,0024_pow_s02_pow_truck_35_n03796401_3273.png
subject-02,1,25,0.570948123931885,clock,clock,0,0025_pow_s02_0_clock_35_n02708093_6734.png
subject-02,1,26,0.592457056045532,clock,clock,pow,0026_pow_s02_pow_clock_35_n04548280_5406.png
subject-02,1,27,0.648789882659912,oven,oven,0,0027_pow_s02_0_oven_35_n04111531_4418.png
subject-02,1,28,0.670161008834839,boat,airplane,pow,0028_pow_s02_pow_airplane_35_n02690373_9264.png
subject-02,1,29,0.773829936981201,chair,chair,pow,0029_pow_s02_pow_chair_35_n04099969_20900.png
subject-02,1,30,1.36766409873962,elephant,bear,0,0030_pow_s02_0_bear_35_n02134418_4513.png
subject-02,1,31,0.825598001480103,boat,bottle,0,0031_pow_s02_0_bottle_35_n04557648_10171.png
subject-02,1,32,0.861330986022949,bear,knife,pow,0032_pow_s02_pow_knife_35_n03041632_31037.png
subject-02,1,33,0.677225828170776,cat,cat,0,0033_pow_s02_0_cat_35_n02125311_28447.png
subject-02,1,34,0.75285005569458,truck,truck,pow,0034_pow_s02_pow_truck_35_n03417042_19955.png
subject-02,1,35,0.686697006225586,clock,clock,0,0035_pow_s02_0_clock_35_n03196217_6467.png
subject-02,1,36,1.02299189567566,boat,keyboard,pow,0036_pow_s02_pow_keyboard_35_n03085013_17937.png
subject-02,1,37,0.894581079483032,car,keyboard,pow,0037_pow_s02_pow_keyboard_35_n03085013_24087.png
subject-02,1,38,0.904105186462402,bird,bird,pow,0038_pow_s02_pow_bird_35_n01532829_4536.png
subject-02,1,39,0.777953147888184,bottle,bottle,pow,0039_pow_s02_pow_bottle_35_n04557648_2282.png
subject-02,1,40,1.20385217666626,bottle,bottle,pow,0040_pow_s02_pow_bottle_35_n04579145_4389.png
subject-02,1,41,0.691699028015137,bicycle,bicycle,0,0041_pow_s02_0_bicycle_35_n03792782_7878.png
subject-02,1,42,0.759416818618774,bottle,bottle,pow,0042_pow_s02_pow_bottle_35_n02823428_6327.png
subject-02,1,43,0.639304876327515,cat,boat,pow,0043_pow_s02_pow_boat_35_n04612504_2479.png
subject-02,1,44,0.707144975662231,dog,dog,pow,0044_pow_s02_pow_dog_35_n02088632_1732.png
subject-02,1,45,0.77680492401123,keyboard,keyboard,pow,0045_pow_s02_pow_keyboard_35_n03085013_22813.png
subject-02,1,46,1.05659699440002,clock,chair,pow,0046_pow_s02_pow_chair_35_n04429376_10438.png
subject-02,1,47,0.686486005783081,bottle,bottle,0,0047_pow_s02_0_bottle_35_n02823428_4569.png
subject-02,1,48,0.566390037536621,clock,clock,0,0048_pow_s02_0_clock_35_n02708093_5.png
subject-02,1,49,0.63213586807251,airplane,airplane,pow,0049_pow_s02_pow_airplane_35_n02690373_18304.png
subject-02,1,50,0.816189050674438,bear,chair,pow,0050_pow_s02_pow_chair_35_n03376595_235.png
subject-02,1,51,0.634246826171875,car,car,pow,0051_pow_s02_pow_car_35_n02814533_95669.png
subject-02,1,52,0.849509954452515,bear,bear,pow,0052_pow_s02_pow_bear_35_n02134418_2298.png
subject-02,1,53,0.855406999588013,bird,dog,pow,0053_pow_s02_pow_dog_35_n02111129_513.png
subject-02,1,54,1.09538698196411,car,car,0,0054_pow_s02_0_car_35_n03100240_17108.png
subject-02,1,55,0.753080129623413,car,truck,0,0055_pow_s02_0_truck_35_n04467665_19132.png
subject-02,1,56,0.647171020507812,bicycle,bicycle,pow,0056_pow_s02_pow_bicycle_35_n03792782_6023.png
subject-02,1,57,0.508551836013794,clock,clock,pow,0057_pow_s02_pow_clock_35_n04548280_3999.png
subject-02,1,58,0.828506946563721,truck,truck,0,0058_pow_s02_0_truck_35_n03417042_27966.png
subject-02,1,59,0.60439920425415,elephant,elephant,0,0059_pow_s02_0_elephant_35_n02504013_4457.png
subject-02,1,60,0.738272905349731,elephant,elephant,0,0060_pow_s02_0_elephant_35_n02504013_5186.png
subject-02,1,61,0.830052852630615,airplane,airplane,pow,0061_pow_s02_pow_airplane_35_n02690373_4320.png
subject-02,1,62,0.835620880126953,clock,clock,0,0062_pow_s02_0_clock_35_n02708093_2498.png
subject-02,1,63,0.97749400138855,keyboard,keyboard,0,0063_pow_s02_0_keyboard_35_n04505470_5131.png
subject-02,1,64,0.881392955780029,chair,chair,0,0064_pow_s02_0_chair_35_n02791124_2003.png
subject-02,1,65,0.871083974838257,car,car,pow,0065_pow_s02_pow_car_35_n02814533_46997.png
subject-02,1,66,0.813022136688232,truck,truck,0,0066_pow_s02_0_truck_35_n03417042_7036.png
subject-02,1,67,0.826752901077271,keyboard,cat,0,0067_pow_s02_0_cat_35_n02125311_27218.png
subject-02,1,68,1.10096406936646,boat,boat,0,0068_pow_s02_0_boat_35_n02951358_5718.png
subject-02,1,69,0.822354078292847,keyboard,dog,pow,0069_pow_s02_pow_dog_35_n02097658_6717.png
subject-02,1,70,0.906323194503784,bottle,bottle,0,0070_pow_s02_0_bottle_35_n03983396_17636.png
subject-02,1,71,0.956161022186279,chair,chair,0,0071_pow_s02_0_chair_35_n04429376_54570.png
subject-02,1,72,0.695947885513306,keyboard,keyboard,0,0072_pow_s02_0_keyboard_35_n04505470_2869.png
subject-02,1,73,0.715598821640015,chair,chair,0,0073_pow_s02_0_chair_35_n04099969_13105.png
subject-02,1,74,0.757611989974976,dog,dog,0,0074_pow_s02_0_dog_35_n02088238_8653.png
subject-02,1,75,0.943243026733398,knife,knife,pow,0075_pow_s02_pow_knife_35_n03041632_29858.png
subject-02,1,76,1.03901505470276,chair,chair,pow,0076_pow_s02_pow_chair_35_n02791124_15457.png
subject-02,1,77,0.754873991012573,knife,knife,pow,0077_pow_s02_pow_knife_35_n03041632_37513.png
subject-02,1,78,0.968653917312622,oven,chair,pow,0078_pow_s02_pow_chair_35_n03376595_6947.png
subject-02,1,79,0.584660053253174,chair,chair,0,0079_pow_s02_0_chair_35_n04429376_14680.png
subject-02,1,80,0.644323110580444,truck,truck,0,0080_pow_s02_0_truck_35_n03417042_27326.png
subject-02,1,81,1.40345096588135,clock,clock,0,0081_pow_s02_0_clock_35_n03196217_3558.png
subject-02,1,82,0.571319103240967,bird,bird,0,0082_pow_s02_0_bird_35_n01795545_14302.png
subject-02,1,83,0.535310983657837,truck,truck,0,0083_pow_s02_0_truck_35_n03796401_5873.png
subject-02,1,84,0.627130031585693,truck,truck,0,0084_pow_s02_0_truck_35_n04467665_2098.png
subject-02,1,85,0.584758043289185,boat,boat,0,0085_pow_s02_0_boat_35_n04612504_2089.png
subject-02,1,86,0.628657817840576,airplane,airplane,0,0086_pow_s02_0_airplane_35_n02690373_3493.png
subject-02,1,87,0.758462905883789,chair,chair,pow,0087_pow_s02_pow_chair_35_n04099969_7934.png
subject-02,1,88,0.760398149490356,boat,boat,pow,0088_pow_s02_pow_boat_35_n02951358_28889.png
subject-02,1,89,0.606158971786499,keyboard,keyboard,pow,0089_pow_s02_pow_keyboard_35_n03085013_24591.png
subject-02,1,90,0.625967979431152,elephant,elephant,0,0090_pow_s02_0_elephant_35_n02504013_2476.png
subject-02,1,91,0.731698989868164,elephant,elephant,pow,0091_pow_s02_pow_elephant_35_n02504013_213.png
subject-02,1,92,0.723632097244263,elephant,elephant,pow,0092_pow_s02_pow_elephant_35_n02504458_6120.png
subject-02,1,93,0.819658041000366,bird,bird,0,0093_pow_s02_0_bird_35_n02007558_7112.png
subject-02,1,94,1.2716588973999,cat,cat,pow,0094_pow_s02_pow_cat_35_n02123394_1817.png
subject-02,1,95,0.845202922821045,keyboard,keyboard,0,0095_pow_s02_0_keyboard_35_n04505470_2102.png
subject-02,1,96,0.700708866119385,truck,truck,0,0096_pow_s02_0_truck_35_n03417042_4574.png
subject-02,1,97,0.816617012023926,elephant,elephant,pow,0097_pow_s02_pow_elephant_35_n02504458_5444.png
subject-02,1,98,0.680346965789795,dog,dog,0,0098_pow_s02_0_dog_35_n02106550_4880.png
subject-02,1,99,0.780234098434448,airplane,airplane,0,0099_pow_s02_0_airplane_35_n02690373_6618.png
subject-02,1,100,0.669837951660156,chair,chair,0,0100_pow_s02_0_chair_35_n03376595_7010.png
subject-02,1,101,0.974011898040771,boat,boat,0,0101_pow_s02_0_boat_35_n03662601_13847.png
subject-02,1,102,0.815571069717407,airplane,airplane,pow,0102_pow_s02_pow_airplane_35_n02690373_6231.png
subject-02,1,103,0.757574081420898,bear,elephant,pow,0103_pow_s02_pow_elephant_35_n02504013_7309.png
subject-02,1,104,0.83361291885376,car,chair,pow,0104_pow_s02_pow_chair_35_n02791124_1594.png
subject-02,1,105,1.0270938873291,elephant,elephant,0,0105_pow_s02_0_elephant_35_n02504458_7841.png
subject-02,1,106,0.60093092918396,bottle,bottle,0,0106_pow_s02_0_bottle_35_n03983396_5093.png
subject-02,1,107,0.661086082458496,clock,clock,0,0107_pow_s02_0_clock_35_n03196217_412.png
subject-02,1,108,1.31655502319336,boat,boat,0,0108_pow_s02_0_boat_35_n02951358_2537.png
subject-02,1,109,0.732491016387939,boat,boat,pow,0109_pow_s02_pow_boat_35_n04273569_113.png
subject-02,1,110,0.478127002716064,clock,clock,0,0110_pow_s02_0_clock_35_n03196217_4879.png
subject-02,1,111,0.545923948287964,oven,oven,pow,0111_pow_s02_pow_oven_35_n04111531_2923.png
subject-02,1,112,0.887726068496704,bicycle,boat,0,0112_pow_s02_0_boat_35_n02951358_31965.png
subject-02,1,113,0.783612966537476,bottle,bottle,pow,0113_pow_s02_pow_bottle_35_n04557648_85.png
subject-02,1,114,0.709378004074097,chair,chair,0,0114_pow_s02_0_chair_35_n03376595_6652.png
subject-02,1,115,0.739398956298828,bottle,bottle,pow,0115_pow_s02_pow_bottle_35_n03983396_2998.png
subject-02,1,116,0.987080097198486,chair,oven,pow,0116_pow_s02_pow_oven_35_n04111531_3193.png
subject-02,1,117,0.766935110092163,car,car,pow,0117_pow_s02_pow_car_35_n04285008_5699.png
subject-02,1,118,0.858567953109741,car,keyboard,pow,0118_pow_s02_pow_keyboard_35_n03085013_22966.png
subject-02,1,119,0.56446099281311,clock,clock,pow,0119_pow_s02_pow_clock_35_n04548280_82.png
subject-02,1,120,0.856226921081543,knife,knife,0,0120_pow_s02_0_knife_35_n03041632_120.png
subject-02,1,121,0.90250301361084,bear,bird,pow,0121_pow_s02_pow_bird_35_n01824575_10337.png
subject-02,1,122,0.610005140304565,elephant,elephant,pow,0122_pow_s02_pow_elephant_35_n02504013_474.png
subject-02,1,123,0.787714004516602,elephant,elephant,0,0123_pow_s02_0_elephant_35_n02504458_7302.png
subject-02,1,124,0.813835859298706,oven,oven,0,0124_pow_s02_0_oven_35_n04111531_4750.png
subject-02,1,125,1.05529594421387,truck,truck,pow,0125_pow_s02_pow_truck_35_n03796401_9105.png
subject-02,1,126,0.777091026306152,airplane,airplane,pow,0126_pow_s02_pow_airplane_35_n02690373_5465.png
subject-02,1,127,0.961310148239136,knife,knife,pow,0127_pow_s02_pow_knife_35_n03041632_4494.png
subject-02,1,128,1.35678815841675,airplane,airplane,0,0128_pow_s02_0_airplane_35_n02690373_6914.png
subject-02,1,129,1.07065200805664,airplane,boat,pow,0129_pow_s02_pow_boat_35_n04273569_27839.png
subject-02,1,130,0.66842794418335,car,car,0,0130_pow_s02_0_car_35_n03100240_17583.png
subject-02,1,131,0.858186960220337,dog,dog,0,0131_pow_s02_0_dog_35_n02087394_10517.png
subject-02,1,132,0.718132019042969,clock,clock,pow,0132_pow_s02_pow_clock_35_n04548280_8841.png
subject-02,1,133,0.831861019134521,elephant,elephant,pow,0133_pow_s02_pow_elephant_35_n02504013_21616.png
subject-02,1,134,0.605653047561646,cat,cat,0,0134_pow_s02_0_cat_35_n02123045_3505.png
subject-02,1,135,1.05361008644104,chair,chair,0,0135_pow_s02_0_chair_35_n04099969_17428.png
subject-02,1,136,0.631472110748291,car,car,0,0136_pow_s02_0_car_35_n02814533_75419.png
subject-02,1,137,0.806989192962646,dog,dog,0,0137_pow_s02_0_dog_35_n02091831_4183.png
subject-02,1,138,0.531064987182617,airplane,airplane,0,0138_pow_s02_0_airplane_35_n02690373_10129.png
subject-02,1,139,0.565083980560303,cat,cat,0,0139_pow_s02_0_cat_35_n02123394_4286.png
subject-02,1,140,0.838411092758179,cat,cat,pow,0140_pow_s02_pow_cat_35_n02123045_11501.png
subject-02,1,141,0.602511882781982,bear,bear,pow,0141_pow_s02_pow_bear_35_n02134418_1826.png
subject-02,1,142,0.902131795883179,bicycle,knife,0,0142_pow_s02_0_knife_35_n03041632_29427.png
subject-02,1,143,0.736296892166138,bottle,oven,0,0143_pow_s02_0_oven_35_n04111531_7355.png
subject-02,1,144,0.831817150115967,dog,dog,0,0144_pow_s02_0_dog_35_n02112706_3099.png
subject-02,1,145,0.539563894271851,clock,clock,0,0145_pow_s02_0_clock_35_n03196217_6185.png
subject-02,1,146,0.933556079864502,dog,bear,0,0146_pow_s02_0_bear_35_n02134418_2714.png
subject-02,1,147,0.639703989028931,car,car,0,0147_pow_s02_0_car_35_n04285008_7508.png
subject-02,1,148,0.744923114776611,bottle,bottle,pow,0148_pow_s02_pow_bottle_35_n04591713_1407.png
subject-02,1,149,0.56672191619873,clock,clock,0,0149_pow_s02_0_clock_35_n04548280_16378.png
subject-02,1,150,0.688558101654053,car,car,pow,0150_pow_s02_pow_car_35_n04285008_15954.png
subject-02,1,151,0.786556959152222,keyboard,keyboard,pow,0151_pow_s02_pow_keyboard_35_n03085013_2277.png
subject-02,1,152,0.730211019515991,airplane,airplane,0,0152_pow_s02_0_airplane_35_n02690373_5126.png
subject-02,1,153,0.81407904624939,bear,bear,0,0153_pow_s02_0_bear_35_n02134418_4475.png
subject-02,1,154,0.679976940155029,cat,cat,0,0154_pow_s02_0_cat_35_n02123597_7081.png
subject-02,1,155,0.815781831741333,bicycle,bicycle,pow,0155_pow_s02_pow_bicycle_35_n03792782_4830.png
subject-02,1,156,0.903629064559937,car,car,pow,0156_pow_s02_pow_car_35_n02814533_96695.png
subject-02,1,157,1.01840209960938,chair,chair,pow,0157_pow_s02_pow_chair_35_n04099969_24041.png
subject-02,1,158,0.839125871658325,bird,bird,0,0158_pow_s02_0_bird_35_n01855672_55167.png
subject-02,1,159,0.707007169723511,elephant,elephant,0,0159_pow_s02_0_elephant_35_n02504013_2778.png
subject-02,1,160,0.948843955993652,boat,boat,0,0160_pow_s02_0_boat_35_n03662601_2120.png
subject-02,1,161,0.646301984786987,chair,chair,pow,0161_pow_s02_pow_chair_35_n03376595_3304.png
subject-02,1,162,0.640234231948853,cat,cat,pow,0162_pow_s02_pow_cat_35_n02124075_3383.png
subject-02,1,163,1.08996605873108,bird,bird,0,0163_pow_s02_0_bird_35_n01616318_1935.png
subject-02,1,164,0.531784057617188,cat,cat,0,0164_pow_s02_0_cat_35_n02123159_5224.png
subject-02,1,165,0.841536998748779,boat,boat,pow,0165_pow_s02_pow_boat_35_n02951358_14504.png
subject-02,1,166,1.06369304656982,elephant,elephant,pow,0166_pow_s02_pow_elephant_35_n02504013_6693.png
subject-02,1,167,0.669204950332642,bird,bird,pow,0167_pow_s02_pow_bird_35_n01820546_6471.png
subject-02,1,168,0.460899829864502,boat,boat,0,0168_pow_s02_0_boat_35_n03662601_13754.png
subject-02,1,169,0.600607872009277,boat,clock,pow,0169_pow_s02_pow_clock_35_n02708093_384.png
subject-02,1,170,0.73890209197998,clock,clock,0,0170_pow_s02_0_clock_35_n03196217_3762.png
subject-02,1,171,0.596359014511108,car,car,0,0171_pow_s02_0_car_35_n04285008_4749.png
subject-02,1,172,0.558364868164062,clock,clock,pow,0172_pow_s02_pow_clock_35_n03196217_3647.png
subject-02,1,173,0.458463191986084,boat,boat,0,0173_pow_s02_0_boat_35_n02951358_30149.png
subject-02,1,174,0.721763134002686,car,car,0,0174_pow_s02_0_car_35_n02814533_1297.png
subject-02,1,175,0.669592142105103,dog,dog,0,0175_pow_s02_0_dog_35_n02100735_1445.png
subject-02,1,176,0.78351879119873,bear,bear,pow,0176_pow_s02_pow_bear_35_n02134084_6901.png
subject-02,1,177,0.515375137329102,boat,boat,0,0177_pow_s02_0_boat_35_n04612504_18536.png
subject-02,1,178,0.805284976959229,cat,cat,pow,0178_pow_s02_pow_cat_35_n02123159_5170.png
subject-02,1,179,0.927288055419922,dog,knife,pow,0179_pow_s02_pow_knife_35_n03041632_84048.png
subject-02,1,180,0.73881983757019,bicycle,bicycle,0,0180_pow_s02_0_bicycle_35_n03792782_13399.png
subject-02,1,181,1.09447884559631,bottle,bottle,0,0181_pow_s02_0_bottle_35_n03983396_6281.png
subject-02,1,182,0.618228912353516,car,car,0,0182_pow_s02_0_car_35_n04285008_8616.png
subject-02,1,183,0.906524896621704,chair,chair,0,0183_pow_s02_0_chair_35_n04429376_10544.png
subject-02,1,184,0.839830160140991,bird,bird,pow,0184_pow_s02_pow_bird_35_n01537544_9745.png
subject-02,1,185,0.627668142318726,airplane,airplane,pow,0185_pow_s02_pow_airplane_35_n02690373_4471.png
subject-02,1,186,0.635619163513184,knife,knife,0,0186_pow_s02_0_knife_35_n03041632_46720.png
subject-02,1,187,0.765383005142212,knife,knife,0,0187_pow_s02_0_knife_35_n03041632_32785.png
subject-02,1,188,0.55122709274292,bicycle,bicycle,0,0188_pow_s02_0_bicycle_35_n02835271_19875.png
subject-02,1,189,0.547460794448853,clock,clock,pow,0189_pow_s02_pow_clock_35_n02708093_2283.png
subject-02,1,190,0.832817077636719,truck,truck,0,0190_pow_s02_0_truck_35_n03417042_27231.png
subject-02,1,191,0.952679872512817,clock,clock,0,0191_pow_s02_0_clock_35_n02708093_353.png
subject-02,1,192,0.908535003662109,knife,knife,0,0192_pow_s02_0_knife_35_n03041632_10802.png
subject-02,1,193,0.968169927597046,bird,cat,pow,0193_pow_s02_pow_cat_35_n02123159_4952.png
subject-02,1,194,0.628216981887817,bear,bear,pow,0194_pow_s02_pow_bear_35_n02132136_30306.png
subject-02,1,195,0.793767929077148,cat,clock,pow,0195_pow_s02_pow_clock_35_n04548280_2943.png
subject-02,1,196,0.943619012832642,dog,cat,0,0196_pow_s02_0_cat_35_n02125311_33516.png
subject-02,1,197,0.493592023849487,clock,clock,0,0197_pow_s02_0_clock_35_n04548280_7135.png
subject-02,1,198,0.729446887969971,boat,chair,pow,0198_pow_s02_pow_chair_35_n04429376_353.png
subject-02,1,199,0.579038143157959,clock,clock,0,0199_pow_s02_0_clock_35_n02708093_8079.png
subject-02,1,200,0.826848030090332,bear,bear,pow,0200_pow_s02_pow_bear_35_n02134084_17218.png
subject-02,1,201,1.00873517990112,car,knife,0,0201_pow_s02_0_knife_35_n03041632_7982.png
subject-02,1,202,0.758625984191895,truck,truck,0,0202_pow_s02_0_truck_35_n04467665_64402.png
subject-02,1,203,0.770795822143555,bear,bear,0,0203_pow_s02_0_bear_35_n02134084_21207.png
subject-02,1,204,0.600519180297852,boat,boat,0,0204_pow_s02_0_boat_35_n04273569_19796.png
subject-02,1,205,0.967861175537109,bicycle,truck,pow,0205_pow_s02_pow_truck_35_n04467665_45611.png
subject-02,1,206,0.958277225494385,chair,chair,0,0206_pow_s02_0_chair_35_n02791124_2008.png
subject-02,1,207,0.529515981674194,boat,boat,0,0207_pow_s02_0_boat_35_n03662601_6230.png
subject-02,1,208,0.597564935684204,chair,chair,0,0208_pow_s02_0_chair_35_n03376595_6240.png
subject-02,1,209,1.03519701957703,bear,oven,pow,0209_pow_s02_pow_oven_35_n04111531_6211.png
subject-02,1,210,0.713438034057617,cat,cat,0,0210_pow_s02_0_cat_35_n02123394_5586.png
subject-02,1,211,0.490741014480591,clock,clock,pow,0211_pow_s02_pow_clock_35_n04548280_4947.png
subject-02,1,212,0.732631206512451,car,car,0,0212_pow_s02_0_car_35_n02814533_93487.png
subject-02,1,213,1.02639102935791,oven,oven,pow,0213_pow_s02_pow_oven_35_n04111531_8805.png
subject-02,1,214,0.622207164764404,chair,chair,0,0214_pow_s02_0_chair_35_n04099969_8029.png
subject-02,1,215,0.616069078445435,clock,clock,0,0215_pow_s02_0_clock_35_n03196217_1519.png
subject-02,1,216,0.820000886917114,knife,keyboard,pow,0216_pow_s02_pow_keyboard_35_n03085013_24793.png
subject-02,1,217,0.567754983901978,bicycle,bicycle,pow,0217_pow_s02_pow_bicycle_35_n03792782_14931.png
subject-02,1,218,0.825643062591553,car,car,pow,0218_pow_s02_pow_car_35_n02814533_3754.png
subject-02,1,219,0.579507112503052,bicycle,bicycle,pow,0219_pow_s02_pow_bicycle_35_n03792782_56250.png
subject-02,1,220,0.627336978912354,bear,bear,0,0220_pow_s02_0_bear_35_n02134084_23292.png
subject-02,1,221,0.663455009460449,cat,cat,0,0221_pow_s02_0_cat_35_n02123159_2246.png
subject-02,1,222,0.771017074584961,dog,dog,pow,0222_pow_s02_pow_dog_35_n02110958_8916.png
subject-02,1,223,0.744726896286011,truck,truck,0,0223_pow_s02_0_truck_35_n03796401_20861.png
subject-02,1,224,0.464547157287598,boat,boat,0,0224_pow_s02_0_boat_35_n04612504_434.png
subject-02,1,225,0.580263137817383,car,car,pow,0225_pow_s02_pow_car_35_n04285008_11745.png
subject-02,1,226,0.804110050201416,clock,clock,0,0226_pow_s02_0_clock_35_n02708093_2295.png
subject-02,1,227,0.665776014328003,boat,bird,pow,0227_pow_s02_pow_bird_35_n01860187_486.png
subject-02,1,228,0.749704122543335,boat,elephant,0,0228_pow_s02_0_elephant_35_n02504458_568.png
subject-02,1,229,0.723584175109863,oven,oven,0,0229_pow_s02_0_oven_35_n04111531_3976.png
subject-02,1,230,0.439278125762939,clock,clock,pow,0230_pow_s02_pow_clock_35_n03196217_3104.png
subject-02,1,231,0.897014141082764,elephant,elephant,pow,0231_pow_s02_pow_elephant_35_n02504013_1854.png
subject-02,1,232,0.878976106643677,chair,chair,pow,0232_pow_s02_pow_chair_35_n03376595_14619.png
subject-02,1,233,0.659178972244263,keyboard,keyboard,0,0233_pow_s02_0_keyboard_35_n03085013_24522.png
subject-02,1,234,0.840452909469604,bottle,bottle,pow,0234_pow_s02_pow_bottle_35_n03937543_11347.png
subject-02,1,235,0.838458061218262,dog,dog,0,0235_pow_s02_0_dog_35_n02091032_250.png
subject-02,1,236,0.548450946807861,bicycle,bicycle,0,0236_pow_s02_0_bicycle_35_n02835271_3027.png
subject-02,1,237,0.7779381275177,bicycle,bicycle,pow,0237_pow_s02_pow_bicycle_35_n03792782_30246.png
subject-02,1,238,0.559777975082397,car,car,pow,0238_pow_s02_pow_car_35_n04285008_10287.png
subject-02,1,239,0.691589117050171,keyboard,keyboard,pow,0239_pow_s02_pow_keyboard_35_n03085013_20882.png
subject-02,1,240,0.825402975082397,bottle,bottle,pow,0240_pow_s02_pow_bottle_35_n04557648_4620.png
subject-02,1,241,0.803151845932007,knife,knife,pow,0241_pow_s02_pow_knife_35_n03041632_32292.png
subject-02,1,242,0.410981893539429,clock,clock,0,0242_pow_s02_0_clock_35_n02708093_7535.png
subject-02,1,243,0.607042789459229,keyboard,keyboard,pow,0243_pow_s02_pow_keyboard_35_n03085013_22713.png
subject-02,1,244,0.596589088439941,car,car,0,0244_pow_s02_0_car_35_n03100240_24505.png
subject-02,1,245,0.828236103057861,bird,bird,0,0245_pow_s02_0_bird_35_n01833805_7528.png
subject-02,1,246,0.73053503036499,cat,bear,pow,0246_pow_s02_pow_bear_35_n02133161_8982.png
subject-02,1,247,0.752340078353882,cat,cat,pow,0247_pow_s02_pow_cat_35_n02123597_5514.png
subject-02,1,248,1.3178699016571,elephant,elephant,pow,0248_pow_s02_pow_elephant_35_n02504458_3463.png
subject-02,1,249,0.695480108261108,keyboard,keyboard,0,0249_pow_s02_0_keyboard_35_n04505470_751.png
subject-02,1,250,0.835665941238403,truck,truck,0,0250_pow_s02_0_truck_35_n04467665_68137.png
subject-02,1,251,0.911547899246216,dog,dog,pow,0251_pow_s02_pow_dog_35_n02111500_3896.png
subject-02,1,252,0.83093786239624,truck,truck,pow,0252_pow_s02_pow_truck_35_n03796401_2934.png
subject-02,1,253,0.947211980819702,keyboard,keyboard,0,0253_pow_s02_0_keyboard_35_n03085013_23465.png
subject-02,1,254,1.07277607917786,bottle,chair,pow,0254_pow_s02_pow_chair_35_n02791124_16085.png
subject-02,1,255,0.596562147140503,oven,clock,pow,0255_pow_s02_pow_clock_35_n03196217_2859.png
subject-02,1,256,0.772578954696655,elephant,elephant,pow,0256_pow_s02_pow_elephant_35_n02504458_3616.png
subject-02,1,257,0.652097940444946,cat,cat,0,0257_pow_s02_0_cat_35_n02124075_13663.png
subject-02,1,258,0.643786907196045,bird,bird,0,0258_pow_s02_0_bird_35_n02056570_5891.png
subject-02,1,259,0.747648000717163,dog,dog,0,0259_pow_s02_0_dog_35_n02106030_22.png
subject-02,1,260,0.713878154754639,cat,cat,pow,0260_pow_s02_pow_cat_35_n02123394_530.png
subject-02,1,261,0.745397090911865,boat,knife,pow,0261_pow_s02_pow_knife_35_n03041632_13509.png
subject-02,1,262,0.487250089645386,truck,truck,pow,0262_pow_s02_pow_truck_35_n03417042_27931.png
subject-02,1,263,1.07296299934387,keyboard,keyboard,0,0263_pow_s02_0_keyboard_35_n03085013_24449.png
subject-02,1,264,0.786722898483276,dog,dog,0,0264_pow_s02_0_dog_35_n02100583_5392.png
subject-02,1,265,0.722525835037231,knife,cat,pow,0265_pow_s02_pow_cat_35_n02123159_463.png
subject-02,1,266,1.19872903823853,bicycle,chair,0,0266_pow_s02_0_chair_35_n04429376_6480.png
subject-02,1,267,0.582303047180176,oven,oven,pow,0267_pow_s02_pow_oven_35_n04111531_7883.png
subject-02,1,268,1.23402500152588,bird,dog,0,0268_pow_s02_0_dog_35_n02094258_654.png
subject-02,1,269,0.716048955917358,bicycle,bicycle,pow,0269_pow_s02_pow_bicycle_35_n02835271_20149.png
subject-02,1,270,0.559664964675903,bicycle,bicycle,pow,0270_pow_s02_pow_bicycle_35_n02835271_3329.png
subject-02,1,271,1.06355309486389,bird,bird,0,0271_pow_s02_0_bird_35_n01817953_689.png
subject-02,1,272,0.739464998245239,airplane,airplane,pow,0272_pow_s02_pow_airplane_35_n02690373_1071.png
subject-02,1,273,0.64728307723999,airplane,airplane,pow,0273_pow_s02_pow_airplane_35_n02690373_911.png
subject-02,1,274,0.690787076950073,knife,knife,0,0274_pow_s02_0_knife_35_n03041632_30196.png
subject-02,1,275,0.880612850189209,keyboard,keyboard,pow,0275_pow_s02_pow_keyboard_35_n04505470_1904.png
subject-02,1,276,1.19054198265076,knife,knife,0,0276_pow_s02_0_knife_35_n03041632_37274.png
subject-02,1,277,0.552350044250488,airplane,airplane,0,0277_pow_s02_0_airplane_35_n02690373_5714.png
subject-02,1,278,0.698169946670532,keyboard,keyboard,0,0278_pow_s02_0_keyboard_35_n03085013_21166.png
subject-02,1,279,0.535923004150391,bicycle,bicycle,0,0279_pow_s02_0_bicycle_35_n03792782_12751.png
subject-02,1,280,0.513822078704834,clock,clock,pow,0280_pow_s02_pow_clock_35_n02708093_2546.png
subject-02,1,281,0.521545886993408,airplane,airplane,pow,0281_pow_s02_pow_airplane_35_n02690373_4578.png
subject-02,1,282,0.787457942962646,car,car,pow,0282_pow_s02_pow_car_35_n02814533_65623.png
subject-02,1,283,0.553193092346191,bicycle,bicycle,0,0283_pow_s02_0_bicycle_35_n02835271_4534.png
subject-02,1,284,0.795127868652344,chair,chair,0,0284_pow_s02_0_chair_35_n02791124_359.png
subject-02,1,285,0.650943994522095,bear,bear,pow,0285_pow_s02_pow_bear_35_n02132136_3603.png
subject-02,1,286,0.876751899719238,cat,cat,0,0286_pow_s02_0_cat_35_n02123597_5697.png
subject-02,1,287,0.616505861282349,bear,bear,pow,0287_pow_s02_pow_bear_35_n02134418_1974.png
subject-02,1,288,1.212327003479,airplane,bear,pow,0288_pow_s02_pow_bear_35_n02133161_1309.png
subject-02,1,289,0.696245908737183,cat,cat,pow,0289_pow_s02_pow_cat_35_n02123597_111.png
subject-02,1,290,0.963792085647583,dog,dog,pow,0290_pow_s02_pow_dog_35_n02094258_794.png
subject-02,1,291,0.589698076248169,car,car,0,0291_pow_s02_0_car_35_n02814533_4449.png
subject-02,1,292,0.795484066009521,bottle,bottle,pow,0292_pow_s02_pow_bottle_35_n03983396_6889.png
subject-02,1,293,0.677248001098633,dog,dog,0,0293_pow_s02_0_dog_35_n02106166_5135.png
subject-02,1,294,0.741143941879272,truck,truck,pow,0294_pow_s02_pow_truck_35_n04467665_21942.png
subject-02,1,295,0.613234043121338,clock,clock,0,0295_pow_s02_0_clock_35_n04548280_280.png
subject-02,1,296,0.626654148101807,airplane,airplane,0,0296_pow_s02_0_airplane_35_n02690373_2643.png
subject-02,1,297,0.782653093338013,keyboard,keyboard,pow,0297_pow_s02_pow_keyboard_35_n03085013_8364.png
subject-02,1,298,0.686312913894653,car,car,0,0298_pow_s02_0_car_35_n02814533_93476.png
subject-02,1,299,0.862055063247681,clock,clock,0,0299_pow_s02_0_clock_35_n04548280_2601.png
subject-02,1,300,0.814099073410034,elephant,elephant,0,0300_pow_s02_0_elephant_35_n02504458_7777.png
subject-02,1,301,1.02390599250793,elephant,bear,pow,0301_pow_s02_pow_bear_35_n02134418_4452.png
subject-02,1,302,0.749545812606812,car,car,pow,0302_pow_s02_pow_car_35_n02814533_24730.png
subject-02,1,303,0.657542943954468,airplane,airplane,pow,0303_pow_s02_pow_airplane_35_n02690373_3269.png
subject-02,1,304,0.687570810317993,keyboard,keyboard,pow,0304_pow_s02_pow_keyboard_35_n03085013_20732.png
subject-02,1,305,0.865201950073242,bird,bird,0,0305_pow_s02_0_bird_35_n01824575_3046.png
subject-02,1,306,0.809278011322021,chair,chair,0,0306_pow_s02_0_chair_35_n04099969_39507.png
subject-02,1,307,0.525070190429688,airplane,airplane,0,0307_pow_s02_0_airplane_35_n02690373_3032.png
subject-02,1,308,0.620595932006836,airplane,keyboard,pow,0308_pow_s02_pow_keyboard_35_n03085013_19416.png
subject-02,1,309,0.772307157516479,cat,cat,pow,0309_pow_s02_pow_cat_35_n02123597_6405.png
subject-02,1,310,0.816451072692871,bottle,bottle,0,0310_pow_s02_0_bottle_35_n03937543_1680.png
subject-02,1,311,0.851980924606323,dog,dog,0,0311_pow_s02_0_dog_35_n02085936_1706.png
subject-02,1,312,1.19576096534729,bicycle,truck,pow,0312_pow_s02_pow_truck_35_n04467665_42823.png
subject-02,1,313,0.707921028137207,bear,bear,0,0313_pow_s02_0_bear_35_n02134084_19791.png
subject-02,1,314,0.731412887573242,bird,bird,pow,0314_pow_s02_pow_bird_35_n01829413_943.png
subject-02,1,315,0.477308034896851,airplane,airplane,0,0315_pow_s02_0_airplane_35_n02690373_1797.png
subject-02,1,316,0.69539213180542,car,car,0,0316_pow_s02_0_car_35_n04285008_1313.png
subject-02,1,317,0.654762983322144,bottle,bottle,0,0317_pow_s02_0_bottle_35_n02823428_3028.png
subject-02,1,318,0.796562910079956,bottle,bottle,0,0318_pow_s02_0_bottle_35_n02823428_1149.png
subject-02,1,319,0.750498056411743,cat,cat,pow,0319_pow_s02_pow_cat_35_n02123159_7465.png
subject-02,1,320,0.784387826919556,bird,bird,0,0320_pow_s02_0_bird_35_n02013706_1016.png
subject-02,1,321,0.774829149246216,airplane,airplane,0,0321_pow_s02_0_airplane_35_n02690373_1206.png
subject-02,1,322,0.730699062347412,bear,bear,pow,0322_pow_s02_pow_bear_35_n02133161_10441.png
subject-02,1,323,0.674376964569092,airplane,airplane,pow,0323_pow_s02_pow_airplane_35_n02690373_8791.png
subject-02,1,324,0.872323989868164,truck,truck,pow,0324_pow_s02_pow_truck_35_n03417042_11165.png
subject-02,1,325,0.995939016342163,car,boat,pow,0325_pow_s02_pow_boat_35_n04273569_23162.png
subject-02,1,326,0.839684009552002,car,airplane,pow,0326_pow_s02_pow_airplane_35_n02690373_5149.png
subject-02,1,327,0.589574098587036,cat,cat,pow,0327_pow_s02_pow_cat_35_n02124075_10456.png
subject-02,1,328,0.811694860458374,airplane,keyboard,pow,0328_pow_s02_pow_keyboard_35_n03085013_24665.png
subject-02,1,329,0.633543968200684,truck,truck,pow,0329_pow_s02_pow_truck_35_n04467665_3433.png
subject-02,1,330,0.583328008651733,elephant,elephant,pow,0330_pow_s02_pow_elephant_35_n02504013_7026.png
subject-02,1,331,1.05489897727966,boat,bottle,pow,0331_pow_s02_pow_bottle_35_n03983396_2256.png
subject-02,1,332,0.672724008560181,knife,knife,0,0332_pow_s02_0_knife_35_n03041632_48675.png
subject-02,1,333,0.716506958007812,chair,chair,0,0333_pow_s02_0_chair_35_n04099969_1163.png
subject-02,1,334,0.628574132919312,keyboard,keyboard,pow,0334_pow_s02_pow_keyboard_35_n03085013_4636.png
subject-02,1,335,0.864443063735962,knife,oven,pow,0335_pow_s02_pow_oven_35_n04111531_5967.png
subject-02,1,336,0.535875082015991,clock,clock,pow,0336_pow_s02_pow_clock_35_n04548280_1106.png
subject-02,1,337,0.577878952026367,clock,clock,0,0337_pow_s02_0_clock_35_n04548280_11806.png
subject-02,1,338,0.849556922912598,bear,bear,0,0338_pow_s02_0_bear_35_n02132136_24633.png
subject-02,1,339,0.817348003387451,bear,bear,0,0339_pow_s02_0_bear_35_n02133161_1360.png
subject-02,1,340,0.757093191146851,truck,truck,pow,0340_pow_s02_pow_truck_35_n03417042_26102.png
subject-02,1,341,0.871417999267578,elephant,elephant,0,0341_pow_s02_0_elephant_35_n02504458_6079.png
subject-02,1,342,0.602789163589478,bear,bear,0,0342_pow_s02_0_bear_35_n02134084_3840.png
subject-02,1,343,0.732538938522339,airplane,airplane,pow,0343_pow_s02_pow_airplane_35_n02690373_2433.png
subject-02,1,344,0.926578998565674,bird,bird,0,0344_pow_s02_0_bird_35_n01829413_6608.png
subject-02,1,345,0.768418073654175,keyboard,keyboard,pow,0345_pow_s02_pow_keyboard_35_n04505470_4844.png
subject-02,1,346,0.49610710144043,cat,cat,0,0346_pow_s02_0_cat_35_n02123159_5270.png
subject-02,1,347,0.613857984542847,clock,clock,pow,0347_pow_s02_pow_clock_35_n04548280_2362.png
subject-02,1,348,0.887794017791748,boat,boat,pow,0348_pow_s02_pow_boat_35_n02951358_5064.png
subject-02,1,349,1.08542394638062,bear,bird,pow,0349_pow_s02_pow_bird_35_n01532829_3914.png
subject-02,1,350,1.26160621643066,car,car,pow,0350_pow_s02_pow_car_35_n03100240_4065.png
subject-02,1,351,0.669039011001587,knife,knife,0,0351_pow_s02_0_knife_35_n03041632_3247.png
subject-02,1,352,0.712867021560669,bird,bird,pow,0352_pow_s02_pow_bird_35_n02009229_1091.png
subject-02,1,353,1.24482011795044,dog,dog,pow,0353_pow_s02_pow_dog_35_n02110185_8777.png
subject-02,1,354,0.952644109725952,truck,truck,pow,0354_pow_s02_pow_truck_35_n03417042_24155.png
subject-02,1,355,0.654302835464478,bird,bird,0,0355_pow_s02_0_bird_35_n02028035_8994.png
subject-02,1,356,0.648091793060303,keyboard,keyboard,0,0356_pow_s02_0_keyboard_35_n03085013_20138.png
subject-02,1,357,0.82190203666687,clock,clock,0,0357_pow_s02_0_clock_35_n03196217_9786.png
subject-02,1,358,0.937899112701416,bottle,bottle,pow,0358_pow_s02_pow_bottle_35_n03937543_5625.png
subject-02,1,359,0.693742036819458,chair,chair,0,0359_pow_s02_0_chair_35_n03376595_2056.png
subject-02,1,360,0.779809951782227,bicycle,bicycle,0,0360_pow_s02_0_bicycle_35_n03792782_70690.png
subject-02,1,361,0.631235837936401,cat,cat,0,0361_pow_s02_0_cat_35_n02123597_14032.png
subject-02,1,362,0.798993825912476,elephant,elephant,pow,0362_pow_s02_pow_elephant_35_n02504013_1763.png
subject-02,1,363,0.914918899536133,elephant,elephant,pow,0363_pow_s02_pow_elephant_35_n02504458_4716.png
subject-02,1,364,0.778640985488892,boat,boat,pow,0364_pow_s02_pow_boat_35_n02951358_537.png
subject-02,1,365,0.812561988830566,car,car,0,0365_pow_s02_0_car_35_n03100240_5719.png
subject-02,1,366,0.50448203086853,boat,boat,0,0366_pow_s02_0_boat_35_n03344393_10748.png
subject-02,1,367,0.686306953430176,bear,bear,pow,0367_pow_s02_pow_bear_35_n02132136_18276.png
subject-02,1,368,1.10987091064453,bird,bird,pow,0368_pow_s02_pow_bird_35_n01860187_2052.png
subject-02,1,369,0.763703107833862,elephant,elephant,0,0369_pow_s02_0_elephant_35_n02504013_5087.png
subject-02,1,370,1.02145290374756,elephant,elephant,0,0370_pow_s02_0_elephant_35_n02504458_13382.png
subject-02,1,371,0.835307836532593,bicycle,bicycle,0,0371_pow_s02_0_bicycle_35_n02835271_22263.png
subject-02,1,372,0.753193140029907,knife,knife,0,0372_pow_s02_0_knife_35_n03041632_31483.png
subject-02,1,373,0.65700101852417,boat,boat,pow,0373_pow_s02_pow_boat_35_n04273569_15625.png
subject-02,1,374,0.796740055084229,chair,chair,pow,0374_pow_s02_pow_chair_35_n04099969_24378.png
subject-02,1,375,0.846534967422485,car,car,pow,0375_pow_s02_pow_car_35_n02814533_39666.png
subject-02,1,376,0.632314205169678,cat,cat,pow,0376_pow_s02_pow_cat_35_n02123045_5228.png
subject-02,1,377,0.68233585357666,bicycle,bicycle,0,0377_pow_s02_0_bicycle_35_n02835271_15617.png
subject-02,1,378,1.03445100784302,dog,dog,pow,0378_pow_s02_pow_dog_35_n02094258_6800.png
subject-02,1,379,0.686249017715454,bottle,bottle,0,0379_pow_s02_0_bottle_35_n03983396_13698.png
subject-02,1,380,0.755691051483154,bear,bear,0,0380_pow_s02_0_bear_35_n02133161_14945.png
subject-02,1,381,0.979617118835449,keyboard,keyboard,pow,0381_pow_s02_pow_keyboard_35_n03085013_24374.png
subject-02,1,382,1.48364090919495,bear,bear,0,0382_pow_s02_0_bear_35_n02132136_891.png
subject-02,1,383,0.851022958755493,cat,cat,pow,0383_pow_s02_pow_cat_35_n02123394_2573.png
subject-02,1,384,0.664903163909912,oven,oven,0,0384_pow_s02_0_oven_35_n04111531_6120.png
subject-02,1,385,0.692785978317261,knife,keyboard,pow,0385_pow_s02_pow_keyboard_35_n03085013_1698.png
subject-02,1,386,0.616552114486694,bear,bear,0,0386_pow_s02_0_bear_35_n02134084_18372.png
subject-02,1,387,0.488227128982544,bicycle,bicycle,pow,0387_pow_s02_pow_bicycle_35_n02835271_11573.png
subject-02,1,388,0.642064094543457,bear,oven,pow,0388_pow_s02_pow_oven_35_n04111531_1989.png
subject-02,1,389,0.574063062667847,clock,clock,0,0389_pow_s02_0_clock_35_n04548280_183.png
subject-02,1,390,0.715682029724121,knife,knife,pow,0390_pow_s02_pow_knife_35_n03041632_56436.png
subject-02,1,391,0.535759925842285,boat,boat,pow,0391_pow_s02_pow_boat_35_n04612504_857.png
subject-02,1,392,0.587299108505249,oven,oven,0,0392_pow_s02_0_oven_35_n04111531_4189.png
subject-02,1,393,0.731495141983032,bottle,bottle,pow,0393_pow_s02_pow_bottle_35_n02823428_774.png
subject-02,1,394,0.731170892715454,truck,truck,pow,0394_pow_s02_pow_truck_35_n04467665_3411.png
subject-02,1,395,0.542829990386963,clock,clock,0,0395_pow_s02_0_clock_35_n02708093_41.png
subject-02,1,396,0.669045925140381,elephant,elephant,0,0396_pow_s02_0_elephant_35_n02504013_6615.png
subject-02,1,397,0.888427972793579,truck,truck,0,0397_pow_s02_0_truck_35_n03796401_322.png
subject-02,1,398,0.768456935882568,car,car,0,0398_pow_s02_0_car_35_n04285008_8052.png
subject-02,1,399,0.744040012359619,truck,truck,pow,0399_pow_s02_pow_truck_35_n03417042_1841.png
subject-02,1,400,0.603937149047852,bicycle,bicycle,pow,0400_pow_s02_pow_bicycle_35_n02835271_9092.png
subject-02,1,401,0.703832149505615,car,car,0,0401_pow_s02_0_car_35_n02814533_13079.png
subject-02,1,402,0.791260004043579,elephant,elephant,0,0402_pow_s02_0_elephant_35_n02504458_4463.png
subject-02,1,403,0.941123008728027,bicycle,bicycle,pow,0403_pow_s02_pow_bicycle_35_n03792782_1715.png
subject-02,1,404,0.647006034851074,cat,cat,0,0404_pow_s02_0_cat_35_n02123045_8031.png
subject-02,1,405,0.651105880737305,bird,bird,0,0405_pow_s02_0_bird_35_n02028035_5332.png
subject-02,1,406,0.590541124343872,bicycle,bicycle,0,0406_pow_s02_0_bicycle_35_n03792782_68319.png
subject-02,1,407,0.830642938613892,knife,keyboard,0,0407_pow_s02_0_keyboard_35_n04505470_8828.png
subject-02,1,408,1.03426814079285,dog,bear,pow,0408_pow_s02_pow_bear_35_n02134418_3073.png
subject-02,1,409,1.41816902160645,chair,truck,pow,0409_pow_s02_pow_truck_35_n03796401_6737.png
subject-02,1,410,0.819819927215576,car,car,pow,0410_pow_s02_pow_car_35_n04285008_6037.png
subject-02,1,411,0.821666955947876,bear,bear,0,0411_pow_s02_0_bear_35_n02132136_4157.png
subject-02,1,412,0.555495977401733,clock,clock,pow,0412_pow_s02_pow_clock_35_n04548280_6792.png
subject-02,1,413,0.491226196289062,boat,boat,pow,0413_pow_s02_pow_boat_35_n04612504_3064.png
subject-02,1,414,0.85349702835083,truck,truck,pow,0414_pow_s02_pow_truck_35_n03417042_15903.png
subject-02,1,415,0.658727884292603,bottle,bottle,pow,0415_pow_s02_pow_bottle_35_n04591713_1767.png
subject-02,1,416,0.684643030166626,bottle,bottle,0,0416_pow_s02_0_bottle_35_n04560804_3801.png
subject-02,1,417,0.634637832641602,airplane,airplane,pow,0417_pow_s02_pow_airplane_35_n02690373_1819.png
subject-02,1,418,1.21027708053589,car,car,0,0418_pow_s02_0_car_35_n02814533_35174.png
subject-02,1,419,0.500245094299316,airplane,airplane,0,0419_pow_s02_0_airplane_35_n02690373_4350.png
subject-02,1,420,0.747872829437256,truck,oven,pow,0420_pow_s02_pow_oven_35_n04111531_23668.png
subject-02,1,421,0.547832012176514,cat,cat,0,0421_pow_s02_0_cat_35_n02123394_593.png
subject-02,1,422,0.731619119644165,car,boat,pow,0422_pow_s02_pow_boat_35_n03344393_8258.png
subject-02,1,423,0.90344500541687,keyboard,keyboard,pow,0423_pow_s02_pow_keyboard_35_n04505470_4761.png
subject-02,1,424,0.739243030548096,airplane,airplane,pow,0424_pow_s02_pow_airplane_35_n02690373_60.png
subject-02,1,425,0.655364036560059,keyboard,keyboard,0,0425_pow_s02_0_keyboard_35_n03085013_7058.png
subject-02,1,426,0.726887941360474,knife,knife,pow,0426_pow_s02_pow_knife_35_n03041632_13194.png
subject-02,1,427,0.644787073135376,car,car,pow,0427_pow_s02_pow_car_35_n03100240_24471.png
subject-02,1,428,0.962476968765259,boat,bird,pow,0428_pow_s02_pow_bird_35_n02007558_11331.png
subject-02,1,429,0.850419044494629,cat,cat,pow,0429_pow_s02_pow_cat_35_n02125311_40746.png
subject-02,1,430,0.786093950271606,bird,cat,0,0430_pow_s02_0_cat_35_n02125311_2103.png
subject-02,1,431,0.966255903244019,bird,knife,pow,0431_pow_s02_pow_knife_35_n03041632_36789.png
subject-02,1,432,1.1139190196991,dog,dog,pow,0432_pow_s02_pow_dog_35_n02105056_6724.png
subject-02,1,433,0.763698816299438,dog,dog,0,0433_pow_s02_0_dog_35_n02095570_2009.png
subject-02,1,434,1.18569803237915,car,car,0,0434_pow_s02_0_car_35_n02814533_4374.png
subject-02,1,435,1.00720596313477,bear,bird,pow,0435_pow_s02_pow_bird_35_n02017213_5095.png
subject-02,1,436,0.603167057037354,bicycle,bicycle,0,0436_pow_s02_0_bicycle_35_n02835271_10832.png
subject-02,1,437,0.702991962432861,clock,bottle,0,0437_pow_s02_0_bottle_35_n04579145_2202.png
subject-02,1,438,0.852805852890015,car,boat,0,0438_pow_s02_0_boat_35_n02951358_14877.png
subject-02,1,439,0.854542970657349,knife,knife,0,0439_pow_s02_0_knife_35_n03041632_5102.png
subject-02,1,440,0.86266303062439,bottle,bottle,pow,0440_pow_s02_pow_bottle_35_n04557648_94.png
subject-02,1,441,0.772454977035522,knife,knife,pow,0441_pow_s02_pow_knife_35_n03041632_12651.png
subject-02,1,442,0.832091808319092,car,car,0,0442_pow_s02_0_car_35_n04285008_13174.png
subject-02,1,443,0.671751976013184,airplane,airplane,pow,0443_pow_s02_pow_airplane_35_n02690373_7740.png
subject-02,1,444,0.901506900787354,knife,knife,0,0444_pow_s02_0_knife_35_n03041632_34769.png
subject-02,1,445,0.683424949645996,truck,truck,0,0445_pow_s02_0_truck_35_n03417042_15893.png
subject-02,1,446,0.557016134262085,cat,cat,0,0446_pow_s02_0_cat_35_n02123045_12010.png
subject-02,1,447,0.459269046783447,airplane,airplane,0,0447_pow_s02_0_airplane_35_n02690373_7276.png
subject-02,1,448,0.848673820495605,dog,dog,pow,0448_pow_s02_pow_dog_35_n02091467_7264.png
subject-02,1,449,0.810431003570557,truck,truck,pow,0449_pow_s02_pow_truck_35_n03417042_18625.png
subject-02,1,450,0.814765930175781,bear,bear,pow,0450_pow_s02_pow_bear_35_n02134418_848.png
subject-02,1,451,1.24635195732117,bicycle,bicycle,0,0451_pow_s02_0_bicycle_35_n02835271_8271.png
subject-02,1,452,0.731897115707397,boat,oven,pow,0452_pow_s02_pow_oven_35_n04111531_452.png
subject-02,1,453,0.71578311920166,bottle,bottle,pow,0453_pow_s02_pow_bottle_35_n04579145_3894.png
subject-02,1,454,1.10965204238892,dog,cat,pow,0454_pow_s02_pow_cat_35_n02125311_12361.png
subject-02,1,455,0.831490993499756,oven,oven,0,0455_pow_s02_0_oven_35_n04111531_8398.png
subject-02,1,456,0.875293970108032,bottle,bottle,0,0456_pow_s02_0_bottle_35_n04557648_132.png
subject-02,1,457,0.839107036590576,bicycle,bicycle,pow,0457_pow_s02_pow_bicycle_35_n03792782_20190.png
subject-02,1,458,0.536806106567383,cat,cat,0,0458_pow_s02_0_cat_35_n02123045_9907.png
subject-02,1,459,0.578665971755981,airplane,airplane,0,0459_pow_s02_0_airplane_35_n02690373_19104.png
subject-02,1,460,0.778893947601318,bottle,knife,pow,0460_pow_s02_pow_knife_35_n03041632_92637.png
subject-02,1,461,0.888231039047241,bicycle,bicycle,pow,0461_pow_s02_pow_bicycle_35_n02835271_1436.png
subject-02,1,462,0.588305950164795,bicycle,bicycle,0,0462_pow_s02_0_bicycle_35_n03792782_15845.png
subject-02,1,463,0.614428997039795,bottle,bottle,0,0463_pow_s02_0_bottle_35_n04557648_9310.png
subject-02,1,464,1.18980312347412,bear,elephant,pow,0464_pow_s02_pow_elephant_35_n02504013_6552.png
subject-02,1,465,0.603652954101562,bottle,bottle,0,0465_pow_s02_0_bottle_35_n03983396_4178.png
subject-02,1,466,0.653406143188477,oven,oven,pow,0466_pow_s02_pow_oven_35_n04111531_1873.png
subject-02,1,467,0.647049903869629,bear,bear,pow,0467_pow_s02_pow_bear_35_n02134084_9539.png
subject-02,1,468,0.641008853912354,cat,cat,0,0468_pow_s02_0_cat_35_n02123394_1899.png
subject-02,1,469,1.20474410057068,boat,bear,0,0469_pow_s02_0_bear_35_n02134084_15968.png
subject-02,1,470,0.608639001846313,airplane,airplane,0,0470_pow_s02_0_airplane_35_n02690373_4945.png
subject-02,1,471,0.702306032180786,bicycle,bicycle,pow,0471_pow_s02_pow_bicycle_35_n02835271_21339.png
subject-02,1,472,0.772402048110962,boat,bird,pow,0472_pow_s02_pow_bird_35_n02009912_6788.png
subject-02,1,473,0.782031059265137,keyboard,keyboard,pow,0473_pow_s02_pow_keyboard_35_n03085013_20453.png
subject-02,1,474,0.884026050567627,elephant,elephant,pow,0474_pow_s02_pow_elephant_35_n02504458_3891.png
subject-02,1,475,0.82161283493042,bird,bird,pow,0475_pow_s02_pow_bird_35_n02017213_4528.png
subject-02,1,476,0.683887958526611,airplane,airplane,pow,0476_pow_s02_pow_airplane_35_n02690373_10931.png
subject-02,1,477,1.4032781124115,bottle,truck,0,0477_pow_s02_0_truck_35_n03796401_8964.png
subject-02,1,478,0.929241895675659,truck,truck,0,0478_pow_s02_0_truck_35_n04467665_45983.png
subject-02,1,479,0.655261039733887,car,car,pow,0479_pow_s02_pow_car_35_n02814533_40913.png
subject-02,1,480,0.788788080215454,keyboard,keyboard,0,0480_pow_s02_0_keyboard_35_n03085013_23086.png
subject-02,1,481,0.591463088989258,bird,bird,pow,0481_pow_s02_pow_bird_35_n01537544_9881.png
subject-02,1,482,0.783288955688477,dog,dog,0,0482_pow_s02_0_dog_35_n02099601_2980.png
subject-02,1,483,0.815216064453125,elephant,elephant,0,0483_pow_s02_0_elephant_35_n02504013_306.png
subject-02,1,484,0.742913961410522,dog,dog,pow,0484_pow_s02_pow_dog_35_n02100735_10683.png
subject-02,1,485,0.550770998001099,bird,bird,pow,0485_pow_s02_pow_bird_35_n01592084_5716.png
subject-02,1,486,0.718610048294067,car,truck,0,0486_pow_s02_0_truck_35_n03796401_4181.png
subject-02,1,487,0.764477968215942,dog,dog,0,0487_pow_s02_0_dog_35_n02107683_1934.png
subject-02,1,488,0.472298860549927,bicycle,bicycle,0,0488_pow_s02_0_bicycle_35_n02835271_27777.png
subject-02,1,489,1.19205808639526,cat,oven,0,0489_pow_s02_0_oven_35_n04111531_14903.png
subject-02,1,490,0.629786014556885,keyboard,keyboard,0,0490_pow_s02_0_keyboard_35_n04505470_1728.png
subject-02,1,491,0.867493152618408,bird,chair,pow,0491_pow_s02_pow_chair_35_n04429376_30249.png
subject-02,1,492,0.503381967544556,clock,clock,0,0492_pow_s02_0_clock_35_n03196217_10246.png
subject-02,1,493,0.721594095230103,keyboard,keyboard,pow,0493_pow_s02_pow_keyboard_35_n04505470_1358.png
subject-02,1,494,1.22344899177551,bear,elephant,pow,0494_pow_s02_pow_elephant_35_n02504013_8534.png
subject-02,1,495,0.746845960617065,bottle,bottle,0,0495_pow_s02_0_bottle_35_n03983396_24837.png
subject-02,1,496,0.664752006530762,cat,chair,pow,0496_pow_s02_pow_chair_35_n04429376_9630.png
subject-02,1,497,1.31044602394104,boat,boat,0,0497_pow_s02_0_boat_35_n03344393_3323.png
subject-02,1,498,1.31637716293335,elephant,elephant,pow,0498_pow_s02_pow_elephant_35_n02504013_9678.png
subject-02,1,499,0.508111000061035,cat,cat,0,0499_pow_s02_0_cat_35_n02123045_9947.png
subject-02,1,500,1.02398419380188,boat,boat,0,0500_pow_s02_0_boat_35_n03344393_7669.png
subject-02,1,501,0.562118053436279,oven,oven,pow,0501_pow_s02_pow_oven_35_n04111531_4407.png
subject-02,1,502,0.703537940979004,bottle,bottle,0,0502_pow_s02_0_bottle_35_n04591713_5129.png
subject-02,1,503,0.469403982162476,oven,oven,0,0503_pow_s02_0_oven_35_n04111531_15852.png
subject-02,1,504,0.831201076507568,chair,chair,0,0504_pow_s02_0_chair_35_n04099969_114.png
subject-02,1,505,0.55309009552002,keyboard,keyboard,pow,0505_pow_s02_pow_keyboard_35_n04505470_1253.png
subject-02,1,506,0.530750036239624,bicycle,bicycle,pow,0506_pow_s02_pow_bicycle_35_n03792782_51296.png
subject-02,1,507,0.9586181640625,knife,knife,pow,0507_pow_s02_pow_knife_35_n03041632_44019.png
subject-02,1,508,0.764319181442261,bicycle,bicycle,0,0508_pow_s02_0_bicycle_35_n03792782_3333.png
subject-02,1,509,0.468253135681152,bicycle,bicycle,0,0509_pow_s02_0_bicycle_35_n03792782_11306.png
subject-02,1,510,0.546109914779663,bear,bear,pow,0510_pow_s02_pow_bear_35_n02134084_13588.png
subject-02,1,511,0.875915050506592,bird,bird,pow,0511_pow_s02_pow_bird_35_n01534433_14336.png
subject-02,1,512,0.66161584854126,car,car,pow,0512_pow_s02_pow_car_35_n04285008_8465.png
subject-02,1,513,0.781543970108032,knife,knife,0,0513_pow_s02_0_knife_35_n03041632_20504.png
subject-02,1,514,1.13343906402588,elephant,elephant,0,0514_pow_s02_0_elephant_35_n02504458_6618.png
subject-02,1,515,0.787252187728882,cat,dog,pow,0515_pow_s02_pow_dog_35_n02110063_6748.png
subject-02,1,516,0.792865991592407,boat,truck,pow,0516_pow_s02_pow_truck_35_n04467665_3876.png
subject-02,1,517,0.953078031539917,bottle,knife,pow,0517_pow_s02_pow_knife_35_n03041632_46103.png
subject-02,1,518,0.428717851638794,clock,clock,pow,0518_pow_s02_pow_clock_35_n04548280_6411.png
subject-02,1,519,0.616672992706299,cat,cat,0,0519_pow_s02_0_cat_35_n02123597_14639.png
subject-02,1,520,0.532341003417969,bottle,bottle,0,0520_pow_s02_0_bottle_35_n03983396_10013.png
subject-02,1,521,0.731988906860352,keyboard,keyboard,0,0521_pow_s02_0_keyboard_35_n04505470_3531.png
subject-02,1,522,0.595860004425049,bicycle,bicycle,pow,0522_pow_s02_pow_bicycle_35_n02835271_3767.png
subject-02,1,523,0.825564861297607,bottle,bottle,0,0523_pow_s02_0_bottle_35_n03937543_2941.png
subject-02,1,524,1.03778100013733,bear,dog,pow,0524_pow_s02_pow_dog_35_n02105855_3310.png
subject-02,1,525,0.74734902381897,elephant,elephant,pow,0525_pow_s02_pow_elephant_35_n02504458_2888.png
subject-02,1,526,0.587400913238525,airplane,airplane,pow,0526_pow_s02_pow_airplane_35_n02690373_4042.png
subject-02,1,527,0.742928028106689,dog,bear,0,0527_pow_s02_0_bear_35_n02132136_23202.png
subject-02,1,528,1.49265694618225,bicycle,airplane,0,0528_pow_s02_0_airplane_35_n02690373_8069.png
subject-02,1,529,0.978605031967163,bird,boat,pow,0529_pow_s02_pow_boat_35_n04273569_3460.png
subject-02,1,530,0.59623384475708,cat,cat,pow,0530_pow_s02_pow_cat_35_n02123597_6370.png
subject-02,1,531,0.611993074417114,oven,oven,0,0531_pow_s02_0_oven_35_n04111531_5694.png
subject-02,1,532,1.14598488807678,airplane,airplane,pow,0532_pow_s02_pow_airplane_35_n02690373_5866.png
subject-02,1,533,0.753659009933472,dog,dog,0,0533_pow_s02_0_dog_35_n02086240_519.png
subject-02,1,534,0.635476112365723,bicycle,bicycle,pow,0534_pow_s02_pow_bicycle_35_n02835271_13234.png
subject-02,1,535,0.795263051986694,elephant,knife,pow,0535_pow_s02_pow_knife_35_n03041632_102764.png
subject-02,1,536,0.613176107406616,dog,dog,0,0536_pow_s02_0_dog_35_n02088632_2321.png
subject-02,1,537,0.668918132781982,bear,bear,pow,0537_pow_s02_pow_bear_35_n02134084_18469.png
subject-02,1,538,0.958847999572754,truck,truck,0,0538_pow_s02_0_truck_35_n03417042_17888.png
subject-02,1,539,0.982523202896118,oven,car,pow,0539_pow_s02_pow_car_35_n02814533_40876.png
subject-02,1,540,1.08448505401611,cat,bird,pow,0540_pow_s02_pow_bird_35_n01537544_20224.png
subject-02,1,541,0.920154094696045,knife,knife,0,0541_pow_s02_0_knife_35_n03041632_32377.png
subject-02,1,542,0.538004159927368,bicycle,bicycle,0,0542_pow_s02_0_bicycle_35_n02835271_19557.png
subject-02,1,543,0.73200798034668,keyboard,keyboard,pow,0543_pow_s02_pow_keyboard_35_n03085013_21325.png
subject-02,1,544,0.679694175720215,cat,cat,0,0544_pow_s02_0_cat_35_n02123597_6990.png
subject-02,1,545,0.52745509147644,bicycle,bicycle,0,0545_pow_s02_0_bicycle_35_n02835271_24131.png
subject-02,1,546,1.14531016349792,truck,bottle,pow,0546_pow_s02_pow_bottle_35_n03937543_2177.png
subject-02,1,547,0.761112928390503,keyboard,keyboard,pow,0547_pow_s02_pow_keyboard_35_n03085013_21183.png
subject-02,1,548,0.8230299949646,knife,knife,0,0548_pow_s02_0_knife_35_n03041632_21560.png
subject-02,1,549,0.760731935501099,boat,airplane,pow,0549_pow_s02_pow_airplane_35_n02690373_6755.png
subject-02,1,550,0.854629993438721,truck,truck,0,0550_pow_s02_0_truck_35_n03417042_9023.png
subject-02,1,551,0.818763971328735,car,car,pow,0551_pow_s02_pow_car_35_n03100240_10502.png
subject-02,1,552,1.5001380443573,bird,dog,pow,0552_pow_s02_pow_dog_35_n02104029_54.png
subject-02,1,553,0.535994052886963,bicycle,bicycle,pow,0553_pow_s02_pow_bicycle_35_n03792782_15561.png
subject-02,1,554,0.905901908874512,oven,oven,0,0554_pow_s02_0_oven_35_n04111531_1050.png
subject-02,1,555,0.7397141456604,bottle,bottle,pow,0555_pow_s02_pow_bottle_35_n04591713_3402.png
subject-02,1,556,0.561588048934937,bear,bear,0,0556_pow_s02_0_bear_35_n02134084_13205.png
subject-02,1,557,0.56120491027832,bicycle,bicycle,0,0557_pow_s02_0_bicycle_35_n03792782_2435.png
subject-02,1,558,0.82099986076355,keyboard,keyboard,0,0558_pow_s02_0_keyboard_35_n04505470_5137.png
subject-02,1,559,1.49272918701172,elephant,elephant,pow,0559_pow_s02_pow_elephant_35_n02504458_5320.png
subject-02,1,560,0.555087089538574,airplane,airplane,0,0560_pow_s02_0_airplane_35_n02690373_3729.png
subject-02,1,561,0.740259885787964,knife,knife,0,0561_pow_s02_0_knife_35_n03041632_3504.png
subject-02,1,562,0.682023048400879,knife,knife,pow,0562_pow_s02_pow_knife_35_n03041632_22214.png
subject-02,1,563,0.73613715171814,keyboard,keyboard,0,0563_pow_s02_0_keyboard_35_n03085013_23354.png
subject-02,1,564,0.655776023864746,truck,truck,0,0564_pow_s02_0_truck_35_n03796401_22759.png
subject-02,1,565,0.559294939041138,car,car,0,0565_pow_s02_0_car_35_n02814533_3561.png
subject-02,1,566,0.761120080947876,bear,bear,pow,0566_pow_s02_pow_bear_35_n02134418_904.png
subject-02,1,567,0.621155023574829,airplane,airplane,0,0567_pow_s02_0_airplane_35_n02690373_4107.png
subject-02,1,568,0.709300994873047,oven,bottle,pow,0568_pow_s02_pow_bottle_35_n03983396_2864.png
subject-02,1,569,0.730851888656616,dog,dog,pow,0569_pow_s02_pow_dog_35_n02097298_6578.png
subject-02,1,570,0.772459983825684,dog,dog,0,0570_pow_s02_0_dog_35_n02102973_7681.png
subject-02,1,571,0.688327074050903,oven,oven,0,0571_pow_s02_0_oven_35_n04111531_7625.png
subject-02,1,572,0.64242696762085,dog,dog,0,0572_pow_s02_0_dog_35_n02093256_1102.png
subject-02,1,573,0.52804708480835,boat,boat,0,0573_pow_s02_0_boat_35_n03662601_81.png
subject-02,1,574,0.787810087203979,truck,truck,0,0574_pow_s02_0_truck_35_n04467665_72639.png
subject-02,1,575,0.497605085372925,clock,clock,0,0575_pow_s02_0_clock_35_n03196217_5907.png
subject-02,1,576,1.03368592262268,dog,dog,0,0576_pow_s02_0_dog_35_n02086646_7920.png
subject-02,1,577,0.615125179290771,oven,oven,pow,0577_pow_s02_pow_oven_35_n04111531_22797.png
subject-02,1,578,0.816939115524292,oven,boat,pow,0578_pow_s02_pow_boat_35_n03344393_6892.png
subject-02,1,579,0.498749971389771,cat,cat,pow,0579_pow_s02_pow_cat_35_n02124075_9723.png
subject-02,1,580,0.852972984313965,truck,oven,pow,0580_pow_s02_pow_oven_35_n04111531_14269.png
subject-02,1,581,0.876360893249512,dog,dog,0,0581_pow_s02_0_dog_35_n02093754_4677.png
subject-02,1,582,1.05817818641663,bird,bird,0,0582_pow_s02_0_bird_35_n01616318_2186.png
subject-02,1,583,0.524344921112061,cat,cat,pow,0583_pow_s02_pow_cat_35_n02123045_11224.png
subject-02,1,584,0.589812994003296,bear,bear,pow,0584_pow_s02_pow_bear_35_n02134418_1041.png
subject-02,1,585,0.833683967590332,elephant,elephant,0,0585_pow_s02_0_elephant_35_n02504013_10922.png
subject-02,1,586,0.893552780151367,chair,chair,pow,0586_pow_s02_pow_chair_35_n02791124_3018.png
subject-02,1,587,0.465747833251953,clock,clock,pow,0587_pow_s02_pow_clock_35_n04548280_4739.png
subject-02,1,588,0.886947870254517,chair,car,pow,0588_pow_s02_pow_car_35_n04285008_7776.png
subject-02,1,589,1.18480896949768,cat,elephant,0,0589_pow_s02_0_elephant_35_n02504458_5331.png
subject-02,1,590,1.42469501495361,bird,bird,0,0590_pow_s02_0_bird_35_n02006656_4031.png
subject-02,1,591,1.2785370349884,cat,oven,pow,0591_pow_s02_pow_oven_35_n04111531_6181.png
subject-02,1,592,0.88633394241333,oven,oven,pow,0592_pow_s02_pow_oven_35_n04111531_11781.png
subject-02,1,593,0.754297018051147,elephant,elephant,0,0593_pow_s02_0_elephant_35_n02504013_7232.png
subject-02,1,594,1.27031183242798,elephant,elephant,pow,0594_pow_s02_pow_elephant_35_n02504013_482.png
subject-02,1,595,0.722153186798096,bird,bird,0,0595_pow_s02_0_bird_35_n01531178_17387.png
subject-02,1,596,0.821583986282349,keyboard,chair,pow,0596_pow_s02_pow_chair_35_n03376595_360.png
subject-02,1,597,0.603523015975952,airplane,airplane,0,0597_pow_s02_0_airplane_35_n02690373_2967.png
subject-02,1,598,0.589203119277954,chair,chair,0,0598_pow_s02_0_chair_35_n03376595_7660.png
subject-02,1,599,0.817192077636719,bird,bird,pow,0599_pow_s02_pow_bird_35_n01796340_9255.png
subject-02,1,600,0.615194797515869,car,car,pow,0600_pow_s02_pow_car_35_n04285008_15071.png
subject-02,1,601,0.740957021713257,bird,oven,0,0601_pow_s02_0_oven_35_n04111531_12843.png
subject-02,1,602,0.734477043151855,knife,knife,0,0602_pow_s02_0_knife_35_n03041632_44238.png
subject-02,1,603,0.686432123184204,bird,bird,0,0603_pow_s02_0_bird_35_n01534433_4900.png
subject-02,1,604,0.842019081115723,bottle,bottle,pow,0604_pow_s02_pow_bottle_35_n04579145_2999.png
subject-02,1,605,0.623916864395142,bottle,bottle,pow,0605_pow_s02_pow_bottle_35_n02823428_1733.png
subject-02,1,606,0.803647994995117,bear,bear,pow,0606_pow_s02_pow_bear_35_n02134084_22032.png
subject-02,1,607,0.56370210647583,airplane,airplane,pow,0607_pow_s02_pow_airplane_35_n02690373_7676.png
subject-02,1,608,0.869306802749634,boat,boat,pow,0608_pow_s02_pow_boat_35_n04612504_10662.png
subject-02,1,609,0.823158979415894,keyboard,knife,pow,0609_pow_s02_pow_knife_35_n03041632_76163.png
subject-02,1,610,0.723012208938599,car,oven,pow,0610_pow_s02_pow_oven_35_n04111531_18916.png
subject-02,1,611,0.746931076049805,chair,chair,pow,0611_pow_s02_pow_chair_35_n03376595_2916.png
subject-02,1,612,0.700834989547729,keyboard,keyboard,0,0612_pow_s02_0_keyboard_35_n03085013_10659.png
subject-02,1,613,1.22448992729187,bottle,bottle,0,0613_pow_s02_0_bottle_35_n03983396_4879.png
subject-02,1,614,0.728329181671143,chair,chair,pow,0614_pow_s02_pow_chair_35_n03376595_3239.png
subject-02,1,615,0.646024942398071,airplane,airplane,0,0615_pow_s02_0_airplane_35_n02690373_7107.png
subject-02,1,616,0.474153995513916,clock,clock,0,0616_pow_s02_0_clock_35_n03196217_713.png
subject-02,1,617,0.671700000762939,dog,dog,0,0617_pow_s02_0_dog_35_n02113624_1707.png
subject-02,1,618,0.733482837677002,chair,chair,pow,0618_pow_s02_pow_chair_35_n02791124_16913.png
subject-02,1,619,0.537386894226074,boat,boat,0,0619_pow_s02_0_boat_35_n03344393_4106.png
subject-02,1,620,0.5970458984375,airplane,airplane,pow,0620_pow_s02_pow_airplane_35_n02690373_12966.png
subject-02,1,621,0.816905975341797,bird,bird,pow,0621_pow_s02_pow_bird_35_n02002556_12696.png
subject-02,1,622,0.722894906997681,car,car,0,0622_pow_s02_0_car_35_n02814533_79224.png
subject-02,1,623,0.588460922241211,bird,bird,pow,0623_pow_s02_pow_bird_35_n01819313_6752.png
subject-02,1,624,0.434543132781982,clock,clock,pow,0624_pow_s02_pow_clock_35_n04548280_1960.png
subject-02,1,625,0.472181797027588,boat,boat,0,0625_pow_s02_0_boat_35_n03344393_8380.png
subject-02,1,626,0.757930040359497,boat,chair,pow,0626_pow_s02_pow_chair_35_n03376595_9048.png
subject-02,1,627,0.775770902633667,bottle,bottle,0,0627_pow_s02_0_bottle_35_n03983396_2271.png
subject-02,1,628,0.483661890029907,boat,boat,pow,0628_pow_s02_pow_boat_35_n04273569_31649.png
subject-02,1,629,0.695362091064453,dog,dog,0,0629_pow_s02_0_dog_35_n02095889_7413.png
subject-02,1,630,0.63311505317688,bear,bear,0,0630_pow_s02_0_bear_35_n02132136_8033.png
subject-02,1,631,0.73741602897644,bird,bird,0,0631_pow_s02_0_bird_35_n02051845_539.png
subject-02,1,632,0.60491681098938,truck,oven,pow,0632_pow_s02_pow_oven_35_n04111531_6955.png
subject-02,1,633,0.70658802986145,truck,truck,pow,0633_pow_s02_pow_truck_35_n03417042_16403.png
subject-02,1,634,0.582502126693726,bicycle,bicycle,0,0634_pow_s02_0_bicycle_35_n03792782_7713.png
subject-02,1,635,1.02650904655457,clock,clock,pow,0635_pow_s02_pow_clock_35_n03196217_5206.png
subject-02,1,636,0.900122880935669,elephant,elephant,pow,0636_pow_s02_pow_elephant_35_n02504013_7467.png
subject-02,1,637,1.30200409889221,oven,boat,pow,0637_pow_s02_pow_boat_35_n03344393_6713.png
subject-02,1,638,1.29371809959412,bird,dog,0,0638_pow_s02_0_dog_35_n02090622_1852.png
subject-02,1,639,0.69750714302063,car,car,0,0639_pow_s02_0_car_35_n03100240_1435.png
subject-02,1,640,0.6354079246521,bird,bird,0,0640_pow_s02_0_bird_35_n01614925_11281.png
subject-02,1,641,0.925074815750122,chair,chair,pow,0641_pow_s02_pow_chair_35_n03376595_596.png
subject-02,1,642,1.49881482124329,elephant,dog,pow,0642_pow_s02_pow_dog_35_n02088466_1537.png
subject-02,1,643,0.624557971954346,car,car,0,0643_pow_s02_0_car_35_n03100240_5808.png
subject-02,1,644,0.694815158843994,keyboard,keyboard,pow,0644_pow_s02_pow_keyboard_35_n03085013_29452.png
subject-02,1,645,0.826186180114746,chair,chair,pow,0645_pow_s02_pow_chair_35_n03376595_13703.png
subject-02,1,646,1.08405995368958,knife,knife,pow,0646_pow_s02_pow_knife_35_n03041632_21818.png
subject-02,1,647,0.821908950805664,chair,bicycle,pow,0647_pow_s02_pow_bicycle_35_n02835271_2315.png
subject-02,1,648,0.829632043838501,elephant,elephant,pow,0648_pow_s02_pow_elephant_35_n02504458_5982.png
subject-02,1,649,0.68954610824585,cat,cat,pow,0649_pow_s02_pow_cat_35_n02125311_28114.png
subject-02,1,650,0.673388957977295,bottle,bottle,0,0650_pow_s02_0_bottle_35_n04560804_8921.png
subject-02,1,651,0.897109985351562,keyboard,keyboard,0,0651_pow_s02_0_keyboard_35_n03085013_19607.png
subject-02,1,652,0.651179075241089,chair,chair,0,0652_pow_s02_0_chair_35_n04099969_15676.png
subject-02,1,653,1.04881596565247,keyboard,knife,0,0653_pow_s02_0_knife_35_n03041632_30573.png
subject-02,1,654,1.17262101173401,knife,knife,0,0654_pow_s02_0_knife_35_n03041632_13424.png
subject-02,1,655,0.784527063369751,chair,clock,0,0655_pow_s02_0_clock_35_n04548280_5011.png
subject-02,1,656,0.61830997467041,airplane,airplane,pow,0656_pow_s02_pow_airplane_35_n02690373_5277.png
subject-02,1,657,0.720273971557617,chair,chair,0,0657_pow_s02_0_chair_35_n03376595_10881.png
subject-02,1,658,0.609859943389893,chair,bird,pow,0658_pow_s02_pow_bird_35_n02017213_15747.png
subject-02,1,659,0.72959303855896,boat,boat,0,0659_pow_s02_0_boat_35_n03662601_19840.png
subject-02,1,660,0.483566999435425,cat,cat,pow,0660_pow_s02_pow_cat_35_n02125311_10174.png
subject-02,1,661,0.835328817367554,truck,truck,0,0661_pow_s02_0_truck_35_n04467665_58815.png
subject-02,1,662,0.763179063796997,dog,dog,pow,0662_pow_s02_pow_dog_35_n02108000_6061.png
subject-02,1,663,0.695024967193604,keyboard,keyboard,0,0663_pow_s02_0_keyboard_35_n03085013_19096.png
subject-02,1,664,0.842597007751465,knife,knife,0,0664_pow_s02_0_knife_35_n03041632_52040.png
subject-02,1,665,0.782672166824341,elephant,elephant,0,0665_pow_s02_0_elephant_35_n02504013_891.png
subject-02,1,666,0.650386810302734,oven,oven,0,0666_pow_s02_0_oven_35_n04111531_4.png
subject-02,1,667,0.798248052597046,knife,knife,pow,0667_pow_s02_pow_knife_35_n03041632_9302.png
subject-02,1,668,0.828023910522461,truck,truck,0,0668_pow_s02_0_truck_35_n04467665_57697.png
subject-02,1,669,0.64179801940918,bear,bear,0,0669_pow_s02_0_bear_35_n02134418_2547.png
subject-02,1,670,0.845511913299561,bottle,bottle,0,0670_pow_s02_0_bottle_35_n03983396_3675.png
subject-02,1,671,0.879288911819458,bird,oven,pow,0671_pow_s02_pow_oven_35_n04111531_12103.png
subject-02,1,672,0.669160127639771,bird,bird,pow,0672_pow_s02_pow_bird_35_n01796340_11783.png
subject-02,1,673,0.64903998374939,airplane,airplane,pow,0673_pow_s02_pow_airplane_35_n02690373_8521.png
subject-02,1,674,0.820789098739624,knife,knife,0,0674_pow_s02_0_knife_35_n03041632_11475.png
subject-02,1,675,1.37691783905029,bear,bear,0,0675_pow_s02_0_bear_35_n02134418_2590.png
subject-02,1,676,0.636454105377197,car,car,0,0676_pow_s02_0_car_35_n03100240_3073.png
subject-02,1,677,1.11425614356995,cat,bear,pow,0677_pow_s02_pow_bear_35_n02134084_5827.png
subject-02,1,678,0.734174966812134,bird,bird,0,0678_pow_s02_0_bird_35_n01530575_10212.png
subject-02,1,679,0.513997077941895,cat,oven,pow,0679_pow_s02_pow_oven_35_n04111531_15743.png
subject-02,1,680,0.919795989990234,airplane,airplane,0,0680_pow_s02_0_airplane_35_n02690373_4763.png
subject-02,1,681,0.779837131500244,oven,oven,0,0681_pow_s02_0_oven_35_n04111531_10306.png
subject-02,1,682,0.601245880126953,cat,dog,pow,0682_pow_s02_pow_dog_35_n02113023_12143.png
subject-02,1,683,0.515100002288818,bottle,bottle,pow,0683_pow_s02_pow_bottle_35_n03983396_9695.png
subject-02,1,684,0.99901819229126,cat,knife,pow,0684_pow_s02_pow_knife_35_n03041632_85416.png
subject-02,1,685,1.07889604568481,chair,chair,0,0685_pow_s02_0_chair_35_n04099969_16079.png
subject-02,1,686,0.872565984725952,dog,dog,pow,0686_pow_s02_pow_dog_35_n02100583_3987.png
subject-02,1,687,0.972503185272217,bird,bird,pow,0687_pow_s02_pow_bird_35_n01582220_2882.png
subject-02,1,688,0.856315851211548,elephant,elephant,pow,0688_pow_s02_pow_elephant_35_n02504013_2865.png
subject-02,1,689,1.22812008857727,keyboard,keyboard,0,0689_pow_s02_0_keyboard_35_n03085013_20906.png
subject-02,1,690,0.587862014770508,bottle,bottle,pow,0690_pow_s02_pow_bottle_35_n03937543_2936.png
subject-02,1,691,0.597645044326782,chair,chair,0,0691_pow_s02_0_chair_35_n03376595_7772.png
subject-02,1,692,0.551692962646484,clock,clock,0,0692_pow_s02_0_clock_35_n02708093_8179.png
subject-02,1,693,0.773408889770508,airplane,airplane,pow,0693_pow_s02_pow_airplane_35_n02690373_4225.png
subject-02,1,694,1.03314709663391,boat,keyboard,pow,0694_pow_s02_pow_keyboard_35_n04505470_7728.png
subject-02,1,695,0.935206890106201,dog,clock,pow,0695_pow_s02_pow_clock_35_n04548280_2765.png
subject-02,1,696,1.50004196166992,bear,cat,pow,0696_pow_s02_pow_cat_35_n02125311_5013.png
subject-02,1,697,0.696489810943604,bear,bear,0,0697_pow_s02_0_bear_35_n02134084_22051.png
subject-02,1,698,0.760456085205078,elephant,elephant,0,0698_pow_s02_0_elephant_35_n02504013_3843.png
subject-02,1,699,0.776097059249878,bird,bird,pow,0699_pow_s02_pow_bird_35_n01614925_5578.png
subject-02,1,700,0.912199974060059,dog,dog,pow,0700_pow_s02_pow_dog_35_n02096585_1894.png
subject-02,1,701,0.75771689414978,airplane,airplane,pow,0701_pow_s02_pow_airplane_35_n02690373_4402.png
subject-02,1,702,0.597604990005493,chair,chair,pow,0702_pow_s02_pow_chair_35_n03376595_11661.png
subject-02,1,703,1.16744184494019,bicycle,bicycle,pow,0703_pow_s02_pow_bicycle_35_n02835271_5643.png
subject-02,1,704,0.769246816635132,bottle,bottle,0,0704_pow_s02_0_bottle_35_n02823428_5850.png
subject-02,1,705,1.11098885536194,bottle,bottle,pow,0705_pow_s02_pow_bottle_35_n03983396_16742.png
subject-02,1,706,0.680737972259521,elephant,elephant,pow,0706_pow_s02_pow_elephant_35_n02504013_1081.png
subject-02,1,707,0.61874794960022,cat,dog,0,0707_pow_s02_0_dog_35_n02101006_11799.png
subject-02,1,708,0.848453998565674,car,car,pow,0708_pow_s02_pow_car_35_n03100240_6259.png
subject-02,1,709,0.778170108795166,bicycle,bear,0,0709_pow_s02_0_bear_35_n02132136_10654.png
subject-02,1,710,0.724164962768555,chair,chair,pow,0710_pow_s02_pow_chair_35_n03376595_9651.png
subject-02,1,711,0.58776593208313,car,car,0,0711_pow_s02_0_car_35_n02814533_11273.png
subject-02,1,712,0.523661851882935,oven,oven,0,0712_pow_s02_0_oven_35_n04111531_6049.png
subject-02,1,713,0.719467163085938,cat,cat,0,0713_pow_s02_0_cat_35_n02125311_55770.png
subject-02,1,714,0.651210069656372,airplane,airplane,0,0714_pow_s02_0_airplane_35_n02690373_8560.png
subject-02,1,715,0.831200122833252,elephant,elephant,0,0715_pow_s02_0_elephant_35_n02504013_3410.png
subject-02,1,716,0.914988994598389,bicycle,truck,0,0716_pow_s02_0_truck_35_n03417042_3327.png
subject-02,1,717,0.516657114028931,cat,cat,0,0717_pow_s02_0_cat_35_n02123159_4914.png
subject-02,1,718,0.980570077896118,boat,boat,0,0718_pow_s02_0_boat_35_n03662601_16106.png
subject-02,1,719,0.844414949417114,elephant,elephant,pow,0719_pow_s02_pow_elephant_35_n02504013_1702.png
subject-02,1,720,0.546178817749023,cat,cat,pow,0720_pow_s02_pow_cat_35_n02123159_2043.png
subject-02,1,721,1.06573581695557,bear,bird,pow,0721_pow_s02_pow_bird_35_n01514859_12245.png
subject-02,1,722,0.837577819824219,bird,bird,pow,0722_pow_s02_pow_bird_35_n02025239_15554.png
subject-02,1,723,0.551422119140625,airplane,airplane,0,0723_pow_s02_0_airplane_35_n02690373_306.png
subject-02,1,724,1.01133298873901,bicycle,oven,pow,0724_pow_s02_pow_oven_35_n04111531_4904.png
subject-02,1,725,0.863011837005615,bear,bear,pow,0725_pow_s02_pow_bear_35_n02134418_4666.png
subject-02,1,726,0.666784048080444,bird,boat,pow,0726_pow_s02_pow_boat_35_n03344393_815.png
subject-02,1,727,0.768756866455078,cat,cat,0,0727_pow_s02_0_cat_35_n02125311_20179.png
subject-02,1,728,0.792394876480103,dog,dog,0,0728_pow_s02_0_dog_35_n02111500_3947.png
subject-02,1,729,0.692234992980957,keyboard,keyboard,0,0729_pow_s02_0_keyboard_35_n04505470_5902.png
subject-02,1,730,0.574432134628296,car,car,0,0730_pow_s02_0_car_35_n03100240_18756.png
subject-02,1,731,1.34784197807312,dog,bird,0,0731_pow_s02_0_bird_35_n01820546_9729.png
subject-02,1,732,0.583911895751953,airplane,airplane,pow,0732_pow_s02_pow_airplane_35_n02690373_2498.png
subject-02,1,733,0.803686141967773,clock,clock,pow,0733_pow_s02_pow_clock_35_n02708093_3645.png
subject-02,1,734,0.613436937332153,bird,bird,0,0734_pow_s02_0_bird_35_n02002556_3463.png
subject-02,1,735,0.929532051086426,airplane,boat,pow,0735_pow_s02_pow_boat_35_n03662601_7642.png
subject-02,1,736,0.881346940994263,bicycle,boat,pow,0736_pow_s02_pow_boat_35_n03662601_15566.png
subject-02,1,737,1.12486600875854,car,boat,pow,0737_pow_s02_pow_boat_35_n03344393_3519.png
subject-02,1,738,0.62457013130188,cat,dog,pow,0738_pow_s02_pow_dog_35_n02097298_7577.png
subject-02,1,739,0.834478855133057,elephant,elephant,0,0739_pow_s02_0_elephant_35_n02504013_1715.png
subject-02,1,740,0.630295038223267,bicycle,bicycle,0,0740_pow_s02_0_bicycle_35_n03792782_10395.png
subject-02,1,741,0.844213008880615,keyboard,keyboard,pow,0741_pow_s02_pow_keyboard_35_n04505470_5125.png
subject-02,1,742,0.82797908782959,chair,chair,pow,0742_pow_s02_pow_chair_35_n02791124_713.png
subject-02,1,743,0.743677139282227,bird,bird,0,0743_pow_s02_0_bird_35_n02002556_5447.png
subject-02,1,744,0.751820087432861,bear,bear,pow,0744_pow_s02_pow_bear_35_n02132136_15870.png
subject-02,1,745,0.645615816116333,bottle,bottle,0,0745_pow_s02_0_bottle_35_n03983396_16628.png
subject-02,1,746,0.553179025650024,oven,oven,pow,0746_pow_s02_pow_oven_35_n04111531_12702.png
subject-02,1,747,0.647284984588623,bicycle,bicycle,pow,0747_pow_s02_pow_bicycle_35_n02835271_1701.png
subject-02,1,748,0.68670392036438,car,car,pow,0748_pow_s02_pow_car_35_n02814533_27588.png
subject-02,1,749,0.654891014099121,bird,bird,0,0749_pow_s02_0_bird_35_n02051845_6652.png
subject-02,1,750,1.08026313781738,chair,chair,0,0750_pow_s02_0_chair_35_n04099969_9713.png
subject-02,1,751,0.798141002655029,bicycle,bicycle,0,0751_pow_s02_0_bicycle_35_n03792782_1424.png
subject-02,1,752,0.573959112167358,oven,oven,pow,0752_pow_s02_pow_oven_35_n04111531_4146.png
subject-02,1,753,0.699866056442261,keyboard,keyboard,pow,0753_pow_s02_pow_keyboard_35_n03085013_19618.png
subject-02,1,754,0.671625852584839,bicycle,chair,pow,0754_pow_s02_pow_chair_35_n04429376_1838.png
subject-02,1,755,1.07160997390747,keyboard,keyboard,pow,0755_pow_s02_pow_keyboard_35_n03085013_3859.png
subject-02,1,756,0.753274917602539,oven,oven,pow,0756_pow_s02_pow_oven_35_n04111531_5212.png
subject-02,1,757,0.575414896011353,clock,clock,pow,0757_pow_s02_pow_clock_35_n02708093_1023.png
subject-02,1,758,0.714938879013062,bottle,bottle,pow,0758_pow_s02_pow_bottle_35_n04560804_3847.png
subject-02,1,759,0.730797052383423,bear,bear,0,0759_pow_s02_0_bear_35_n02133161_12167.png
subject-02,1,760,0.784826993942261,bicycle,bicycle,0,0760_pow_s02_0_bicycle_35_n02835271_18537.png
subject-02,1,761,0.61225700378418,chair,chair,pow,0761_pow_s02_pow_chair_35_n04099969_5577.png
subject-02,1,762,0.568001985549927,bear,bear,pow,0762_pow_s02_pow_bear_35_n02134418_5830.png
subject-02,1,763,0.6058669090271,truck,truck,0,0763_pow_s02_0_truck_35_n04467665_7290.png
subject-02,1,764,0.747648000717163,bird,bird,0,0764_pow_s02_0_bird_35_n02027492_7770.png
subject-02,1,765,1.29362392425537,elephant,elephant,0,0765_pow_s02_0_elephant_35_n02504013_354.png
subject-02,1,766,0.621403932571411,car,car,0,0766_pow_s02_0_car_35_n03100240_5387.png
subject-02,1,767,0.755438089370728,bottle,bottle,pow,0767_pow_s02_pow_bottle_35_n02823428_12740.png
subject-02,1,768,0.713016986846924,boat,elephant,pow,0768_pow_s02_pow_elephant_35_n02504013_7191.png
subject-02,1,769,1.2947940826416,clock,clock,0,0769_pow_s02_0_clock_35_n03196217_1234.png
subject-02,1,770,1.42452311515808,bicycle,chair,0,0770_pow_s02_0_chair_35_n04429376_24073.png
subject-02,1,771,0.750277996063232,chair,chair,0,0771_pow_s02_0_chair_35_n04099969_10516.png
subject-02,1,772,0.680258989334106,bottle,bottle,pow,0772_pow_s02_pow_bottle_35_n04557648_9790.png
subject-02,1,773,0.759968996047974,keyboard,knife,pow,0773_pow_s02_pow_knife_35_n03041632_85488.png
subject-02,1,774,0.760143041610718,dog,dog,0,0774_pow_s02_0_dog_35_n02109961_66260.png
subject-02,1,775,0.753696918487549,airplane,airplane,pow,0775_pow_s02_pow_airplane_35_n02690373_10510.png
subject-02,1,776,0.85581111907959,dog,dog,0,0776_pow_s02_0_dog_35_n02086240_1231.png
subject-02,1,777,0.717737913131714,bottle,bottle,0,0777_pow_s02_0_bottle_35_n02823428_2007.png
subject-02,1,778,0.709305047988892,airplane,airplane,pow,0778_pow_s02_pow_airplane_35_n02690373_8461.png
subject-02,1,779,0.506862878799438,clock,clock,0,0779_pow_s02_0_clock_35_n03196217_2607.png
subject-02,1,780,1.03291201591492,knife,knife,pow,0780_pow_s02_pow_knife_35_n03041632_82197.png
subject-02,1,781,1.27054309844971,bicycle,truck,pow,0781_pow_s02_pow_truck_35_n03417042_9610.png
subject-02,1,782,1.07470798492432,chair,chair,0,0782_pow_s02_0_chair_35_n03376595_9653.png
subject-02,1,783,0.736111164093018,cat,cat,pow,0783_pow_s02_pow_cat_35_n02123597_1027.png
subject-02,1,784,1.1438901424408,elephant,elephant,pow,0784_pow_s02_pow_elephant_35_n02504458_4187.png
subject-02,1,785,0.635875940322876,cat,cat,0,0785_pow_s02_0_cat_35_n02125311_475.png
subject-02,1,786,0.689948797225952,car,car,0,0786_pow_s02_0_car_35_n03100240_6103.png
subject-02,1,787,0.833733081817627,keyboard,keyboard,0,0787_pow_s02_0_keyboard_35_n03085013_23291.png
subject-02,1,788,1.03328895568848,boat,boat,pow,0788_pow_s02_pow_boat_35_n03344393_5798.png
subject-02,1,789,0.611125946044922,truck,truck,0,0789_pow_s02_0_truck_35_n03796401_10878.png
subject-02,1,790,0.592789888381958,boat,boat,0,0790_pow_s02_0_boat_35_n04612504_19147.png
subject-02,1,791,0.812729120254517,cat,cat,pow,0791_pow_s02_pow_cat_35_n02123045_13199.png
subject-02,1,792,0.670401096343994,chair,chair,pow,0792_pow_s02_pow_chair_35_n04429376_32124.png
subject-02,1,793,1.20441293716431,clock,clock,pow,0793_pow_s02_pow_clock_35_n04548280_17907.png
subject-02,1,794,0.67602801322937,bicycle,bicycle,pow,0794_pow_s02_pow_bicycle_35_n03792782_5034.png
subject-02,1,795,1.15632510185242,bear,cat,pow,0795_pow_s02_pow_cat_35_n02123394_159.png
subject-02,1,796,0.653738975524902,bear,bear,0,0796_pow_s02_0_bear_35_n02134084_9774.png
subject-02,1,797,0.681392908096313,clock,clock,0,0797_pow_s02_0_clock_35_n04548280_4768.png
subject-02,1,798,1.08122396469116,bicycle,bicycle,pow,0798_pow_s02_pow_bicycle_35_n02835271_840.png
subject-02,1,799,0.705039024353027,oven,oven,0,0799_pow_s02_0_oven_35_n04111531_10476.png
subject-02,1,800,0.635027885437012,cat,cat,pow,0800_pow_s02_pow_cat_35_n02123394_3718.png
subject-02,1,801,0.890474081039429,bear,bottle,pow,0801_pow_s02_pow_bottle_35_n03983396_12895.png
subject-02,1,802,0.830302000045776,elephant,bottle,pow,0802_pow_s02_pow_bottle_35_n03983396_2944.png
subject-02,1,803,0.748148918151855,boat,boat,pow,0803_pow_s02_pow_boat_35_n02951358_34234.png
subject-02,1,804,0.608366012573242,elephant,elephant,0,0804_pow_s02_0_elephant_35_n02504013_1916.png
subject-02,1,805,1.31771683692932,bottle,bottle,pow,0805_pow_s02_pow_bottle_35_n02823428_5374.png
subject-02,1,806,0.835511922836304,airplane,airplane,0,0806_pow_s02_0_airplane_35_n02690373_4873.png
subject-02,1,807,0.667448997497559,dog,dog,pow,0807_pow_s02_pow_dog_35_n02109525_23299.png
subject-02,1,808,0.947268009185791,truck,truck,pow,0808_pow_s02_pow_truck_35_n03417042_1182.png
subject-02,1,809,0.719053983688354,bear,bear,pow,0809_pow_s02_pow_bear_35_n02132136_8457.png
subject-02,1,810,0.958766937255859,bicycle,bird,0,0810_pow_s02_0_bird_35_n01537544_292.png
subject-02,1,811,1.09077501296997,bear,bear,0,0811_pow_s02_0_bear_35_n02134084_11187.png
subject-02,1,812,0.970474004745483,dog,elephant,pow,0812_pow_s02_pow_elephant_35_n02504458_3143.png
subject-02,1,813,0.716171979904175,keyboard,keyboard,0,0813_pow_s02_0_keyboard_35_n03085013_24272.png
subject-02,1,814,0.566148042678833,car,car,0,0814_pow_s02_0_car_35_n03100240_8483.png
subject-02,1,815,0.769939184188843,elephant,oven,pow,0815_pow_s02_pow_oven_35_n04111531_892.png
subject-02,1,816,0.831779003143311,elephant,elephant,0,0816_pow_s02_0_elephant_35_n02504458_4721.png
subject-02,1,817,1.04352807998657,bicycle,oven,pow,0817_pow_s02_pow_oven_35_n04111531_20591.png
subject-02,1,818,0.873475790023804,truck,truck,0,0818_pow_s02_0_truck_35_n03417042_1348.png
subject-02,1,819,0.591125011444092,boat,boat,pow,0819_pow_s02_pow_boat_35_n04273569_11997.png
subject-02,1,820,0.5853111743927,cat,cat,pow,0820_pow_s02_pow_cat_35_n02123394_3786.png
subject-02,1,821,NaN,na,bear,pow,0821_pow_s02_pow_bear_35_n02132136_29029.png
subject-02,1,822,1.09446001052856,truck,car,0,0822_pow_s02_0_car_35_n02814533_59762.png
subject-02,1,823,1.08819699287415,bear,bear,pow,0823_pow_s02_pow_bear_35_n02132136_15462.png
subject-02,1,824,0.728266000747681,car,car,pow,0824_pow_s02_pow_car_35_n03100240_14206.png
subject-02,1,825,0.533961057662964,oven,oven,0,0825_pow_s02_0_oven_35_n04111531_3805.png
subject-02,1,826,1.02579212188721,airplane,airplane,0,0826_pow_s02_0_airplane_35_n02690373_7281.png
subject-02,1,827,1.27953886985779,oven,oven,pow,0827_pow_s02_pow_oven_35_n04111531_19240.png
subject-02,1,828,0.753408908843994,bicycle,bicycle,0,0828_pow_s02_0_bicycle_35_n02835271_5196.png
subject-02,1,829,0.61326003074646,car,car,pow,0829_pow_s02_pow_car_35_n03100240_3874.png
subject-02,1,830,0.709434032440186,bear,bear,0,0830_pow_s02_0_bear_35_n02132136_900.png
subject-02,1,831,0.712813854217529,airplane,airplane,0,0831_pow_s02_0_airplane_35_n02690373_3415.png
subject-02,1,832,0.742707967758179,cat,dog,pow,0832_pow_s02_pow_dog_35_n02098105_2157.png
subject-02,1,833,0.934514045715332,dog,dog,pow,0833_pow_s02_pow_dog_35_n02100735_3553.png
subject-02,1,834,1.01431512832642,boat,boat,0,0834_pow_s02_0_boat_35_n03344393_7412.png
subject-02,1,835,1.30416989326477,cat,oven,0,0835_pow_s02_0_oven_35_n04111531_4585.png
subject-02,1,836,0.789911985397339,boat,knife,pow,0836_pow_s02_pow_knife_35_n03041632_4269.png
subject-02,1,837,NaN,na,truck,pow,0837_pow_s02_pow_truck_35_n04467665_6626.png
subject-02,1,838,0.779706001281738,chair,chair,0,0838_pow_s02_0_chair_35_n04429376_16372.png
subject-02,1,839,0.771393060684204,truck,truck,pow,0839_pow_s02_pow_truck_35_n04467665_63626.png
subject-02,1,840,0.481259822845459,oven,oven,0,0840_pow_s02_0_oven_35_n04111531_2074.png
subject-02,1,841,0.442921876907349,oven,oven,0,0841_pow_s02_0_oven_35_n04111531_20369.png
subject-02,1,842,1.10091614723206,bear,bear,0,0842_pow_s02_0_bear_35_n02134418_559.png
subject-02,1,843,0.733036041259766,boat,bicycle,pow,0843_pow_s02_pow_bicycle_35_n03792782_471.png
subject-02,1,844,0.758849143981934,bottle,bottle,0,0844_pow_s02_0_bottle_35_n03983396_11632.png
subject-02,1,845,0.690144062042236,bear,bear,pow,0845_pow_s02_pow_bear_35_n02134418_3232.png
subject-02,1,846,0.556528091430664,bicycle,bicycle,0,0846_pow_s02_0_bicycle_35_n03792782_19116.png
subject-02,1,847,0.717978954315186,car,car,pow,0847_pow_s02_pow_car_35_n04285008_402.png
subject-02,1,848,0.71766185760498,truck,truck,pow,0848_pow_s02_pow_truck_35_n03796401_1789.png
subject-02,1,849,0.633496999740601,knife,knife,0,0849_pow_s02_0_knife_35_n03041632_29355.png
subject-02,1,850,0.961590051651001,bird,bird,pow,0850_pow_s02_pow_bird_35_n01558993_6351.png
subject-02,1,851,0.911052942276001,elephant,elephant,0,0851_pow_s02_0_elephant_35_n02504013_9618.png
subject-02,1,852,0.79298996925354,bear,bear,0,0852_pow_s02_0_bear_35_n02134084_15558.png
subject-02,1,853,1.41069912910461,boat,boat,0,0853_pow_s02_0_boat_35_n04273569_12651.png
subject-02,1,854,1.28648781776428,bird,bird,pow,0854_pow_s02_pow_bird_35_n01532829_15193.png
subject-02,1,855,0.912256956100464,bird,bird,0,0855_pow_s02_0_bird_35_n02056570_8203.png
subject-02,1,856,0.680243968963623,clock,clock,0,0856_pow_s02_0_clock_35_n03196217_5300.png
subject-02,1,857,0.765963792800903,truck,oven,pow,0857_pow_s02_pow_oven_35_n04111531_23046.png
subject-02,1,858,1.31776714324951,bear,bear,pow,0858_pow_s02_pow_bear_35_n02133161_6679.png
subject-02,1,859,1.2575991153717,boat,oven,0,0859_pow_s02_0_oven_35_n04111531_19000.png
subject-02,1,860,0.563395023345947,car,car,pow,0860_pow_s02_pow_car_35_n02814533_58196.png
subject-02,1,861,0.599516153335571,car,car,pow,0861_pow_s02_pow_car_35_n04285008_8443.png
subject-02,1,862,0.637479782104492,bird,bird,0,0862_pow_s02_0_bird_35_n02009229_8793.png
subject-02,1,863,0.830952882766724,bird,bird,0,0863_pow_s02_0_bird_35_n01817953_31391.png
subject-02,1,864,0.748690128326416,oven,oven,pow,0864_pow_s02_pow_oven_35_n04111531_11405.png
subject-02,1,865,0.704526901245117,cat,truck,0,0865_pow_s02_0_truck_35_n03417042_213.png
subject-02,1,866,0.478330850601196,oven,oven,pow,0866_pow_s02_pow_oven_35_n04111531_14441.png
subject-02,1,867,0.948042869567871,chair,truck,0,0867_pow_s02_0_truck_35_n03796401_3326.png
subject-02,1,868,1.27035403251648,keyboard,keyboard,0,0868_pow_s02_0_keyboard_35_n04505470_8937.png
subject-02,1,869,0.856075048446655,airplane,airplane,0,0869_pow_s02_0_airplane_35_n02690373_4681.png
subject-02,1,870,0.761575937271118,truck,truck,0,0870_pow_s02_0_truck_35_n03796401_15097.png
subject-02,1,871,0.553437948226929,boat,boat,pow,0871_pow_s02_pow_boat_35_n04612504_8636.png
subject-02,1,872,0.559165954589844,bicycle,bicycle,pow,0872_pow_s02_pow_bicycle_35_n03792782_11625.png
subject-02,1,873,0.822942018508911,oven,oven,0,0873_pow_s02_0_oven_35_n04111531_6445.png
subject-02,1,874,0.950809001922607,clock,clock,0,0874_pow_s02_0_clock_35_n03196217_1376.png
subject-02,1,875,0.850701093673706,elephant,elephant,0,0875_pow_s02_0_elephant_35_n02504013_18498.png
subject-02,1,876,0.716426134109497,knife,knife,0,0876_pow_s02_0_knife_35_n03041632_6575.png
subject-02,1,877,0.806315898895264,airplane,airplane,0,0877_pow_s02_0_airplane_35_n02690373_9802.png
subject-02,1,878,0.73844313621521,car,car,0,0878_pow_s02_0_car_35_n02814533_18077.png
subject-02,1,879,1.15600395202637,knife,knife,0,0879_pow_s02_0_knife_35_n03041632_16020.png
subject-02,1,880,0.537851095199585,boat,boat,0,0880_pow_s02_0_boat_35_n03344393_5511.png
subject-02,1,881,0.873578071594238,knife,knife,pow,0881_pow_s02_pow_knife_35_n03041632_18959.png
subject-02,1,882,0.851153135299683,cat,knife,0,0882_pow_s02_0_knife_35_n03041632_4305.png
subject-02,1,883,1.17523097991943,bicycle,bicycle,pow,0883_pow_s02_pow_bicycle_35_n02835271_542.png
subject-02,1,884,0.978934049606323,bottle,bottle,0,0884_pow_s02_0_bottle_35_n04560804_20335.png
subject-02,1,885,0.706650972366333,keyboard,keyboard,0,0885_pow_s02_0_keyboard_35_n03085013_19343.png
subject-02,1,886,0.706387996673584,keyboard,keyboard,pow,0886_pow_s02_pow_keyboard_35_n04505470_4521.png
subject-02,1,887,0.956181049346924,chair,chair,0,0887_pow_s02_0_chair_35_n04429376_31206.png
subject-02,1,888,0.902090072631836,bicycle,oven,0,0888_pow_s02_0_oven_35_n04111531_13172.png
subject-02,1,889,0.531949996948242,bicycle,bicycle,0,0889_pow_s02_0_bicycle_35_n02835271_8017.png
subject-02,1,890,0.82967209815979,dog,dog,0,0890_pow_s02_0_dog_35_n02110958_368.png
subject-02,1,891,0.659569025039673,keyboard,keyboard,pow,0891_pow_s02_pow_keyboard_35_n03085013_24653.png
subject-02,1,892,0.871490001678467,dog,dog,pow,0892_pow_s02_pow_dog_35_n02104029_3041.png
subject-02,1,893,0.72524094581604,bicycle,bicycle,0,0893_pow_s02_0_bicycle_35_n03792782_11390.png
subject-02,1,894,0.582864046096802,bicycle,bicycle,pow,0894_pow_s02_pow_bicycle_35_n03792782_6735.png
subject-02,1,895,0.945089101791382,bottle,oven,0,0895_pow_s02_0_oven_35_n04111531_6094.png
subject-02,1,896,0.812663078308105,dog,dog,pow,0896_pow_s02_pow_dog_35_n02095570_8343.png
subject-02,1,897,0.662359952926636,cat,cat,pow,0897_pow_s02_pow_cat_35_n02125311_8963.png
subject-02,1,898,0.942394018173218,bicycle,cat,0,0898_pow_s02_0_cat_35_n02125311_20238.png
subject-02,1,899,0.511884927749634,boat,boat,0,0899_pow_s02_0_boat_35_n03344393_12983.png
subject-02,1,900,0.522219181060791,clock,clock,pow,0900_pow_s02_pow_clock_35_n03196217_3362.png
subject-02,1,901,0.715617179870605,truck,truck,pow,0901_pow_s02_pow_truck_35_n03417042_6608.png
subject-02,1,902,0.903562068939209,bird,bird,pow,0902_pow_s02_pow_bird_35_n01855672_8550.png
subject-02,1,903,0.725190162658691,airplane,clock,pow,0903_pow_s02_pow_clock_35_n04548280_2654.png
subject-02,1,904,0.545180082321167,bicycle,bicycle,0,0904_pow_s02_0_bicycle_35_n03792782_18529.png
subject-02,1,905,0.457206964492798,clock,clock,pow,0905_pow_s02_pow_clock_35_n02708093_2710.png
subject-02,1,906,0.556658983230591,car,car,pow,0906_pow_s02_pow_car_35_n04285008_13259.png
subject-02,1,907,0.716579914093018,dog,dog,pow,0907_pow_s02_pow_dog_35_n02093428_16873.png
subject-02,1,908,0.896250009536743,cat,dog,pow,0908_pow_s02_pow_dog_35_n02105641_6742.png
subject-02,1,909,0.758224964141846,keyboard,keyboard,0,0909_pow_s02_0_keyboard_35_n03085013_19759.png
subject-02,1,910,0.672025918960571,boat,boat,0,0910_pow_s02_0_boat_35_n04273569_5767.png
subject-02,1,911,0.852151155471802,dog,dog,pow,0911_pow_s02_pow_dog_35_n02088364_12272.png
subject-02,1,912,0.493562936782837,boat,boat,0,0912_pow_s02_0_boat_35_n02951358_29779.png
subject-02,1,913,0.793432950973511,bottle,bottle,0,0913_pow_s02_0_bottle_35_n04560804_17783.png
subject-02,1,914,0.675275087356567,airplane,airplane,0,0914_pow_s02_0_airplane_35_n02690373_9165.png
subject-02,1,915,0.728915929794312,airplane,airplane,pow,0915_pow_s02_pow_airplane_35_n02690373_763.png
subject-02,1,916,0.746767044067383,oven,oven,0,0916_pow_s02_0_oven_35_n04111531_2156.png
subject-02,1,917,0.810556888580322,knife,knife,0,0917_pow_s02_0_knife_35_n03041632_11932.png
subject-02,1,918,0.582360982894897,airplane,airplane,0,0918_pow_s02_0_airplane_35_n02690373_9709.png
subject-02,1,919,0.756334066390991,bottle,bottle,pow,0919_pow_s02_pow_bottle_35_n02823428_3328.png
subject-02,1,920,0.630017042160034,bear,bear,pow,0920_pow_s02_pow_bear_35_n02132136_10352.png
subject-02,1,921,0.467812061309814,clock,clock,0,0921_pow_s02_0_clock_35_n02708093_3509.png
subject-02,1,922,0.779851913452148,bottle,bottle,0,0922_pow_s02_0_bottle_35_n03937543_5567.png
subject-02,1,923,0.865898132324219,airplane,oven,pow,0923_pow_s02_pow_oven_35_n04111531_2462.png
subject-02,1,924,1.22756409645081,dog,dog,0,0924_pow_s02_0_dog_35_n02104365_3004.png
subject-02,1,925,0.787033081054688,truck,truck,pow,0925_pow_s02_pow_truck_35_n03796401_296.png
subject-02,1,926,0.607235193252563,car,car,pow,0926_pow_s02_pow_car_35_n03100240_7056.png
subject-02,1,927,0.8367760181427,airplane,airplane,0,0927_pow_s02_0_airplane_35_n02690373_13384.png
subject-02,1,928,0.850689888000488,cat,bear,0,0928_pow_s02_0_bear_35_n02134084_13029.png
subject-02,1,929,0.644243001937866,truck,truck,0,0929_pow_s02_0_truck_35_n03417042_3422.png
subject-02,1,930,0.540118217468262,bicycle,bicycle,0,0930_pow_s02_0_bicycle_35_n02835271_12799.png
subject-02,1,931,0.736033916473389,truck,truck,pow,0931_pow_s02_pow_truck_35_n04467665_31539.png
subject-02,1,932,0.87176513671875,car,car,pow,0932_pow_s02_pow_car_35_n02814533_874.png
subject-02,1,933,0.805952787399292,knife,knife,0,0933_pow_s02_0_knife_35_n03041632_13465.png
subject-02,1,934,0.78955602645874,chair,chair,0,0934_pow_s02_0_chair_35_n02791124_7193.png
subject-02,1,935,0.721210956573486,bird,bird,pow,0935_pow_s02_pow_bird_35_n01534433_11695.png
subject-02,1,936,0.785049200057983,elephant,elephant,pow,0936_pow_s02_pow_elephant_35_n02504013_1830.png
subject-02,1,937,0.874925136566162,car,car,pow,0937_pow_s02_pow_car_35_n02814533_61184.png
subject-02,1,938,0.506730079650879,oven,oven,0,0938_pow_s02_0_oven_35_n04111531_19795.png
subject-02,1,939,1.4186840057373,dog,cat,pow,0939_pow_s02_pow_cat_35_n02123394_2448.png
subject-02,1,940,0.656419038772583,elephant,elephant,0,0940_pow_s02_0_elephant_35_n02504013_6973.png
subject-02,1,941,0.514312982559204,cat,cat,0,0941_pow_s02_0_cat_35_n02125311_53223.png
subject-02,1,942,0.864105939865112,dog,dog,pow,0942_pow_s02_pow_dog_35_n02108915_8164.png
subject-02,1,943,0.681944131851196,knife,knife,pow,0943_pow_s02_pow_knife_35_n03041632_29276.png
subject-02,1,944,0.539948225021362,cat,cat,0,0944_pow_s02_0_cat_35_n02123394_506.png
subject-02,1,945,0.491511106491089,cat,cat,0,0945_pow_s02_0_cat_35_n02123045_939.png
subject-02,1,946,0.587188005447388,bottle,bottle,0,0946_pow_s02_0_bottle_35_n04560804_647.png
subject-02,1,947,0.93914008140564,bicycle,keyboard,pow,0947_pow_s02_pow_keyboard_35_n03085013_22386.png
subject-02,1,948,0.746726036071777,elephant,elephant,0,0948_pow_s02_0_elephant_35_n02504013_6141.png
subject-02,1,949,0.790594100952148,bottle,bottle,pow,0949_pow_s02_pow_bottle_35_n04591713_7005.png
subject-02,1,950,0.640419006347656,bicycle,bicycle,0,0950_pow_s02_0_bicycle_35_n02835271_3256.png
subject-02,1,951,0.916476011276245,knife,knife,pow,0951_pow_s02_pow_knife_35_n03041632_27960.png
subject-02,1,952,0.720131158828735,knife,knife,0,0952_pow_s02_0_knife_35_n03041632_383.png
subject-02,1,953,0.705854892730713,boat,boat,0,0953_pow_s02_0_boat_35_n03662601_4059.png
subject-02,1,954,0.931759834289551,airplane,airplane,0,0954_pow_s02_0_airplane_35_n02690373_12976.png
subject-02,1,955,0.75357985496521,cat,bear,pow,0955_pow_s02_pow_bear_35_n02133161_6028.png
subject-02,1,956,0.81332802772522,bear,bear,pow,0956_pow_s02_pow_bear_35_n02132136_31257.png
subject-02,1,957,1.19750809669495,bird,bird,0,0957_pow_s02_0_bird_35_n01819313_2722.png
subject-02,1,958,0.72284197807312,clock,clock,pow,0958_pow_s02_pow_clock_35_n04548280_5189.png
subject-02,1,959,0.764899969100952,chair,chair,pow,0959_pow_s02_pow_chair_35_n03376595_6409.png
subject-02,1,960,0.654592990875244,clock,clock,pow,0960_pow_s02_pow_clock_35_n04548280_4473.png
subject-02,1,961,0.638056993484497,boat,boat,pow,0961_pow_s02_pow_boat_35_n04273569_28992.png
subject-02,1,962,1.33360600471497,elephant,elephant,0,0962_pow_s02_0_elephant_35_n02504458_3250.png
subject-02,1,963,0.643656969070435,boat,boat,pow,0963_pow_s02_pow_boat_35_n03344393_6978.png
subject-02,1,964,1.33109998703003,elephant,oven,pow,0964_pow_s02_pow_oven_35_n04111531_3580.png
subject-02,1,965,0.795303821563721,truck,truck,pow,0965_pow_s02_pow_truck_35_n04467665_8824.png
subject-02,1,966,0.697074890136719,bicycle,bicycle,pow,0966_pow_s02_pow_bicycle_35_n03792782_12885.png
subject-02,1,967,0.508878946304321,bicycle,bicycle,pow,0967_pow_s02_pow_bicycle_35_n03792782_4931.png
subject-02,1,968,0.696372032165527,dog,dog,0,0968_pow_s02_0_dog_35_n02109047_17100.png
subject-02,1,969,0.668184041976929,oven,oven,0,0969_pow_s02_0_oven_35_n04111531_10436.png
subject-02,1,970,0.640153884887695,boat,boat,0,0970_pow_s02_0_boat_35_n03662601_10120.png
subject-02,1,971,0.497962951660156,boat,boat,pow,0971_pow_s02_pow_boat_35_n03344393_6260.png
subject-02,1,972,0.585675954818726,cat,bear,0,0972_pow_s02_0_bear_35_n02134418_261.png
subject-02,1,973,0.463529109954834,cat,cat,pow,0973_pow_s02_pow_cat_35_n02123159_4687.png
subject-02,1,974,0.931164026260376,elephant,elephant,0,0974_pow_s02_0_elephant_35_n02504013_1454.png
subject-02,1,975,0.723014831542969,truck,truck,pow,0975_pow_s02_pow_truck_35_n03796401_3427.png
subject-02,1,976,1.50001192092896,airplane,truck,0,0976_pow_s02_0_truck_35_n04467665_356.png
subject-02,1,977,0.644778966903687,boat,truck,pow,0977_pow_s02_pow_truck_35_n03417042_1479.png
subject-02,1,978,0.750587940216064,keyboard,keyboard,0,0978_pow_s02_0_keyboard_35_n03085013_20710.png
subject-02,1,979,0.956690073013306,knife,knife,0,0979_pow_s02_0_knife_35_n03041632_7380.png
subject-02,1,980,0.652551889419556,chair,chair,0,0980_pow_s02_0_chair_35_n04099969_2113.png
subject-02,1,981,0.700110912322998,car,car,0,0981_pow_s02_0_car_35_n03100240_10244.png
subject-02,1,982,0.74582314491272,chair,chair,0,0982_pow_s02_0_chair_35_n04429376_17074.png
subject-02,1,983,0.80964207649231,keyboard,keyboard,0,0983_pow_s02_0_keyboard_35_n03085013_7858.png
subject-02,1,984,0.803524971008301,boat,boat,pow,0984_pow_s02_pow_boat_35_n04612504_22353.png
subject-02,1,985,1.49310803413391,bird,bird,pow,0985_pow_s02_pow_bird_35_n01614925_8653.png
subject-02,1,986,1.26688504219055,bicycle,truck,pow,0986_pow_s02_pow_truck_35_n03417042_3913.png
subject-02,1,987,0.508887052536011,bicycle,bicycle,pow,0987_pow_s02_pow_bicycle_35_n03792782_4167.png
subject-02,1,988,0.644568204879761,bird,bird,0,0988_pow_s02_0_bird_35_n02025239_2961.png
subject-02,1,989,1.17640590667725,bird,elephant,pow,0989_pow_s02_pow_elephant_35_n02504013_6420.png
subject-02,1,990,0.654566049575806,bicycle,bicycle,pow,0990_pow_s02_pow_bicycle_35_n02835271_747.png
subject-02,1,991,0.772423028945923,elephant,bicycle,pow,0991_pow_s02_pow_bicycle_35_n02835271_771.png
subject-02,1,992,0.76589298248291,boat,boat,pow,0992_pow_s02_pow_boat_35_n04612504_12657.png
subject-02,1,993,1.01769995689392,car,car,0,0993_pow_s02_0_car_35_n04285008_5897.png
subject-02,1,994,0.769493103027344,truck,truck,0,0994_pow_s02_0_truck_35_n03417042_4934.png
subject-02,1,995,1.08137702941895,dog,bird,pow,0995_pow_s02_pow_bird_35_n01798484_962.png
subject-02,1,996,0.627246141433716,airplane,airplane,0,0996_pow_s02_0_airplane_35_n02690373_6614.png
subject-02,1,997,0.690847873687744,elephant,elephant,pow,0997_pow_s02_pow_elephant_35_n02504013_7353.png
subject-02,1,998,0.92873215675354,clock,clock,0,0998_pow_s02_0_clock_35_n04548280_7565.png
subject-02,1,999,0.590652942657471,cat,cat,0,0999_pow_s02_0_cat_35_n02123159_643.png
subject-02,1,1000,0.844259977340698,bicycle,bicycle,0,1000_pow_s02_0_bicycle_35_n02835271_9135.png
subject-02,1,1001,0.758208036422729,keyboard,keyboard,pow,1001_pow_s02_pow_keyboard_35_n03085013_22669.png
subject-02,1,1002,0.643980026245117,bicycle,bicycle,0,1002_pow_s02_0_bicycle_35_n02835271_10738.png
subject-02,1,1003,1.50012111663818,bird,cat,pow,1003_pow_s02_pow_cat_35_n02123597_589.png
subject-02,1,1004,0.709800004959106,bottle,bottle,pow,1004_pow_s02_pow_bottle_35_n02823428_6250.png
subject-02,1,1005,0.807370901107788,knife,knife,pow,1005_pow_s02_pow_knife_35_n03041632_42472.png
subject-02,1,1006,0.753589868545532,truck,truck,0,1006_pow_s02_0_truck_35_n03417042_2062.png
subject-02,1,1007,0.683251857757568,clock,clock,pow,1007_pow_s02_pow_clock_35_n03196217_3063.png
subject-02,1,1008,0.77108907699585,keyboard,keyboard,0,1008_pow_s02_0_keyboard_35_n03085013_6986.png
subject-02,1,1009,0.572736978530884,cat,cat,pow,1009_pow_s02_pow_cat_35_n02123394_4713.png
subject-02,1,1010,1.36455202102661,car,car,pow,1010_pow_s02_pow_car_35_n03100240_15676.png
subject-02,1,1011,0.710731029510498,keyboard,keyboard,0,1011_pow_s02_0_keyboard_35_n03085013_21851.png
subject-02,1,1012,0.852298021316528,truck,oven,pow,1012_pow_s02_pow_oven_35_n04111531_7283.png
subject-02,1,1013,0.735959053039551,oven,oven,pow,1013_pow_s02_pow_oven_35_n04111531_18949.png
subject-02,1,1014,0.807958126068115,boat,bear,0,1014_pow_s02_0_bear_35_n02134084_14168.png
subject-02,1,1015,0.941520929336548,car,car,pow,1015_pow_s02_pow_car_35_n04285008_5528.png
subject-02,1,1016,0.593524932861328,bottle,bottle,pow,1016_pow_s02_pow_bottle_35_n04591713_6827.png
subject-02,1,1017,0.697111845016479,car,bird,pow,1017_pow_s02_pow_bird_35_n01537544_7301.png
subject-02,1,1018,0.567023992538452,bicycle,bicycle,pow,1018_pow_s02_pow_bicycle_35_n03792782_8172.png
subject-02,1,1019,0.644953012466431,clock,clock,pow,1019_pow_s02_pow_clock_35_n02708093_148.png
subject-02,1,1020,1.50012516975403,cat,cat,0,1020_pow_s02_0_cat_35_n02123159_6927.png
subject-02,1,1021,0.686484098434448,truck,truck,pow,1021_pow_s02_pow_truck_35_n03796401_3618.png
subject-02,1,1022,0.704252004623413,truck,truck,0,1022_pow_s02_0_truck_35_n03417042_3659.png
subject-02,1,1023,0.658182144165039,chair,chair,pow,1023_pow_s02_pow_chair_35_n04099969_5294.png
subject-02,1,1024,1.13028717041016,dog,dog,0,1024_pow_s02_0_dog_35_n02099601_11986.png
subject-02,1,1025,0.61373496055603,dog,dog,pow,1025_pow_s02_pow_dog_35_n02088364_7145.png
subject-02,1,1026,0.761568069458008,chair,chair,0,1026_pow_s02_0_chair_35_n04099969_4816.png
subject-02,1,1027,1.11339020729065,boat,boat,pow,1027_pow_s02_pow_boat_35_n02951358_912.png
subject-02,1,1028,0.87109112739563,truck,truck,pow,1028_pow_s02_pow_truck_35_n04467665_37935.png
subject-02,1,1029,1.19889092445374,bird,bird,pow,1029_pow_s02_pow_bird_35_n01534433_14255.png
subject-02,1,1030,1.01313900947571,airplane,airplane,0,1030_pow_s02_0_airplane_35_n02690373_1229.png
subject-02,1,1031,0.576591968536377,airplane,airplane,0,1031_pow_s02_0_airplane_35_n02690373_2607.png
subject-02,1,1032,0.650646924972534,dog,dog,0,1032_pow_s02_0_dog_35_n02108000_6270.png
subject-02,1,1033,0.606182098388672,bear,bear,pow,1033_pow_s02_pow_bear_35_n02132136_4699.png
subject-02,1,1034,1.20413279533386,airplane,airplane,pow,1034_pow_s02_pow_airplane_35_n02690373_4704.png
subject-02,1,1035,0.562121152877808,airplane,airplane,pow,1035_pow_s02_pow_airplane_35_n02690373_2676.png
subject-02,1,1036,0.793758153915405,knife,knife,pow,1036_pow_s02_pow_knife_35_n03041632_10777.png
subject-02,1,1037,1.50017619132996,bird,knife,0,1037_pow_s02_0_knife_35_n03041632_22241.png
subject-02,1,1038,0.635472059249878,cat,cat,pow,1038_pow_s02_pow_cat_35_n02125311_30246.png
subject-02,1,1039,0.575161218643188,cat,cat,0,1039_pow_s02_0_cat_35_n02124075_2843.png
subject-02,1,1040,0.698878049850464,chair,chair,pow,1040_pow_s02_pow_chair_35_n02791124_13435.png
subject-02,1,1041,1.0147659778595,airplane,airplane,0,1041_pow_s02_0_airplane_35_n02690373_10404.png
subject-02,1,1042,0.616327047348022,clock,bicycle,0,1042_pow_s02_0_bicycle_35_n03792782_3765.png
subject-02,1,1043,0.592217922210693,bird,bird,0,1043_pow_s02_0_bird_35_n01843383_2122.png
subject-02,1,1044,0.621984958648682,knife,knife,pow,1044_pow_s02_pow_knife_35_n03041632_94995.png
subject-02,1,1045,0.829859972000122,bird,bird,0,1045_pow_s02_0_bird_35_n02018207_19525.png
subject-02,1,1046,0.605540990829468,truck,truck,pow,1046_pow_s02_pow_truck_35_n03417042_7581.png
subject-02,1,1047,0.901347160339355,bicycle,dog,pow,1047_pow_s02_pow_dog_35_n02093256_1772.png
subject-02,1,1048,0.793111085891724,elephant,elephant,pow,1048_pow_s02_pow_elephant_35_n02504013_6584.png
subject-02,1,1049,0.716971874237061,oven,oven,0,1049_pow_s02_0_oven_35_n04111531_807.png
subject-02,1,1050,0.616891145706177,chair,chair,pow,1050_pow_s02_pow_chair_35_n02791124_28.png
subject-02,1,1051,0.946643114089966,chair,dog,0,1051_pow_s02_0_dog_35_n02088364_5801.png
subject-02,1,1052,0.55644702911377,bicycle,bicycle,pow,1052_pow_s02_pow_bicycle_35_n03792782_3357.png
subject-02,1,1053,0.996212959289551,bird,bird,0,1053_pow_s02_0_bird_35_n01833805_16468.png
subject-02,1,1054,0.900010108947754,elephant,bear,pow,1054_pow_s02_pow_bear_35_n02133161_505.png
subject-02,1,1055,0.617804050445557,boat,boat,pow,1055_pow_s02_pow_boat_35_n04273569_14262.png
subject-02,1,1056,0.507524967193604,cat,cat,0,1056_pow_s02_0_cat_35_n02124075_4189.png
subject-02,1,1057,0.645395040512085,boat,bottle,pow,1057_pow_s02_pow_bottle_35_n04557648_1184.png
subject-02,1,1058,1.06723284721375,bear,elephant,0,1058_pow_s02_0_elephant_35_n02504458_4414.png
subject-02,1,1059,1.21700000762939,oven,oven,0,1059_pow_s02_0_oven_35_n04111531_13277.png
